# Time (seconds),Accel_X,Accel_Y,Accel_Z,Gyro_X,Gyro_Y,Gyro_Z
0.0099999,0.304063618183136,-1.2066776752471924,-9.780313491821289,10.3759765625,2.99072265625,-7.049560546875
0.029999900000000003,0.26096799969673157,-1.2282254695892334,-9.77791976928711,13.36669921875,0.7476806640625,-3.1890869140625
0.0499999,0.009576806798577309,-1.1324573755264282,-9.816226959228516,14.09912109375,-4.1046142578125,-2.105712890625
0.0699999,-0.2298433631658554,-1.0989385843276978,-9.81143856048584,20.7366943359375,-3.0364990234375,0.8697509765625
0.08999990000000001,-0.4213795065879822,-1.0773907899856567,-9.806650161743164,13.7481689453125,-1.556396484375,0.1220703125
0.10999990000000001,-0.4644751250743866,-1.1228805780410767,-9.773131370544434,4.7149658203125,-0.3204345703125,-0.0152587890625
0.1299999,-0.395043283700943,-1.2066776752471924,-9.739612579345703,-0.54931640625,1.0986328125,0.091552734375
0.14999990000000002,-0.2825157940387726,-1.3000515699386597,-9.701305389404297,-4.974365234375,2.227783203125,0.0762939453125
0.1699999,-0.17238251864910126,-1.357512354850769,-9.691728591918945,-14.0533447265625,4.4403076171875,0.213623046875
0.1899999,-0.08858546614646912,-1.3766659498214722,-9.68933391571045,-18.7225341796875,3.11279296875,-0.152587890625
0.20999990000000002,-0.035913024097681046,-1.3455413579940796,-9.708487510681152,-14.5263671875,0.91552734375,-0.30517578125
0.2299999,-0.011971008032560349,-1.290474772453308,-9.734824180603027,-3.7078857421875,2.288818359375,0.030517578125
0.2499999,-0.014365210197865963,-1.2210428714752197,-9.75397777557373,-4.8370361328125,1.15966796875,-0.152587890625
0.2699999,-0.026336219161748886,-1.170764684677124,-9.765948295593262,-6.072998046875,1.9989013671875,-0.0457763671875
0.28999990000000003,-0.040701430290937424,-1.1324573755264282,-9.765948295593262,-12.5579833984375,1.6021728515625,-0.1373291015625
0.3099999,-0.05027823522686958,-1.0869675874710083,-9.773131370544434,-14.6026611328125,0.640869140625,-0.274658203125
0.3299999,-0.05506663769483566,-1.0654197931289673,-9.77791976928711,5.4473876953125,1.251220703125,0.06103515625
0.34999990000000003,-0.05506663769483566,-1.048660397529602,-9.785101890563965,10.3302001953125,1.953125,0.335693359375
0.3699999,-0.033518824726343155,-1.036689281463623,-9.780313491821289,-10.31494140625,-1.6326904296875,-0.0457763671875
0.3899999,-0.047884032130241394,-1.048660397529602,-9.787496566772461,1.678466796875,2.4871826171875,-3.173828125
0.40999990000000003,-0.035913024097681046,-1.0582371950149536,-9.773131370544434,7.0648193359375,1.556396484375,-2.2430419921875
0.4299999,-0.05506663769483566,-1.0558429956436157,-9.773131370544434,-4.150390625,0.2899169921875,0.3814697265625
0.4499999,-0.05985504388809204,-1.0630255937576294,-9.773131370544434,-2.716064453125,0.9002685546875,0.030517578125
0.4699999,-0.05985504388809204,-1.0678139925003052,-9.768342971801758,3.35693359375,1.3580322265625,0
0.4899999,-0.05746084079146385,-1.0678139925003052,-9.768342971801758,-0.640869140625,0.823974609375,-0.030517578125
0.5099999,-0.05267243832349777,-1.0654197931289673,-9.770736694335938,-2.960205078125,0.701904296875,-0.1068115234375
0.5299999,-0.047884032130241394,-1.0654197931289673,-9.768342971801758,1.617431640625,1.28173828125,0.0152587890625
0.5499999,-0.043095629662275314,-1.0630255937576294,-9.768342971801758,0.8544921875,1.007080078125,-0.030517578125
0.5699999,-0.043095629662275314,-1.0606313943862915,-9.768342971801758,-2.4261474609375,0.640869140625,-0.0762939453125
0.5899998999999999,-0.043095629662275314,-1.0630255937576294,-9.768342971801758,0.06103515625,1.1444091796875,-0.0152587890625
0.6099998999999999,-0.0454898327589035,-1.0654197931289673,-9.765948295593262,1.2664794921875,1.190185546875,-0.030517578125
0.6299999,-0.047884032130241394,-1.0654197931289673,-9.763554573059082,-1.28173828125,0.8087158203125,-0.091552734375
0.6499999,-0.0454898327589035,-1.0678139925003052,-9.763554573059082,-0.7476806640625,0.9613037109375,-0.06103515625
0.6699999,-0.0454898327589035,-1.070208191871643,-9.761159896850586,0.8392333984375,1.129150390625,-0.0152587890625
0.6899999,-0.043095629662275314,-1.070208191871643,-9.758766174316406,-0.396728515625,1.007080078125,-0.06103515625
0.7099999,-0.0454898327589035,-1.0678139925003052,-9.758766174316406,-0.79345703125,0.9765625,-0.1220703125
0.7299998999999999,-0.0454898327589035,-1.0678139925003052,-9.761159896850586,0.2899169921875,1.068115234375,0.0152587890625
0.7499998999999999,-0.0454898327589035,-1.0654197931289673,-9.763554573059082,-0.2288818359375,0.9765625,0.0152587890625
0.7699999,-0.047884032130241394,-1.0654197931289673,-9.765948295593262,-0.5645751953125,0.9307861328125,-0.0762939453125
0.7899999,-0.047884032130241394,-1.0630255937576294,-9.768342971801758,0.1373291015625,1.0223388671875,-0.0762939453125
0.8099999,-0.05027823522686958,-1.0630255937576294,-9.768342971801758,-0.274658203125,0.9613037109375,-0.0457763671875
0.8299999,-0.05027823522686958,-1.0606313943862915,-9.768342971801758,-0.518798828125,0.9307861328125,-0.1373291015625
0.8499998999999999,-0.05027823522686958,-1.0630255937576294,-9.768342971801758,0.1983642578125,1.129150390625,-0.0762939453125
0.8699998999999999,-0.05027823522686958,-1.0630255937576294,-9.768342971801758,-0.030517578125,1.03759765625,-0.0457763671875
0.8899999,-0.047884032130241394,-1.0654197931289673,-9.768342971801758,-0.6561279296875,0.9307861328125,-0.06103515625
0.9099999,-0.0454898327589035,-1.0654197931289673,-9.768342971801758,-0.1678466796875,1.0223388671875,-0.0762939453125
0.9299999,-0.0454898327589035,-1.0678139925003052,-9.765948295593262,0.1983642578125,0.9613037109375,0
0.9499999,-0.043095629662275314,-1.0678139925003052,-9.763554573059082,-0.335693359375,0.91552734375,-0.0152587890625
0.9699998999999999,-0.043095629662275314,-1.0678139925003052,-9.763554573059082,-0.4425048828125,0.9765625,0
0.9899998999999999,-0.043095629662275314,-1.0654197931289673,-9.761159896850586,-0.091552734375,1.0223388671875,-0.0152587890625
1.0099999,-0.043095629662275314,-1.0630255937576294,-9.763554573059082,-0.0762939453125,1.0528564453125,-0.030517578125
1.0299999,-0.040701430290937424,-1.0606313943862915,-9.763554573059082,-0.396728515625,0.9765625,-0.0762939453125
1.0499999,-0.043095629662275314,-1.0606313943862915,-9.765948295593262,-0.2593994140625,1.0223388671875,-0.0457763671875
1.0699999,-0.043095629662275314,-1.0630255937576294,-9.765948295593262,0.0152587890625,1.0986328125,-0.1068115234375
1.0899999,-0.043095629662275314,-1.0630255937576294,-9.768342971801758,-0.213623046875,1.007080078125,-0.091552734375
1.1099999,-0.0454898327589035,-1.0630255937576294,-9.768342971801758,-0.3204345703125,0.9765625,0
1.1299999,-0.047884032130241394,-1.0606313943862915,-9.765948295593262,-0.1983642578125,1.068115234375,-0.06103515625
1.1499999,-0.047884032130241394,-1.0582371950149536,-9.765948295593262,-0.152587890625,1.068115234375,-0.1220703125
1.1699998999999999,-0.047884032130241394,-1.0558429956436157,-9.763554573059082,-0.2593994140625,0.946044921875,-0.091552734375
1.1899998999999999,-0.0454898327589035,-1.05105459690094,-9.765948295593262,-0.2593994140625,0.9918212890625,-0.091552734375
1.2099999,-0.0454898327589035,-1.05105459690094,-9.768342971801758,-0.1373291015625,1.0223388671875,-0.1220703125
1.2299999,-0.043095629662275314,-1.048660397529602,-9.770736694335938,-0.1373291015625,1.0833740234375,-0.06103515625
1.2499999,-0.043095629662275314,-1.0462661981582642,-9.770736694335938,-0.2899169921875,1.068115234375,-0.1373291015625
1.2699999,-0.0454898327589035,-1.0438719987869263,-9.770736694335938,-0.30517578125,1.0223388671875,-0.1220703125
1.2899999,-0.047884032130241394,-1.0438719987869263,-9.770736694335938,-0.18310546875,1.068115234375,-0.030517578125
1.3099999,-0.047884032130241394,-1.0438719987869263,-9.770736694335938,-0.1373291015625,1.0223388671875,-0.06103515625
1.3299999,-0.047884032130241394,-1.0462661981582642,-9.768342971801758,-0.3204345703125,1.0223388671875,-0.1068115234375
1.3499999,-0.0454898327589035,-1.048660397529602,-9.765948295593262,-0.244140625,0.9307861328125,-0.091552734375
1.3699999,-0.0454898327589035,-1.05105459690094,-9.763554573059082,-0.0152587890625,1.0528564453125,-0.0762939453125
1.3899999,-0.043095629662275314,-1.05105459690094,-9.761159896850586,-0.2593994140625,1.0223388671875,-0.0457763671875
1.4099999,-0.043095629662275314,-1.05105459690094,-9.758766174316406,-0.3814697265625,0.9918212890625,-0.1373291015625
1.4299998999999999,-0.043095629662275314,-1.05105459690094,-9.761159896850586,-0.0762939453125,1.03759765625,-0.06103515625
1.4499999,-0.043095629662275314,-1.048660397529602,-9.763554573059082,-0.1068115234375,0.9613037109375,0
1.4699999,-0.043095629662275314,-1.048660397529602,-9.763554573059082,-0.3814697265625,0.9307861328125,-0.0457763671875
1.4899999,-0.043095629662275314,-1.048660397529602,-9.768342971801758,-0.274658203125,0.9613037109375,-0.091552734375
1.5099999,-0.0454898327589035,-1.048660397529602,-9.770736694335938,0.030517578125,1.03759765625,-0.0762939453125
1.5299999,-0.0454898327589035,-1.05105459690094,-9.770736694335938,-0.1373291015625,1.007080078125,0
1.5499999,-0.05027823522686958,-1.05105459690094,-9.770736694335938,-0.3204345703125,0.9613037109375,-0.091552734375
1.5699999,-0.05267243832349777,-1.0534487962722778,-9.770736694335938,-0.1678466796875,1.03759765625,-0.0762939453125
1.5899999,-0.05267243832349777,-1.0534487962722778,-9.768342971801758,-0.152587890625,1.007080078125,0
1.6099999,-0.05506663769483566,-1.0534487962722778,-9.765948295593262,-0.2288818359375,0.9918212890625,-0.0152587890625
1.6299999,-0.05267243832349777,-1.05105459690094,-9.763554573059082,-0.274658203125,0.9765625,0
1.6499999,-0.05027823522686958,-1.048660397529602,-9.763554573059082,-0.1068115234375,1.0223388671875,0
1.6699999,-0.047884032130241394,-1.0462661981582642,-9.765948295593262,-0.1678466796875,1.03759765625,0.0152587890625
1.6899998999999999,-0.0454898327589035,-1.0438719987869263,-9.765948295593262,-0.2288818359375,1.03759765625,-0.091552734375
1.7099999,-0.0454898327589035,-1.0438719987869263,-9.768342971801758,-0.1373291015625,0.9613037109375,-0.0457763671875
1.7299999,-0.0454898327589035,-1.0438719987869263,-9.768342971801758,-0.1678466796875,1.03759765625,-0.0762939453125
1.7499999,-0.0454898327589035,-1.0462661981582642,-9.768342971801758,-0.274658203125,0.9918212890625,-0.152587890625
1.7699999,-0.0454898327589035,-1.0462661981582642,-9.768342971801758,-0.2288818359375,0.9918212890625,-0.1068115234375
1.7899999,-0.040701430290937424,-1.048660397529602,-9.768342971801758,-0.152587890625,1.03759765625,-0.091552734375
1.8099999,-0.038307227194309235,-1.048660397529602,-9.770736694335938,-0.1220703125,1.068115234375,-0.0457763671875
1.8299999,-0.038307227194309235,-1.048660397529602,-9.770736694335938,-0.213623046875,0.9918212890625,-0.030517578125
1.8499999,-0.038307227194309235,-1.0462661981582642,-9.773131370544434,-0.152587890625,0.9765625,-0.030517578125
1.8699999,-0.043095629662275314,-1.0438719987869263,-9.773131370544434,-0.1068115234375,1.03759765625,-0.06103515625
1.8899999,-0.043095629662275314,-1.039083480834961,-9.768342971801758,-0.152587890625,0.9918212890625,-0.0457763671875
1.9099999,-0.0454898327589035,-1.036689281463623,-9.768342971801758,-0.2899169921875,0.9613037109375,-0.06103515625
1.9299998999999999,-0.0454898327589035,-1.0342950820922852,-9.765948295593262,-0.2593994140625,1.0223388671875,-0.06103515625
1.9499999,-0.0454898327589035,-1.0342950820922852,-9.763554573059082,-0.0762939453125,1.0528564453125,-0.06103515625
1.9699999,-0.0454898327589035,-1.0342950820922852,-9.763554573059082,-0.1373291015625,0.9918212890625,-0.030517578125
1.9899999,-0.0454898327589035,-1.039083480834961,-9.763554573059082,-0.244140625,0.9918212890625,-0.0457763671875
2.0099999,-0.047884032130241394,-1.0414776802062988,-9.763554573059082,-0.213623046875,1.007080078125,-0.030517578125
2.0299999,-0.0454898327589035,-1.0462661981582642,-9.765948295593262,-0.1678466796875,1.03759765625,-0.06103515625
2.0499999,-0.0454898327589035,-1.0462661981582642,-9.768342971801758,-0.18310546875,0.9307861328125,-0.091552734375
2.0699999,-0.0454898327589035,-1.0462661981582642,-9.770736694335938,-0.1983642578125,0.885009765625,-0.06103515625
2.0899999,-0.0454898327589035,-1.0462661981582642,-9.770736694335938,-0.1373291015625,0.946044921875,-0.030517578125
2.1099999,-0.0454898327589035,-1.0414776802062988,-9.768342971801758,-0.1678466796875,1.0223388671875,-0.06103515625
2.1299999,-0.043095629662275314,-1.0414776802062988,-9.765948295593262,-0.2288818359375,0.9918212890625,-0.0457763671875
2.1499999,-0.0454898327589035,-1.039083480834961,-9.763554573059082,-0.213623046875,0.9918212890625,-0.06103515625
2.1699999,-0.043095629662275314,-1.039083480834961,-9.761159896850586,-0.1983642578125,1.0223388671875,-0.06103515625
2.1899999,-0.0454898327589035,-1.039083480834961,-9.758766174316406,-0.152587890625,0.9918212890625,0
2.2099999,-0.0454898327589035,-1.039083480834961,-9.758766174316406,-0.2288818359375,0.9765625,-0.0457763671875
2.2299999,-0.0454898327589035,-1.039083480834961,-9.758766174316406,-0.2288818359375,1.0223388671875,-0.091552734375
2.2499999,-0.043095629662275314,-1.039083480834961,-9.761159896850586,-0.152587890625,1.0528564453125,-0.1068115234375
2.2699999,-0.040701430290937424,-1.039083480834961,-9.763554573059082,-0.1983642578125,0.9613037109375,-0.06103515625
2.2899999,-0.040701430290937424,-1.0414776802062988,-9.765948295593262,-0.2288818359375,0.9765625,-0.030517578125
2.3099999,-0.040701430290937424,-1.0414776802062988,-9.768342971801758,-0.213623046875,1.068115234375,-0.06103515625
2.3299999,-0.040701430290937424,-1.0414776802062988,-9.765948295593262,-0.152587890625,0.9918212890625,-0.0762939453125
2.3499999,-0.043095629662275314,-1.0414776802062988,-9.765948295593262,-0.2593994140625,0.946044921875,-0.1068115234375
2.3699999,-0.0454898327589035,-1.039083480834961,-9.763554573059082,-0.274658203125,0.9765625,-0.0457763671875
2.3899999,-0.047884032130241394,-1.039083480834961,-9.763554573059082,-0.1373291015625,0.9613037109375,-0.0457763671875
2.4099999,-0.047884032130241394,-1.039083480834961,-9.763554573059082,-0.1678466796875,0.9765625,-0.1220703125
2.4299999,-0.047884032130241394,-1.036689281463623,-9.761159896850586,-0.1983642578125,1.03759765625,-0.0457763671875
2.4499999,-0.047884032130241394,-1.039083480834961,-9.758766174316406,-0.1678466796875,1.0528564453125,-0.0457763671875
2.4699999,-0.047884032130241394,-1.036689281463623,-9.758766174316406,-0.0762939453125,1.007080078125,-0.0457763671875
2.4899999,-0.047884032130241394,-1.036689281463623,-9.761159896850586,-0.152587890625,1.0223388671875,-0.0152587890625
2.5099999,-0.0454898327589035,-1.0342950820922852,-9.763554573059082,-0.1983642578125,1.007080078125,-0.030517578125
2.5299999,-0.0454898327589035,-1.0342950820922852,-9.765948295593262,-0.1678466796875,1.0223388671875,-0.06103515625
2.5499999,-0.0454898327589035,-1.0319008827209473,-9.768342971801758,-0.1373291015625,1.007080078125,0
2.5699999,-0.0454898327589035,-1.0319008827209473,-9.773131370544434,-0.2288818359375,1.0223388671875,-0.030517578125
2.5899999,-0.0454898327589035,-1.0295066833496094,-9.773131370544434,-0.274658203125,0.9765625,-0.06103515625
2.6099999,-0.0454898327589035,-1.0295066833496094,-9.775525093078613,-0.1373291015625,1.03759765625,0.0152587890625
2.6299999,-0.0454898327589035,-1.0295066833496094,-9.775525093078613,-0.1220703125,1.0223388671875,-0.1068115234375
2.6499999,-0.0454898327589035,-1.0295066833496094,-9.773131370544434,-0.2288818359375,1.0223388671875,-0.1220703125
2.6699999,-0.0454898327589035,-1.0342950820922852,-9.770736694335938,-0.18310546875,0.9613037109375,-0.0762939453125
2.6899999,-0.047884032130241394,-1.036689281463623,-9.768342971801758,-0.0762939453125,0.9765625,-0.0457763671875
2.7099999,-0.047884032130241394,-1.036689281463623,-9.765948295593262,-0.18310546875,1.0223388671875,-0.030517578125
2.7299999,-0.05027823522686958,-1.036689281463623,-9.765948295593262,-0.2593994140625,0.9918212890625,-0.091552734375
2.7499999,-0.047884032130241394,-1.039083480834961,-9.763554573059082,-0.1373291015625,0.9918212890625,-0.0457763671875
2.7699999,-0.0454898327589035,-1.039083480834961,-9.763554573059082,-0.0457763671875,1.007080078125,-0.0152587890625
2.7899999,-0.0454898327589035,-1.039083480834961,-9.763554573059082,-0.244140625,0.9765625,-0.0762939453125
2.8099999,-0.043095629662275314,-1.039083480834961,-9.761159896850586,-0.1373291015625,1.068115234375,-0.06103515625
2.8299999,-0.0454898327589035,-1.036689281463623,-9.761159896850586,-0.0457763671875,1.068115234375,-0.0152587890625
2.8499999,-0.0454898327589035,-1.0342950820922852,-9.763554573059082,-0.152587890625,1.007080078125,-0.0762939453125
2.8699999,-0.047884032130241394,-1.0319008827209473,-9.763554573059082,-0.2593994140625,1.0223388671875,-0.0457763671875
2.8899999,-0.05027823522686958,-1.0319008827209473,-9.763554573059082,-0.18310546875,0.9918212890625,-0.06103515625
2.9099999,-0.05027823522686958,-1.0319008827209473,-9.763554573059082,-0.1220703125,1.007080078125,-0.152587890625
2.9299999,-0.05027823522686958,-1.0342950820922852,-9.763554573059082,-0.213623046875,1.03759765625,-0.0762939453125
2.9499999,-0.047884032130241394,-1.0319008827209473,-9.761159896850586,-0.2288818359375,0.9918212890625,-0.0762939453125
2.9699999,-0.0454898327589035,-1.0342950820922852,-9.763554573059082,-0.1220703125,1.03759765625,-0.0762939453125
2.9899999,-0.043095629662275314,-1.0319008827209473,-9.763554573059082,-0.1220703125,1.068115234375,-0.0762939453125
3.0099999,-0.040701430290937424,-1.0319008827209473,-9.765948295593262,-0.213623046875,1.0528564453125,0
3.0299999,-0.040701430290937424,-1.0295066833496094,-9.765948295593262,-0.152587890625,0.9918212890625,0
3.0499999,-0.040701430290937424,-1.0295066833496094,-9.768342971801758,-0.1373291015625,0.9918212890625,-0.0457763671875
3.0699999,-0.040701430290937424,-1.0271124839782715,-9.768342971801758,-0.1220703125,0.9918212890625,-0.1678466796875
3.0899999,-0.040701430290937424,-1.0271124839782715,-9.768342971801758,-0.2593994140625,1.0223388671875,-0.1220703125
3.1099999,-0.040701430290937424,-1.0295066833496094,-9.768342971801758,-0.1678466796875,1.0223388671875,-0.030517578125
3.1299999,-0.040701430290937424,-1.0342950820922852,-9.768342971801758,-0.1220703125,0.9918212890625,-0.0762939453125
3.1499999,-0.040701430290937424,-1.0342950820922852,-9.768342971801758,-0.2288818359375,1.03759765625,-0.0152587890625
3.1699999,-0.043095629662275314,-1.0319008827209473,-9.765948295593262,-0.213623046875,0.9918212890625,-0.0152587890625
3.1899999,-0.0454898327589035,-1.0319008827209473,-9.765948295593262,-0.152587890625,0.9765625,-0.06103515625
3.2099999,-0.0454898327589035,-1.0295066833496094,-9.765948295593262,-0.1373291015625,0.9918212890625,0
3.2299999,-0.047884032130241394,-1.0295066833496094,-9.765948295593262,-0.0762939453125,1.0986328125,-0.0457763671875
3.2499999,-0.047884032130241394,-1.0295066833496094,-9.768342971801758,-0.1678466796875,1.068115234375,-0.1068115234375
3.2699999,-0.047884032130241394,-1.0271124839782715,-9.765948295593262,-0.244140625,1.03759765625,-0.030517578125
3.2899999,-0.047884032130241394,-1.0295066833496094,-9.765948295593262,-0.213623046875,1.0223388671875,-0.06103515625
3.3099999,-0.0454898327589035,-1.0295066833496094,-9.765948295593262,-0.1373291015625,1.0223388671875,-0.0762939453125
3.3299999000000002,-0.0454898327589035,-1.0271124839782715,-9.765948295593262,-0.18310546875,1.007080078125,-0.091552734375
3.3499999,-0.043095629662275314,-1.0271124839782715,-9.765948295593262,-0.213623046875,1.0223388671875,-0.0762939453125
3.3699999,-0.043095629662275314,-1.0247182846069336,-9.768342971801758,-0.1373291015625,1.03759765625,-0.030517578125
3.3899999,-0.043095629662275314,-1.0247182846069336,-9.770736694335938,-0.1373291015625,1.007080078125,-0.030517578125
3.4099999,-0.040701430290937424,-1.0247182846069336,-9.770736694335938,-0.213623046875,1.0223388671875,-0.1373291015625
3.4299999,-0.040701430290937424,-1.0271124839782715,-9.770736694335938,-0.1983642578125,1.0528564453125,-0.06103515625
3.4499999,-0.040701430290937424,-1.0271124839782715,-9.768342971801758,-0.1068115234375,0.9765625,0.0152587890625
3.4699999,-0.040701430290937424,-1.0247182846069336,-9.768342971801758,-0.1678466796875,1.007080078125,-0.0152587890625
3.4899999,-0.043095629662275314,-1.0247182846069336,-9.765948295593262,-0.18310546875,1.0223388671875,-0.1068115234375
3.5099999,-0.0454898327589035,-1.0247182846069336,-9.765948295593262,-0.1373291015625,1.068115234375,-0.1068115234375
3.5299999,-0.047884032130241394,-1.0247182846069336,-9.765948295593262,-0.152587890625,1.0528564453125,-0.0152587890625
3.5499999,-0.047884032130241394,-1.0247182846069336,-9.763554573059082,-0.1678466796875,0.9307861328125,-0.0152587890625
3.5699999,-0.047884032130241394,-1.0271124839782715,-9.765948295593262,-0.18310546875,0.9918212890625,-0.091552734375
3.5899999,-0.047884032130241394,-1.0271124839782715,-9.768342971801758,-0.18310546875,1.007080078125,-0.030517578125
3.6099999,-0.0454898327589035,-1.0271124839782715,-9.770736694335938,-0.1220703125,0.9307861328125,-0.0152587890625
3.6299999,-0.040701430290937424,-1.0271124839782715,-9.770736694335938,-0.1678466796875,0.9613037109375,-0.0457763671875
3.6499999,-0.038307227194309235,-1.0271124839782715,-9.770736694335938,-0.091552734375,0.9765625,-0.06103515625
3.6699999,-0.038307227194309235,-1.0271124839782715,-9.770736694335938,-0.1983642578125,1.0528564453125,-0.0762939453125
3.6899999,-0.038307227194309235,-1.0247182846069336,-9.770736694335938,-0.152587890625,1.0223388671875,-0.1068115234375
3.7099999,-0.040701430290937424,-1.0271124839782715,-9.770736694335938,-0.1678466796875,1.007080078125,-0.06103515625
3.7299999,-0.043095629662275314,-1.0271124839782715,-9.770736694335938,-0.2288818359375,1.03759765625,-0.030517578125
3.7499999,-0.0454898327589035,-1.0271124839782715,-9.768342971801758,-0.152587890625,1.068115234375,-0.091552734375
3.7699999,-0.047884032130241394,-1.0271124839782715,-9.768342971801758,-0.1678466796875,1.03759765625,-0.06103515625
3.7899999,-0.0454898327589035,-1.0247182846069336,-9.765948295593262,-0.1983642578125,1.0223388671875,-0.091552734375
3.8099999,-0.0454898327589035,-1.0247182846069336,-9.763554573059082,-0.1220703125,0.9613037109375,-0.1220703125
3.8299999000000002,-0.0454898327589035,-1.0223240852355957,-9.763554573059082,-0.18310546875,0.9765625,-0.0457763671875
3.8499999,-0.047884032130241394,-1.0223240852355957,-9.763554573059082,-0.152587890625,0.9918212890625,-0.1220703125
3.8699999,-0.047884032130241394,-1.0223240852355957,-9.761159896850586,-0.152587890625,1.007080078125,-0.06103515625
3.8899999,-0.05027823522686958,-1.0223240852355957,-9.763554573059082,-0.1068115234375,1.0528564453125,-0.0152587890625
3.9099999,-0.05027823522686958,-1.0223240852355957,-9.763554573059082,-0.1678466796875,1.0528564453125,-0.0457763671875
3.9299999,-0.047884032130241394,-1.0223240852355957,-9.765948295593262,-0.1678466796875,1.007080078125,-0.06103515625
3.9499999,-0.047884032130241394,-1.0247182846069336,-9.768342971801758,-0.152587890625,1.007080078125,-0.1068115234375
3.9699999,-0.047884032130241394,-1.0247182846069336,-9.768342971801758,-0.152587890625,1.0223388671875,-0.1220703125
3.9899999,-0.047884032130241394,-1.0247182846069336,-9.770736694335938,-0.213623046875,1.03759765625,-0.091552734375
4.0099999,-0.047884032130241394,-1.0247182846069336,-9.768342971801758,-0.1983642578125,0.9613037109375,-0.1068115234375
4.029999900000001,-0.047884032130241394,-1.0247182846069336,-9.768342971801758,-0.1678466796875,1.0223388671875,-0.0762939453125
4.0499999,-0.0454898327589035,-1.0223240852355957,-9.765948295593262,-0.18310546875,1.068115234375,-0.06103515625
4.069999900000001,-0.043095629662275314,-1.0247182846069336,-9.765948295593262,-0.2288818359375,0.9918212890625,-0.152587890625
4.0899999000000005,-0.043095629662275314,-1.0247182846069336,-9.765948295593262,-0.1373291015625,0.946044921875,-0.030517578125
4.1099999,-0.043095629662275314,-1.0247182846069336,-9.765948295593262,-0.1220703125,1.0528564453125,-0.0762939453125
4.1299999000000005,-0.040701430290937424,-1.0247182846069336,-9.768342971801758,-0.1373291015625,1.0223388671875,-0.0762939453125
4.1499999,-0.040701430290937424,-1.0247182846069336,-9.770736694335938,-0.18310546875,1.0528564453125,-0.030517578125
4.1699999000000005,-0.040701430290937424,-1.0247182846069336,-9.770736694335938,-0.2288818359375,1.007080078125,-0.06103515625
4.1899999,-0.040701430290937424,-1.0247182846069336,-9.773131370544434,-0.213623046875,1.0986328125,-0.091552734375
4.209999900000001,-0.040701430290937424,-1.0247182846069336,-9.770736694335938,-0.1373291015625,0.9918212890625,0
4.2299999,-0.040701430290937424,-1.0247182846069336,-9.770736694335938,-0.18310546875,0.9613037109375,-0.030517578125
4.249999900000001,-0.040701430290937424,-1.0247182846069336,-9.768342971801758,-0.1678466796875,0.9765625,-0.091552734375
4.2699999,-0.040701430290937424,-1.0223240852355957,-9.765948295593262,-0.1220703125,1.007080078125,-0.091552734375
4.289999900000001,-0.043095629662275314,-1.0199298858642578,-9.763554573059082,-0.152587890625,1.03759765625,-0.0457763671875
4.3099999,-0.043095629662275314,-1.015141487121582,-9.763554573059082,-0.1678466796875,0.91552734375,-0.0457763671875
4.329999900000001,-0.0454898327589035,-1.0127472877502441,-9.763554573059082,-0.1220703125,0.9307861328125,-0.030517578125
4.3499999,-0.047884032130241394,-1.0127472877502441,-9.765948295593262,-0.1373291015625,0.9765625,-0.0152587890625
4.369999900000001,-0.047884032130241394,-1.0127472877502441,-9.768342971801758,-0.18310546875,0.9918212890625,-0.06103515625
4.3899999,-0.047884032130241394,-1.0127472877502441,-9.770736694335938,-0.1068115234375,1.068115234375,-0.0762939453125
4.409999900000001,-0.05027823522686958,-1.0127472877502441,-9.770736694335938,-0.1678466796875,1.03759765625,-0.06103515625
4.4299999,-0.05027823522686958,-1.01753568649292,-9.770736694335938,-0.1220703125,1.03759765625,-0.030517578125
4.449999900000001,-0.05267243832349777,-1.015141487121582,-9.770736694335938,-0.1068115234375,1.007080078125,0.0152587890625
4.4699999,-0.05267243832349777,-1.01753568649292,-9.770736694335938,-0.1220703125,0.9765625,0.0152587890625
4.489999900000001,-0.05267243832349777,-1.015141487121582,-9.768342971801758,-0.1983642578125,1.0528564453125,-0.1068115234375
4.5099999,-0.05027823522686958,-1.015141487121582,-9.765948295593262,-0.1983642578125,1.007080078125,-0.0762939453125
4.529999900000001,-0.0454898327589035,-1.0127472877502441,-9.763554573059082,-0.1678466796875,1.007080078125,-0.091552734375
4.5499999,-0.043095629662275314,-1.0103530883789062,-9.765948295593262,-0.1373291015625,1.007080078125,-0.0457763671875
4.569999900000001,-0.040701430290937424,-1.0103530883789062,-9.768342971801758,-0.152587890625,1.007080078125,-0.06103515625
4.5899999000000005,-0.040701430290937424,-1.0103530883789062,-9.770736694335938,-0.18310546875,1.007080078125,-0.1068115234375
4.609999900000001,-0.043095629662275314,-1.0103530883789062,-9.773131370544434,-0.1983642578125,1.068115234375,-0.030517578125
4.6299999000000005,-0.0454898327589035,-1.0127472877502441,-9.773131370544434,-0.1373291015625,1.0528564453125,-0.0457763671875
4.6499999,-0.047884032130241394,-1.015141487121582,-9.773131370544434,-0.18310546875,1.03759765625,-0.091552734375
4.6699999000000005,-0.047884032130241394,-1.01753568649292,-9.773131370544434,-0.1983642578125,1.007080078125,-0.030517578125
4.6899999,-0.05027823522686958,-1.01753568649292,-9.773131370544434,-0.1220703125,1.0528564453125,-0.1068115234375
4.709999900000001,-0.05027823522686958,-1.0199298858642578,-9.773131370544434,-0.1678466796875,1.007080078125,-0.091552734375
4.7299999,-0.05267243832349777,-1.01753568649292,-9.770736694335938,-0.18310546875,0.9765625,-0.1220703125
4.749999900000001,-0.05267243832349777,-1.01753568649292,-9.770736694335938,-0.091552734375,1.03759765625,-0.06103515625
4.7699999,-0.05267243832349777,-1.01753568649292,-9.770736694335938,-0.1068115234375,0.9918212890625,0
4.789999900000001,-0.05267243832349777,-1.01753568649292,-9.770736694335938,-0.1678466796875,1.007080078125,-0.0152587890625
4.8099999,-0.05027823522686958,-1.01753568649292,-9.770736694335938,-0.1373291015625,1.068115234375,-0.1068115234375
4.829999900000001,-0.047884032130241394,-1.01753568649292,-9.768342971801758,-0.1373291015625,0.9613037109375,-0.06103515625
4.8499999,-0.0454898327589035,-1.01753568649292,-9.770736694335938,-0.1220703125,0.9918212890625,-0.0152587890625
4.869999900000001,-0.0454898327589035,-1.01753568649292,-9.770736694335938,-0.091552734375,1.0223388671875,-0.06103515625
4.8899999,-0.0454898327589035,-1.0127472877502441,-9.768342971801758,-0.1373291015625,0.946044921875,-0.0457763671875
4.909999900000001,-0.043095629662275314,-1.0127472877502441,-9.770736694335938,-0.1373291015625,0.9765625,-0.0457763671875
4.9299999,-0.0454898327589035,-1.0103530883789062,-9.770736694335938,-0.030517578125,1.007080078125,-0.030517578125
4.949999900000001,-0.043095629662275314,-1.0103530883789062,-9.770736694335938,-0.091552734375,0.9918212890625,-0.0152587890625
4.9699999,-0.043095629662275314,-1.0103530883789062,-9.770736694335938,-0.1678466796875,0.9918212890625,-0.0152587890625
4.989999900000001,-0.040701430290937424,-1.015141487121582,-9.768342971801758,-0.1983642578125,1.0528564453125,-0.030517578125
5.0099999,-0.038307227194309235,-1.01753568649292,-9.768342971801758,-0.1373291015625,1.068115234375,-0.06103515625
5.029999900000001,-0.038307227194309235,-1.0199298858642578,-9.765948295593262,-0.1983642578125,1.0223388671875,-0.0152587890625
5.0499999,-0.038307227194309235,-1.0199298858642578,-9.768342971801758,-0.18310546875,0.9765625,-0.030517578125
5.069999900000001,-0.040701430290937424,-1.0199298858642578,-9.768342971801758,-0.06103515625,1.0528564453125,-0.030517578125
5.0899999000000005,-0.043095629662275314,-1.0199298858642578,-9.770736694335938,-0.1220703125,1.0223388671875,-0.06103515625
5.109999900000001,-0.047884032130241394,-1.0199298858642578,-9.770736694335938,-0.213623046875,1.0833740234375,-0.030517578125
5.1299999000000005,-0.05027823522686958,-1.01753568649292,-9.770736694335938,-0.18310546875,1.0986328125,-0.06103515625
5.1499999,-0.05027823522686958,-1.01753568649292,-9.770736694335938,-0.152587890625,1.068115234375,-0.0762939453125
5.1699999000000005,-0.05027823522686958,-1.01753568649292,-9.770736694335938,-0.1373291015625,0.9918212890625,0
5.1899999,-0.047884032130241394,-1.01753568649292,-9.770736694335938,-0.152587890625,1.068115234375,0.0152587890625
5.209999900000001,-0.047884032130241394,-1.015141487121582,-9.768342971801758,-0.152587890625,1.0528564453125,-0.06103515625
5.2299999,-0.0454898327589035,-1.0127472877502441,-9.768342971801758,-0.18310546875,1.03759765625,-0.091552734375
5.249999900000001,-0.0454898327589035,-1.0127472877502441,-9.768342971801758,-0.152587890625,1.007080078125,-0.0762939453125
5.2699999,-0.0454898327589035,-1.0103530883789062,-9.770736694335938,-0.1068115234375,0.9765625,-0.0457763671875
5.289999900000001,-0.0454898327589035,-1.0127472877502441,-9.770736694335938,-0.1220703125,0.9613037109375,0.0152587890625
5.3099999,-0.043095629662275314,-1.015141487121582,-9.773131370544434,-0.1373291015625,0.9765625,-0.0457763671875
5.329999900000001,-0.040701430290937424,-1.01753568649292,-9.773131370544434,-0.18310546875,0.9765625,-0.1220703125
5.3499999,-0.038307227194309235,-1.01753568649292,-9.770736694335938,-0.152587890625,1.03759765625,-0.0457763671875
5.369999900000001,-0.040701430290937424,-1.01753568649292,-9.773131370544434,-0.1678466796875,0.9765625,-0.030517578125
5.3899999,-0.043095629662275314,-1.0199298858642578,-9.775525093078613,-0.152587890625,0.9765625,-0.1678466796875
5.409999900000001,-0.047884032130241394,-1.01753568649292,-9.775525093078613,-0.1983642578125,1.0528564453125,-0.1373291015625
5.4299999,-0.05027823522686958,-1.01753568649292,-9.77791976928711,-0.152587890625,0.9765625,-0.06103515625
5.449999900000001,-0.05267243832349777,-1.015141487121582,-9.775525093078613,-0.1068115234375,0.946044921875,-0.0762939453125
5.4699999,-0.05027823522686958,-1.015141487121582,-9.773131370544434,-0.1220703125,1.068115234375,-0.06103515625
5.489999900000001,-0.047884032130241394,-1.01753568649292,-9.773131370544434,-0.1678466796875,1.0528564453125,-0.0762939453125
5.5099999,-0.043095629662275314,-1.015141487121582,-9.770736694335938,-0.1373291015625,1.0223388671875,-0.030517578125
5.529999900000001,-0.040701430290937424,-1.01753568649292,-9.770736694335938,-0.1068115234375,1.068115234375,-0.06103515625
5.5499999,-0.038307227194309235,-1.015141487121582,-9.768342971801758,-0.1373291015625,0.9765625,-0.091552734375
5.569999900000001,-0.043095629662275314,-1.0127472877502441,-9.765948295593262,-0.2288818359375,1.007080078125,-0.091552734375
5.5899999000000005,-0.0454898327589035,-1.0103530883789062,-9.765948295593262,-0.1220703125,1.007080078125,-0.06103515625
5.609999900000001,-0.047884032130241394,-1.0079588890075684,-9.763554573059082,-0.1678466796875,1.0223388671875,-0.0457763671875
5.6299999000000005,-0.047884032130241394,-1.0079588890075684,-9.763554573059082,-0.18310546875,1.0528564453125,-0.091552734375
5.6499999,-0.047884032130241394,-1.0079588890075684,-9.763554573059082,-0.18310546875,1.0528564453125,-0.0457763671875
5.6699999000000005,-0.047884032130241394,-1.0127472877502441,-9.763554573059082,-0.152587890625,0.9918212890625,-0.0762939453125
5.6899999,-0.047884032130241394,-1.0127472877502441,-9.763554573059082,-0.18310546875,1.007080078125,-0.0152587890625
5.709999900000001,-0.047884032130241394,-1.015141487121582,-9.763554573059082,-0.152587890625,0.9613037109375,-0.030517578125
5.7299999,-0.047884032130241394,-1.015141487121582,-9.763554573059082,-0.152587890625,0.9307861328125,0.030517578125
5.749999900000001,-0.047884032130241394,-1.015141487121582,-9.763554573059082,-0.1220703125,1.0528564453125,-0.0152587890625
5.7699999,-0.047884032130241394,-1.0127472877502441,-9.765948295593262,-0.1220703125,1.0528564453125,-0.1068115234375
5.789999900000001,-0.0454898327589035,-1.0127472877502441,-9.768342971801758,-0.1220703125,1.0223388671875,-0.0762939453125
5.8099999,-0.043095629662275314,-1.0127472877502441,-9.770736694335938,-0.244140625,1.0528564453125,-0.030517578125
5.829999900000001,-0.043095629662275314,-1.0127472877502441,-9.770736694335938,-0.1983642578125,1.0223388671875,0.0152587890625
5.8499999,-0.040701430290937424,-1.015141487121582,-9.770736694335938,-0.1678466796875,0.9918212890625,-0.030517578125
5.869999900000001,-0.040701430290937424,-1.0127472877502441,-9.765948295593262,-0.1373291015625,0.9918212890625,-0.0457763671875
5.8899999,-0.040701430290937424,-1.0127472877502441,-9.765948295593262,-0.1068115234375,0.946044921875,-0.030517578125
5.909999900000001,-0.043095629662275314,-1.0127472877502441,-9.763554573059082,-0.1220703125,1.03759765625,-0.030517578125
5.9299999,-0.0454898327589035,-1.0127472877502441,-9.763554573059082,-0.1068115234375,0.946044921875,-0.0457763671875
5.949999900000001,-0.0454898327589035,-1.0127472877502441,-9.765948295593262,-0.0762939453125,0.9765625,-0.091552734375
5.9699999,-0.0454898327589035,-1.0103530883789062,-9.763554573059082,-0.152587890625,1.0528564453125,0
5.989999900000001,-0.043095629662275314,-1.0103530883789062,-9.763554573059082,-0.1678466796875,1.068115234375,-0.06103515625
6.0099999,-0.043095629662275314,-1.0103530883789062,-9.763554573059082,-0.1678466796875,1.0528564453125,-0.06103515625
6.029999900000001,-0.043095629662275314,-1.0103530883789062,-9.763554573059082,-0.1983642578125,1.0528564453125,-0.0457763671875
6.0499999,-0.043095629662275314,-1.0103530883789062,-9.765948295593262,-0.1678466796875,0.946044921875,-0.0762939453125
6.069999900000001,-0.043095629662275314,-1.0079588890075684,-9.768342971801758,-0.1373291015625,0.9613037109375,-0.06103515625
6.0899999000000005,-0.043095629662275314,-1.0079588890075684,-9.768342971801758,-0.1373291015625,1.007080078125,-0.030517578125
6.109999900000001,-0.0454898327589035,-1.0055646896362305,-9.770736694335938,-0.18310546875,1.0528564453125,-0.030517578125
6.1299999000000005,-0.0454898327589035,-1.0055646896362305,-9.773131370544434,-0.091552734375,1.0528564453125,-0.0457763671875
6.149999900000001,-0.047884032130241394,-1.0031704902648926,-9.775525093078613,-0.1068115234375,0.9918212890625,-0.0152587890625
6.1699999000000005,-0.05027823522686958,-1.0031704902648926,-9.77791976928711,-0.18310546875,0.9765625,-0.0152587890625
6.1899999,-0.05027823522686958,-1.0031704902648926,-9.775525093078613,-0.18310546875,0.9765625,-0.0762939453125
6.209999900000001,-0.05027823522686958,-1.0055646896362305,-9.775525093078613,-0.091552734375,0.9765625,-0.0762939453125
6.2299999,-0.05027823522686958,-1.0079588890075684,-9.775525093078613,-0.1068115234375,1.03759765625,-0.0152587890625
6.249999900000001,-0.05027823522686958,-1.0079588890075684,-9.773131370544434,-0.1220703125,1.0528564453125,0.0152587890625
6.2699999,-0.05027823522686958,-1.0079588890075684,-9.773131370544434,-0.1220703125,1.03759765625,-0.06103515625
6.289999900000001,-0.05027823522686958,-1.0055646896362305,-9.770736694335938,-0.1220703125,1.0528564453125,-0.1068115234375
6.3099999,-0.05267243832349777,-1.0055646896362305,-9.768342971801758,-0.152587890625,0.9765625,-0.091552734375
6.329999900000001,-0.05027823522686958,-1.0031704902648926,-9.768342971801758,-0.152587890625,1.03759765625,-0.091552734375
6.3499999,-0.05027823522686958,-1.0031704902648926,-9.763554573059082,-0.1220703125,1.0833740234375,-0.06103515625
6.369999900000001,-0.047884032130241394,-1.0031704902648926,-9.765948295593262,-0.1373291015625,0.9613037109375,-0.0762939453125
6.3899999,-0.047884032130241394,-1.0055646896362305,-9.765948295593262,-0.1068115234375,0.9918212890625,-0.0762939453125
6.409999900000001,-0.047884032130241394,-1.0055646896362305,-9.765948295593262,-0.1220703125,1.03759765625,-0.0457763671875
6.4299999,-0.0454898327589035,-1.0055646896362305,-9.765948295593262,-0.1220703125,0.9613037109375,-0.0152587890625
6.449999900000001,-0.0454898327589035,-1.0031704902648926,-9.763554573059082,-0.1068115234375,1.007080078125,-0.0457763671875
6.4699999,-0.043095629662275314,-1.0031704902648926,-9.763554573059082,-0.152587890625,1.007080078125,-0.06103515625
6.489999900000001,-0.0454898327589035,-1.0031704902648926,-9.763554573059082,-0.152587890625,0.9613037109375,-0.0762939453125
6.5099999,-0.047884032130241394,-1.0031704902648926,-9.763554573059082,-0.1678466796875,1.068115234375,-0.091552734375
6.529999900000001,-0.047884032130241394,-1.0031704902648926,-9.765948295593262,-0.18310546875,1.1444091796875,-0.1068115234375
6.5499999,-0.047884032130241394,-1.0031704902648926,-9.765948295593262,-0.18310546875,1.03759765625,-0.030517578125
6.569999900000001,-0.047884032130241394,-1.0055646896362305,-9.768342971801758,-0.18310546875,1.1138916015625,-0.06103515625
6.5899999000000005,-0.05027823522686958,-1.0079588890075684,-9.768342971801758,-0.1678466796875,1.068115234375,-0.0457763671875
6.609999900000001,-0.05027823522686958,-1.0055646896362305,-9.765948295593262,-0.18310546875,1.007080078125,-0.0457763671875
6.6299999000000005,-0.047884032130241394,-1.0055646896362305,-9.765948295593262,-0.06103515625,0.9765625,-0.030517578125
6.649999900000001,-0.047884032130241394,-1.0055646896362305,-9.765948295593262,-0.091552734375,0.9918212890625,-0.0457763671875
6.6699999000000005,-0.0454898327589035,-1.0055646896362305,-9.763554573059082,-0.1373291015625,1.007080078125,-0.06103515625
6.6899999,-0.043095629662275314,-1.0055646896362305,-9.763554573059082,-0.152587890625,1.0223388671875,-0.1068115234375
6.709999900000001,-0.043095629662275314,-1.0055646896362305,-9.765948295593262,-0.1220703125,0.9918212890625,-0.06103515625
6.7299999,-0.0454898327589035,-1.0031704902648926,-9.768342971801758,-0.1068115234375,0.9613037109375,-0.0152587890625
6.749999900000001,-0.047884032130241394,-1.0031704902648926,-9.773131370544434,-0.18310546875,1.03759765625,-0.030517578125
6.7699999,-0.05027823522686958,-1.0007762908935547,-9.775525093078613,-0.1983642578125,1.0986328125,-0.06103515625
6.789999900000001,-0.05267243832349777,-1.0007762908935547,-9.775525093078613,-0.1678466796875,1.0223388671875,-0.1220703125
6.8099999,-0.05506663769483566,-1.0007762908935547,-9.773131370544434,-0.18310546875,0.9918212890625,-0.0152587890625
6.829999900000001,-0.05506663769483566,-1.0007762908935547,-9.768342971801758,-0.18310546875,1.007080078125,-0.0152587890625
6.8499999,-0.05506663769483566,-1.0007762908935547,-9.765948295593262,-0.1220703125,1.0528564453125,-0.0762939453125
6.869999900000001,-0.05267243832349777,-1.0007762908935547,-9.765948295593262,-0.1220703125,1.068115234375,-0.0152587890625
6.8899999,-0.05027823522686958,-1.0007762908935547,-9.765948295593262,-0.213623046875,0.9918212890625,-0.0457763671875
6.909999900000001,-0.047884032130241394,-1.0031704902648926,-9.765948295593262,-0.1220703125,0.9918212890625,-0.0762939453125
6.9299999,-0.047884032130241394,-1.0079588890075684,-9.768342971801758,-0.1220703125,1.0528564453125,-0.091552734375
6.949999900000001,-0.05027823522686958,-1.0103530883789062,-9.768342971801758,-0.1678466796875,1.03759765625,-0.06103515625
6.9699999,-0.05027823522686958,-1.0103530883789062,-9.773131370544434,-0.2288818359375,1.0223388671875,-0.030517578125
6.989999900000001,-0.05027823522686958,-1.0103530883789062,-9.775525093078613,-0.1983642578125,1.0833740234375,-0.0762939453125
7.0099999,-0.05027823522686958,-1.0103530883789062,-9.775525093078613,-0.1678466796875,1.0833740234375,-0.0152587890625
7.029999900000001,-0.05267243832349777,-1.0103530883789062,-9.773131370544434,-0.152587890625,1.068115234375,0
7.0499999,-0.05506663769483566,-1.0079588890075684,-9.770736694335938,-0.18310546875,1.03759765625,-0.030517578125
7.069999900000001,-0.05506663769483566,-1.0079588890075684,-9.765948295593262,-0.1983642578125,1.0528564453125,-0.0457763671875
7.0899999000000005,-0.05267243832349777,-1.0055646896362305,-9.763554573059082,-0.1678466796875,0.946044921875,-0.030517578125
7.109999900000001,-0.05267243832349777,-1.0031704902648926,-9.763554573059082,-0.213623046875,0.946044921875,-0.030517578125
7.1299999000000005,-0.05027823522686958,-1.0031704902648926,-9.763554573059082,-0.1220703125,0.9765625,-0.030517578125
7.149999900000001,-0.047884032130241394,-1.0007762908935547,-9.763554573059082,-0.06103515625,1.0528564453125,-0.0457763671875
7.1699999000000005,-0.043095629662275314,-1.0007762908935547,-9.765948295593262,-0.1068115234375,1.0833740234375,-0.0762939453125
7.1899999,-0.040701430290937424,-0.9983820915222168,-9.765948295593262,-0.18310546875,1.03759765625,-0.06103515625
7.209999900000001,-0.038307227194309235,-0.9983820915222168,-9.768342971801758,-0.1220703125,1.0833740234375,-0.030517578125
7.2299999,-0.038307227194309235,-1.0007762908935547,-9.768342971801758,-0.1220703125,0.946044921875,-0.06103515625
7.249999900000001,-0.038307227194309235,-1.0031704902648926,-9.770736694335938,-0.18310546875,1.03759765625,-0.0762939453125
7.2699999,-0.043095629662275314,-1.0031704902648926,-9.770736694335938,-0.152587890625,0.9918212890625,-0.06103515625
7.289999900000001,-0.0454898327589035,-1.0031704902648926,-9.773131370544434,-0.1678466796875,0.9307861328125,-0.06103515625
7.3099999,-0.047884032130241394,-1.0055646896362305,-9.775525093078613,-0.1373291015625,1.007080078125,-0.030517578125
7.329999900000001,-0.047884032130241394,-1.0031704902648926,-9.775525093078613,-0.1068115234375,1.068115234375,-0.06103515625
7.3499999,-0.047884032130241394,-1.0055646896362305,-9.775525093078613,-0.091552734375,1.007080078125,-0.030517578125
7.369999900000001,-0.0454898327589035,-1.0031704902648926,-9.773131370544434,-0.1678466796875,1.0223388671875,-0.0762939453125
7.3899999,-0.0454898327589035,-1.0031704902648926,-9.770736694335938,-0.1373291015625,1.03759765625,-0.0762939453125
7.409999900000001,-0.043095629662275314,-1.0031704902648926,-9.768342971801758,-0.1983642578125,1.03759765625,-0.030517578125
7.4299999,-0.043095629662275314,-1.0007762908935547,-9.765948295593262,-0.152587890625,1.0223388671875,-0.0457763671875
7.449999900000001,-0.043095629662275314,-1.0031704902648926,-9.765948295593262,-0.152587890625,1.03759765625,-0.1068115234375
7.4699999,-0.043095629662275314,-1.0055646896362305,-9.765948295593262,-0.152587890625,1.007080078125,-0.0762939453125
7.489999900000001,-0.0454898327589035,-1.0055646896362305,-9.768342971801758,-0.1068115234375,1.007080078125,-0.0457763671875
7.5099999,-0.047884032130241394,-1.0079588890075684,-9.770736694335938,-0.030517578125,1.0223388671875,-0.030517578125
7.529999900000001,-0.05027823522686958,-1.0079588890075684,-9.773131370544434,-0.0762939453125,1.03759765625,0
7.5499999,-0.05027823522686958,-1.0055646896362305,-9.773131370544434,-0.18310546875,1.0223388671875,-0.06103515625
7.569999900000001,-0.047884032130241394,-1.0031704902648926,-9.773131370544434,-0.152587890625,1.0223388671875,-0.0457763671875
7.5899999000000005,-0.0454898327589035,-1.0007762908935547,-9.773131370544434,-0.152587890625,0.9613037109375,-0.06103515625
7.609999900000001,-0.043095629662275314,-1.0007762908935547,-9.770736694335938,-0.152587890625,1.007080078125,-0.06103515625
7.6299999000000005,-0.043095629662275314,-1.0007762908935547,-9.770736694335938,-0.1220703125,1.0833740234375,-0.06103515625
7.649999900000001,-0.043095629662275314,-1.0007762908935547,-9.768342971801758,-0.1220703125,1.0833740234375,-0.0152587890625
7.6699999000000005,-0.043095629662275314,-1.0007762908935547,-9.770736694335938,-0.1068115234375,1.0528564453125,-0.091552734375
7.6899999,-0.043095629662275314,-1.0007762908935547,-9.773131370544434,-0.1678466796875,1.03759765625,-0.0762939453125
7.709999900000001,-0.043095629662275314,-0.9983820915222168,-9.775525093078613,-0.2593994140625,1.0528564453125,-0.0457763671875
7.7299999,-0.0454898327589035,-0.9983820915222168,-9.775525093078613,-0.1678466796875,1.03759765625,-0.091552734375
7.749999900000001,-0.0454898327589035,-0.9983820915222168,-9.775525093078613,-0.1068115234375,1.03759765625,-0.0762939453125
7.7699999,-0.047884032130241394,-0.9983820915222168,-9.773131370544434,-0.091552734375,1.03759765625,-0.0762939453125
7.789999900000001,-0.0454898327589035,-1.0007762908935547,-9.768342971801758,-0.1678466796875,0.9307861328125,-0.06103515625
7.8099999,-0.0454898327589035,-1.0007762908935547,-9.768342971801758,-0.091552734375,0.9918212890625,-0.0152587890625
7.829999900000001,-0.0454898327589035,-1.0007762908935547,-9.768342971801758,-0.0762939453125,1.0833740234375,-0.0457763671875
7.8499999,-0.0454898327589035,-1.0007762908935547,-9.768342971801758,-0.1220703125,1.1138916015625,-0.06103515625
7.869999900000001,-0.0454898327589035,-0.9983820915222168,-9.770736694335938,-0.1373291015625,1.007080078125,-0.030517578125
7.8899999,-0.047884032130241394,-0.9983820915222168,-9.773131370544434,-0.1220703125,1.03759765625,-0.0457763671875
7.909999900000001,-0.047884032130241394,-0.9983820915222168,-9.775525093078613,-0.1068115234375,1.0223388671875,-0.06103515625
7.9299999,-0.047884032130241394,-0.9983820915222168,-9.775525093078613,-0.1220703125,1.007080078125,-0.030517578125
7.949999900000001,-0.047884032130241394,-0.9959878921508789,-9.775525093078613,-0.1220703125,0.9613037109375,-0.06103515625
7.9699999,-0.047884032130241394,-0.9959878921508789,-9.775525093078613,-0.152587890625,1.068115234375,-0.091552734375
7.989999900000001,-0.0454898327589035,-0.9959878921508789,-9.775525093078613,-0.1220703125,1.0833740234375,-0.1220703125
8.0099999,-0.043095629662275314,-0.9959878921508789,-9.773131370544434,-0.091552734375,1.0986328125,-0.091552734375
8.0299999,-0.040701430290937424,-0.9983820915222168,-9.773131370544434,-0.1068115234375,1.0528564453125,-0.030517578125
8.049999900000001,-0.038307227194309235,-1.0007762908935547,-9.770736694335938,-0.091552734375,1.03759765625,-0.030517578125
8.069999900000001,-0.038307227194309235,-1.0031704902648926,-9.768342971801758,-0.152587890625,1.0833740234375,-0.030517578125
8.0899999,-0.040701430290937424,-1.0031704902648926,-9.765948295593262,-0.1220703125,1.03759765625,-0.030517578125
8.1099999,-0.0454898327589035,-1.0031704902648926,-9.765948295593262,-0.1068115234375,1.0528564453125,0.0152587890625
8.129999900000001,-0.047884032130241394,-1.0007762908935547,-9.763554573059082,-0.1068115234375,1.068115234375,-0.0762939453125
8.149999900000001,-0.047884032130241394,-1.0007762908935547,-9.765948295593262,-0.152587890625,1.0528564453125,-0.1068115234375
8.1699999,-0.05027823522686958,-0.9983820915222168,-9.763554573059082,-0.1220703125,0.9613037109375,-0.0457763671875
8.1899999,-0.05027823522686958,-0.9983820915222168,-9.765948295593262,-0.091552734375,0.9765625,-0.06103515625
8.2099999,-0.05027823522686958,-0.9983820915222168,-9.768342971801758,-0.0762939453125,0.9765625,-0.0457763671875
8.229999900000001,-0.047884032130241394,-0.9983820915222168,-9.768342971801758,-0.091552734375,1.0223388671875,-0.030517578125
8.2499999,-0.0454898327589035,-1.0007762908935547,-9.770736694335938,-0.1220703125,1.0528564453125,-0.030517578125
8.2699999,-0.0454898327589035,-1.0007762908935547,-9.770736694335938,-0.18310546875,1.1444091796875,-0.091552734375
8.2899999,-0.043095629662275314,-1.0007762908935547,-9.770736694335938,-0.1373291015625,1.03759765625,-0.0457763671875
8.309999900000001,-0.043095629662275314,-0.9959878921508789,-9.770736694335938,-0.1373291015625,0.9918212890625,0
8.3299999,-0.043095629662275314,-0.9959878921508789,-9.770736694335938,-0.1373291015625,0.9918212890625,-0.0762939453125
8.3499999,-0.043095629662275314,-0.993593692779541,-9.770736694335938,-0.1068115234375,1.0528564453125,-0.091552734375
8.3699999,-0.043095629662275314,-0.9959878921508789,-9.768342971801758,-0.152587890625,1.03759765625,-0.0457763671875
8.389999900000001,-0.043095629662275314,-0.9983820915222168,-9.768342971801758,-0.2288818359375,1.0223388671875,-0.0457763671875
8.4099999,-0.043095629662275314,-1.0007762908935547,-9.768342971801758,-0.091552734375,1.0223388671875,-0.06103515625
8.4299999,-0.043095629662275314,-1.0007762908935547,-9.768342971801758,-0.030517578125,1.0528564453125,-0.06103515625
8.4499999,-0.0454898327589035,-1.0007762908935547,-9.768342971801758,-0.1373291015625,1.007080078125,-0.0457763671875
8.469999900000001,-0.047884032130241394,-0.9983820915222168,-9.770736694335938,-0.1983642578125,1.0223388671875,-0.0152587890625
8.4899999,-0.047884032130241394,-0.9983820915222168,-9.773131370544434,-0.1678466796875,1.03759765625,-0.0152587890625
8.5099999,-0.0454898327589035,-0.9959878921508789,-9.773131370544434,-0.1983642578125,1.0528564453125,-0.091552734375
8.5299999,-0.040701430290937424,-0.9983820915222168,-9.775525093078613,-0.1678466796875,1.007080078125,-0.0762939453125
8.549999900000001,-0.038307227194309235,-1.0007762908935547,-9.775525093078613,-0.1373291015625,1.0528564453125,-0.06103515625
8.569999900000001,-0.038307227194309235,-1.0007762908935547,-9.770736694335938,-0.152587890625,1.007080078125,-0.0457763671875
8.5899999,-0.038307227194309235,-1.0007762908935547,-9.765948295593262,-0.1373291015625,0.9918212890625,-0.0762939453125
8.6099999,-0.038307227194309235,-0.9983820915222168,-9.761159896850586,-0.152587890625,1.007080078125,-0.091552734375
8.629999900000001,-0.040701430290937424,-0.9959878921508789,-9.761159896850586,-0.18310546875,1.03759765625,-0.0152587890625
8.649999900000001,-0.040701430290937424,-0.9959878921508789,-9.761159896850586,-0.1373291015625,0.9918212890625,0.0152587890625
8.6699999,-0.040701430290937424,-0.993593692779541,-9.765948295593262,-0.1068115234375,1.007080078125,0.0457763671875
8.6899999,-0.043095629662275314,-0.9911994934082031,-9.770736694335938,-0.1068115234375,1.068115234375,0.0457763671875
8.709999900000001,-0.043095629662275314,-0.9911994934082031,-9.775525093078613,-0.091552734375,1.0528564453125,0
8.729999900000001,-0.047884032130241394,-0.9911994934082031,-9.775525093078613,-0.18310546875,1.03759765625,-0.06103515625
8.7499999,-0.047884032130241394,-0.9911994934082031,-9.775525093078613,-0.18310546875,1.0528564453125,-0.030517578125
8.7699999,-0.047884032130241394,-0.9911994934082031,-9.775525093078613,-0.1220703125,1.0986328125,-0.06103515625
8.7899999,-0.05027823522686958,-0.9888052940368652,-9.773131370544434,-0.0762939453125,1.007080078125,-0.0762939453125
8.809999900000001,-0.047884032130241394,-0.9888052940368652,-9.773131370544434,-0.152587890625,0.9918212890625,-0.091552734375
8.8299999,-0.05027823522686958,-0.9888052940368652,-9.770736694335938,-0.152587890625,1.0528564453125,-0.0457763671875
8.8499999,-0.047884032130241394,-0.9911994934082031,-9.770736694335938,-0.1068115234375,1.0833740234375,-0.030517578125
8.8699999,-0.047884032130241394,-0.9911994934082031,-9.770736694335938,-0.0762939453125,1.03759765625,0
8.889999900000001,-0.043095629662275314,-0.993593692779541,-9.773131370544434,-0.152587890625,1.03759765625,-0.1068115234375
8.9099999,-0.040701430290937424,-0.9959878921508789,-9.775525093078613,-0.1678466796875,1.0528564453125,-0.06103515625
8.9299999,-0.040701430290937424,-0.9959878921508789,-9.775525093078613,-0.06103515625,0.946044921875,-0.030517578125
8.9499999,-0.040701430290937424,-0.9959878921508789,-9.773131370544434,-0.1220703125,1.03759765625,-0.091552734375
8.969999900000001,-0.043095629662275314,-0.993593692779541,-9.770736694335938,-0.152587890625,1.0223388671875,-0.1068115234375
8.9899999,-0.043095629662275314,-0.993593692779541,-9.768342971801758,-0.1220703125,1.03759765625,-0.1220703125
9.0099999,-0.0454898327589035,-0.9911994934082031,-9.765948295593262,-0.1373291015625,0.9765625,-0.0457763671875
9.0299999,-0.0454898327589035,-0.9911994934082031,-9.763554573059082,-0.1373291015625,0.9918212890625,-0.0152587890625
9.049999900000001,-0.047884032130241394,-0.993593692779541,-9.763554573059082,-0.1068115234375,1.0833740234375,0
9.069999900000001,-0.047884032130241394,-0.993593692779541,-9.761159896850586,-0.1983642578125,1.007080078125,-0.030517578125
9.0899999,-0.0454898327589035,-0.993593692779541,-9.763554573059082,-0.152587890625,0.9613037109375,-0.030517578125
9.1099999,-0.043095629662275314,-0.993593692779541,-9.765948295593262,-0.1373291015625,1.03759765625,-0.091552734375
9.129999900000001,-0.040701430290937424,-0.993593692779541,-9.768342971801758,-0.1678466796875,1.0223388671875,-0.06103515625
9.149999900000001,-0.038307227194309235,-0.9911994934082031,-9.773131370544434,-0.0762939453125,1.0223388671875,-0.06103515625
9.1699999,-0.035913024097681046,-0.9911994934082031,-9.773131370544434,-0.1068115234375,0.9613037109375,-0.0762939453125
9.1899999,-0.035913024097681046,-0.9911994934082031,-9.770736694335938,-0.1983642578125,1.0528564453125,0.0152587890625
9.209999900000001,-0.038307227194309235,-0.9888052940368652,-9.768342971801758,-0.091552734375,1.007080078125,-0.0457763671875
9.229999900000001,-0.038307227194309235,-0.9888052940368652,-9.765948295593262,-0.0762939453125,0.9765625,0.0152587890625
9.2499999,-0.043095629662275314,-0.9911994934082031,-9.763554573059082,-0.18310546875,1.0528564453125,-0.06103515625
9.2699999,-0.043095629662275314,-0.993593692779541,-9.763554573059082,-0.18310546875,1.03759765625,-0.0457763671875
9.2899999,-0.047884032130241394,-0.9959878921508789,-9.763554573059082,-0.1220703125,1.0223388671875,-0.030517578125
9.309999900000001,-0.047884032130241394,-0.9983820915222168,-9.765948295593262,-0.152587890625,1.0223388671875,-0.0457763671875
9.3299999,-0.047884032130241394,-0.9959878921508789,-9.765948295593262,-0.18310546875,1.0223388671875,-0.091552734375
9.3499999,-0.0454898327589035,-0.9959878921508789,-9.768342971801758,-0.1220703125,1.0528564453125,-0.0457763671875
9.3699999,-0.043095629662275314,-0.993593692779541,-9.768342971801758,-0.0762939453125,1.0223388671875,-0.030517578125
9.389999900000001,-0.043095629662275314,-0.9888052940368652,-9.768342971801758,-0.1373291015625,1.068115234375,-0.1068115234375
9.4099999,-0.0454898327589035,-0.9888052940368652,-9.768342971801758,-0.1983642578125,1.1138916015625,-0.030517578125
9.4299999,-0.047884032130241394,-0.9888052940368652,-9.768342971801758,-0.1220703125,1.0986328125,-0.030517578125
9.4499999,-0.05027823522686958,-0.9888052940368652,-9.768342971801758,-0.1220703125,1.0223388671875,-0.030517578125
9.469999900000001,-0.05027823522686958,-0.9911994934082031,-9.765948295593262,-0.18310546875,1.007080078125,-0.030517578125
9.4899999,-0.05267243832349777,-0.993593692779541,-9.763554573059082,-0.152587890625,1.0223388671875,-0.0457763671875
9.5099999,-0.05506663769483566,-0.9959878921508789,-9.763554573059082,-0.1220703125,1.068115234375,-0.0762939453125
9.5299999,-0.05746084079146385,-0.9959878921508789,-9.763554573059082,-0.1220703125,1.007080078125,-0.0457763671875
9.549999900000001,-0.05506663769483566,-0.993593692779541,-9.765948295593262,-0.1068115234375,1.03759765625,-0.0152587890625
9.569999900000001,-0.05506663769483566,-0.9911994934082031,-9.765948295593262,-0.091552734375,1.1138916015625,-0.0762939453125
9.5899999,-0.05027823522686958,-0.9911994934082031,-9.768342971801758,-0.1220703125,0.9765625,-0.0762939453125
9.6099999,-0.0454898327589035,-0.9888052940368652,-9.770736694335938,-0.1373291015625,0.9918212890625,-0.0152587890625
9.629999900000001,-0.040701430290937424,-0.9911994934082031,-9.773131370544434,-0.213623046875,1.0528564453125,-0.0762939453125
9.649999900000001,-0.040701430290937424,-0.9911994934082031,-9.77791976928711,-0.18310546875,1.0223388671875,-0.0762939453125
9.6699999,-0.038307227194309235,-0.9911994934082031,-9.77791976928711,-0.1220703125,1.007080078125,0.0152587890625
9.6899999,-0.043095629662275314,-0.9911994934082031,-9.77791976928711,-0.1220703125,1.03759765625,-0.0457763671875
9.709999900000001,-0.0454898327589035,-0.9911994934082031,-9.775525093078613,-0.1678466796875,1.0528564453125,-0.0762939453125
9.729999900000001,-0.05027823522686958,-0.9911994934082031,-9.773131370544434,-0.18310546875,1.007080078125,-0.030517578125
9.7499999,-0.05267243832349777,-0.9911994934082031,-9.770736694335938,-0.1068115234375,1.0528564453125,-0.091552734375
9.7699999,-0.05267243832349777,-0.9911994934082031,-9.770736694335938,-0.0762939453125,1.007080078125,-0.0762939453125
9.7899999,-0.05027823522686958,-0.9911994934082031,-9.770736694335938,-0.1373291015625,1.007080078125,-0.030517578125
9.809999900000001,-0.047884032130241394,-0.9911994934082031,-9.773131370544434,-0.1068115234375,0.9918212890625,-0.06103515625
9.8299999,-0.0454898327589035,-0.9911994934082031,-9.773131370544434,-0.1678466796875,1.0528564453125,-0.0762939453125
9.8499999,-0.0454898327589035,-0.993593692779541,-9.775525093078613,-0.2288818359375,1.068115234375,-0.030517578125
9.8699999,-0.0454898327589035,-0.9959878921508789,-9.773131370544434,-0.18310546875,1.0223388671875,-0.06103515625
9.889999900000001,-0.043095629662275314,-0.9959878921508789,-9.773131370544434,-0.1220703125,0.9765625,-0.091552734375
9.9099999,-0.043095629662275314,-0.9983820915222168,-9.770736694335938,-0.1373291015625,0.9765625,-0.030517578125
9.9299999,-0.043095629662275314,-0.9983820915222168,-9.770736694335938,-0.1983642578125,1.007080078125,0
9.9499999,-0.0454898327589035,-1.0007762908935547,-9.770736694335938,-0.1678466796875,1.068115234375,-0.030517578125
9.969999900000001,-0.0454898327589035,-0.9983820915222168,-9.773131370544434,-0.1068115234375,1.0833740234375,-0.0457763671875
9.9899999,-0.0454898327589035,-0.9983820915222168,-9.773131370544434,-0.0762939453125,1.0986328125,-0.152587890625
10.0099999,-0.0454898327589035,-0.993593692779541,-9.770736694335938,-0.1373291015625,1.0223388671875,-0.1068115234375
10.0299999,-0.043095629662275314,-0.993593692779541,-9.770736694335938,-0.152587890625,0.9765625,-0.06103515625
10.049999900000001,-0.040701430290937424,-0.9911994934082031,-9.768342971801758,-0.1068115234375,1.0223388671875,-0.0762939453125
10.069999900000001,-0.040701430290937424,-0.9888052940368652,-9.770736694335938,-0.1373291015625,1.03759765625,-0.0762939453125
10.0899999,-0.040701430290937424,-0.9888052940368652,-9.773131370544434,-0.152587890625,1.068115234375,-0.030517578125
10.1099999,-0.040701430290937424,-0.9840168952941895,-9.775525093078613,-0.152587890625,1.0528564453125,0.030517578125
10.129999900000001,-0.040701430290937424,-0.9840168952941895,-9.775525093078613,-0.1373291015625,1.1138916015625,-0.1068115234375
10.149999900000001,-0.043095629662275314,-0.9840168952941895,-9.775525093078613,-0.152587890625,1.007080078125,-0.0762939453125
10.1699999,-0.0454898327589035,-0.9888052940368652,-9.775525093078613,-0.1373291015625,0.9918212890625,-0.030517578125
10.1899999,-0.0454898327589035,-0.9911994934082031,-9.775525093078613,-0.1678466796875,1.068115234375,-0.030517578125
10.209999900000001,-0.0454898327589035,-0.9983820915222168,-9.775525093078613,-0.1373291015625,1.0528564453125,-0.1068115234375
10.229999900000001,-0.0454898327589035,-1.0007762908935547,-9.770736694335938,-0.1373291015625,1.068115234375,-0.0457763671875
10.2499999,-0.043095629662275314,-1.0031704902648926,-9.770736694335938,-0.1678466796875,1.007080078125,-0.091552734375
10.2699999,-0.040701430290937424,-1.0031704902648926,-9.768342971801758,-0.1678466796875,1.0223388671875,-0.0762939453125
10.2899999,-0.040701430290937424,-0.9983820915222168,-9.765948295593262,-0.091552734375,0.9765625,-0.06103515625
10.309999900000001,-0.040701430290937424,-0.9959878921508789,-9.768342971801758,-0.06103515625,1.0528564453125,-0.030517578125
10.3299999,-0.040701430290937424,-0.993593692779541,-9.770736694335938,-0.0457763671875,1.03759765625,-0.0152587890625
10.3499999,-0.040701430290937424,-0.9911994934082031,-9.775525093078613,-0.1220703125,1.0223388671875,-0.1068115234375
10.3699999,-0.043095629662275314,-0.9888052940368652,-9.775525093078613,-0.1373291015625,1.068115234375,-0.1373291015625
10.389999900000001,-0.0454898327589035,-0.9888052940368652,-9.773131370544434,-0.091552734375,1.068115234375,-0.0762939453125
10.4099999,-0.0454898327589035,-0.9888052940368652,-9.773131370544434,-0.1220703125,1.007080078125,-0.030517578125
10.4299999,-0.047884032130241394,-0.9888052940368652,-9.768342971801758,-0.091552734375,0.9765625,-0.0457763671875
10.4499999,-0.05027823522686958,-0.9888052940368652,-9.768342971801758,-0.1220703125,1.007080078125,0.0152587890625
10.469999900000001,-0.05027823522686958,-0.9888052940368652,-9.765948295593262,-0.18310546875,1.0223388671875,0
10.4899999,-0.05027823522686958,-0.9911994934082031,-9.765948295593262,-0.1220703125,1.03759765625,-0.0152587890625
10.5099999,-0.05027823522686958,-0.9911994934082031,-9.765948295593262,-0.1068115234375,1.0833740234375,-0.0152587890625
10.5299999,-0.05027823522686958,-0.9911994934082031,-9.768342971801758,-0.0762939453125,1.0223388671875,-0.0762939453125
10.549999900000001,-0.05027823522686958,-0.9911994934082031,-9.770736694335938,-0.1220703125,1.03759765625,-0.0762939453125
10.569999900000001,-0.047884032130241394,-0.9911994934082031,-9.770736694335938,-0.1678466796875,1.0528564453125,0
10.5899999,-0.047884032130241394,-0.9911994934082031,-9.773131370544434,-0.091552734375,1.0833740234375,-0.0762939453125
10.6099999,-0.047884032130241394,-0.9888052940368652,-9.773131370544434,-0.1373291015625,1.1138916015625,-0.091552734375
10.629999900000001,-0.0454898327589035,-0.9888052940368652,-9.773131370544434,-0.1983642578125,1.007080078125,-0.091552734375
10.649999900000001,-0.047884032130241394,-0.9888052940368652,-9.770736694335938,-0.18310546875,0.9307861328125,-0.06103515625
10.6699999,-0.0454898327589035,-0.9888052940368652,-9.773131370544434,-0.1220703125,0.9307861328125,-0.1068115234375
10.6899999,-0.0454898327589035,-0.9888052940368652,-9.770736694335938,-0.18310546875,1.068115234375,-0.06103515625
10.709999900000001,-0.043095629662275314,-0.9864110946655273,-9.770736694335938,-0.1068115234375,1.068115234375,-0.0762939453125
10.729999900000001,-0.043095629662275314,-0.9840168952941895,-9.770736694335938,-0.091552734375,1.0528564453125,0.0152587890625
10.7499999,-0.0454898327589035,-0.9816226959228516,-9.770736694335938,-0.1068115234375,1.0223388671875,-0.030517578125
10.7699999,-0.0454898327589035,-0.9816226959228516,-9.773131370544434,-0.1220703125,1.0223388671875,-0.091552734375
10.7899999,-0.047884032130241394,-0.9816226959228516,-9.775525093078613,-0.152587890625,1.0833740234375,-0.06103515625
10.809999900000001,-0.0454898327589035,-0.9816226959228516,-9.77791976928711,-0.091552734375,1.068115234375,-0.091552734375
10.8299999,-0.0454898327589035,-0.9840168952941895,-9.775525093078613,-0.1373291015625,1.007080078125,0
10.8499999,-0.047884032130241394,-0.9840168952941895,-9.773131370544434,-0.2288818359375,1.0528564453125,-0.0457763671875
10.8699999,-0.0454898327589035,-0.9840168952941895,-9.773131370544434,-0.1983642578125,1.0223388671875,-0.0457763671875
10.889999900000001,-0.047884032130241394,-0.9864110946655273,-9.770736694335938,-0.091552734375,0.9918212890625,-0.091552734375
10.9099999,-0.05027823522686958,-0.9864110946655273,-9.773131370544434,-0.06103515625,0.9613037109375,-0.0457763671875
10.9299999,-0.05027823522686958,-0.9888052940368652,-9.773131370544434,-0.1220703125,1.0223388671875,-0.0762939453125
10.9499999,-0.05027823522686958,-0.9888052940368652,-9.773131370544434,-0.1678466796875,1.0223388671875,-0.0762939453125
10.969999900000001,-0.047884032130241394,-0.9888052940368652,-9.775525093078613,-0.1220703125,1.0223388671875,0
10.9899999,-0.0454898327589035,-0.9888052940368652,-9.775525093078613,-0.1220703125,0.9918212890625,-0.0762939453125
11.0099999,-0.043095629662275314,-0.9864110946655273,-9.775525093078613,-0.152587890625,1.007080078125,-0.06103515625
11.0299999,-0.043095629662275314,-0.9864110946655273,-9.773131370544434,-0.18310546875,1.129150390625,-0.0457763671875
11.049999900000001,-0.0454898327589035,-0.9888052940368652,-9.773131370544434,-0.1068115234375,1.007080078125,-0.0457763671875
11.069999900000001,-0.0454898327589035,-0.9911994934082031,-9.770736694335938,-0.06103515625,1.0833740234375,-0.06103515625
11.0899999,-0.047884032130241394,-0.993593692779541,-9.770736694335938,-0.1373291015625,1.03759765625,-0.0762939453125
11.1099999,-0.047884032130241394,-0.993593692779541,-9.770736694335938,-0.1678466796875,1.0223388671875,-0.0762939453125
11.129999900000001,-0.047884032130241394,-0.993593692779541,-9.770736694335938,-0.1373291015625,1.0528564453125,-0.0457763671875
11.149999900000001,-0.0454898327589035,-0.9911994934082031,-9.770736694335938,-0.1373291015625,0.9918212890625,-0.0457763671875
11.1699999,-0.047884032130241394,-0.9888052940368652,-9.770736694335938,-0.1678466796875,0.9918212890625,-0.06103515625
11.1899999,-0.047884032130241394,-0.9888052940368652,-9.770736694335938,-0.152587890625,0.9613037109375,0.030517578125
11.209999900000001,-0.0454898327589035,-0.9864110946655273,-9.770736694335938,-0.1373291015625,1.007080078125,-0.1220703125
11.229999900000001,-0.0454898327589035,-0.9864110946655273,-9.768342971801758,-0.1220703125,1.007080078125,-0.0457763671875
11.2499999,-0.043095629662275314,-0.9864110946655273,-9.768342971801758,-0.1678466796875,1.03759765625,-0.0762939453125
11.2699999,-0.043095629662275314,-0.9864110946655273,-9.770736694335938,-0.091552734375,1.03759765625,-0.030517578125
11.2899999,-0.040701430290937424,-0.9864110946655273,-9.770736694335938,-0.0762939453125,1.068115234375,-0.0457763671875
11.309999900000001,-0.040701430290937424,-0.9864110946655273,-9.773131370544434,-0.18310546875,1.0528564453125,0
11.3299999,-0.040701430290937424,-0.9840168952941895,-9.775525093078613,-0.1678466796875,1.0223388671875,-0.030517578125
11.3499999,-0.0454898327589035,-0.9816226959228516,-9.77791976928711,-0.1068115234375,0.9765625,-0.030517578125
11.3699999,-0.0454898327589035,-0.9816226959228516,-9.77791976928711,-0.0457763671875,0.9613037109375,-0.06103515625
11.389999900000001,-0.05027823522686958,-0.9816226959228516,-9.775525093078613,-0.1373291015625,1.0223388671875,-0.091552734375
11.4099999,-0.047884032130241394,-0.9840168952941895,-9.775525093078613,-0.091552734375,1.0223388671875,-0.0457763671875
11.4299999,-0.047884032130241394,-0.9864110946655273,-9.773131370544434,-0.1068115234375,1.0223388671875,-0.030517578125
11.4499999,-0.0454898327589035,-0.9864110946655273,-9.773131370544434,-0.18310546875,1.03759765625,-0.091552734375
11.469999900000001,-0.043095629662275314,-0.9888052940368652,-9.773131370544434,-0.0762939453125,0.9918212890625,-0.030517578125
11.4899999,-0.043095629662275314,-0.9888052940368652,-9.773131370544434,-0.1068115234375,0.9918212890625,-0.06103515625
11.5099999,-0.043095629662275314,-0.9888052940368652,-9.770736694335938,-0.1983642578125,1.0223388671875,-0.152587890625
11.5299999,-0.043095629662275314,-0.9888052940368652,-9.770736694335938,-0.06103515625,1.068115234375,-0.0762939453125
11.549999900000001,-0.043095629662275314,-0.9888052940368652,-9.770736694335938,-0.0457763671875,1.0223388671875,-0.0457763671875
11.569999900000001,-0.0454898327589035,-0.9888052940368652,-9.773131370544434,-0.1983642578125,1.007080078125,0
11.5899999,-0.043095629662275314,-0.9864110946655273,-9.770736694335938,-0.1220703125,1.0223388671875,-0.06103515625
11.6099999,-0.043095629662275314,-0.9864110946655273,-9.770736694335938,0.0152587890625,1.007080078125,-0.091552734375
11.629999900000001,-0.043095629662275314,-0.9840168952941895,-9.770736694335938,-0.1373291015625,1.0833740234375,-0.0457763671875
11.649999900000001,-0.040701430290937424,-0.9816226959228516,-9.768342971801758,-0.2288818359375,1.15966796875,-0.0457763671875
11.6699999,-0.040701430290937424,-0.9816226959228516,-9.768342971801758,-0.152587890625,1.1444091796875,-0.1068115234375
11.6899999,-0.038307227194309235,-0.9792284965515137,-9.765948295593262,-0.1068115234375,1.0528564453125,-0.06103515625
11.709999900000001,-0.040701430290937424,-0.9840168952941895,-9.765948295593262,-0.1678466796875,1.03759765625,-0.0457763671875
11.729999900000001,-0.040701430290937424,-0.9840168952941895,-9.763554573059082,-0.18310546875,1.007080078125,-0.0457763671875
11.7499999,-0.043095629662275314,-0.9864110946655273,-9.765948295593262,-0.1373291015625,1.0223388671875,-0.1220703125
11.7699999,-0.043095629662275314,-0.9864110946655273,-9.765948295593262,-0.091552734375,1.0528564453125,-0.1068115234375
11.7899999,-0.0454898327589035,-0.9864110946655273,-9.768342971801758,-0.091552734375,1.068115234375,-0.0457763671875
11.809999900000001,-0.0454898327589035,-0.9864110946655273,-9.768342971801758,-0.1220703125,0.9918212890625,-0.06103515625
11.8299999,-0.0454898327589035,-0.9888052940368652,-9.768342971801758,-0.152587890625,1.007080078125,-0.0152587890625
11.8499999,-0.047884032130241394,-0.9888052940368652,-9.768342971801758,-0.1220703125,1.03759765625,-0.06103515625
11.8699999,-0.05027823522686958,-0.9888052940368652,-9.770736694335938,-0.1678466796875,1.03759765625,-0.0457763671875
11.889999900000001,-0.05027823522686958,-0.9888052940368652,-9.770736694335938,-0.1220703125,0.9918212890625,-0.06103515625
11.9099999,-0.047884032130241394,-0.9911994934082031,-9.770736694335938,-0.0457763671875,0.946044921875,-0.06103515625
11.9299999,-0.0454898327589035,-0.9888052940368652,-9.768342971801758,-0.0762939453125,1.007080078125,-0.06103515625
11.9499999,-0.043095629662275314,-0.9888052940368652,-9.765948295593262,-0.091552734375,0.9765625,-0.030517578125
11.969999900000001,-0.040701430290937424,-0.9864110946655273,-9.765948295593262,-0.1373291015625,0.9613037109375,-0.0457763671875
11.9899999,-0.040701430290937424,-0.9864110946655273,-9.763554573059082,-0.1220703125,1.068115234375,0
12.0099999,-0.040701430290937424,-0.9840168952941895,-9.765948295593262,-0.1068115234375,1.007080078125,-0.0762939453125
12.0299999,-0.043095629662275314,-0.9840168952941895,-9.765948295593262,-0.1678466796875,0.9918212890625,-0.091552734375
12.049999900000001,-0.0454898327589035,-0.9840168952941895,-9.765948295593262,-0.1220703125,1.007080078125,-0.0762939453125
12.069999900000001,-0.047884032130241394,-0.9840168952941895,-9.768342971801758,-0.1983642578125,1.03759765625,-0.030517578125
12.0899999,-0.047884032130241394,-0.9864110946655273,-9.768342971801758,-0.1983642578125,1.0528564453125,-0.0457763671875
12.1099999,-0.047884032130241394,-0.9864110946655273,-9.768342971801758,-0.0762939453125,1.0223388671875,-0.06103515625
12.129999900000001,-0.0454898327589035,-0.9864110946655273,-9.770736694335938,-0.1068115234375,1.0986328125,-0.030517578125
12.149999900000001,-0.0454898327589035,-0.9864110946655273,-9.770736694335938,-0.091552734375,0.9765625,0
12.1699999,-0.047884032130241394,-0.9864110946655273,-9.770736694335938,-0.091552734375,1.0223388671875,-0.06103515625
12.1899999,-0.047884032130241394,-0.9840168952941895,-9.768342971801758,-0.1220703125,1.068115234375,-0.1068115234375
12.209999900000001,-0.047884032130241394,-0.9816226959228516,-9.768342971801758,-0.18310546875,1.0528564453125,-0.030517578125
12.229999900000001,-0.047884032130241394,-0.9792284965515137,-9.765948295593262,-0.18310546875,1.0223388671875,-0.030517578125
12.2499999,-0.047884032130241394,-0.9768342971801758,-9.763554573059082,-0.06103515625,1.03759765625,-0.0152587890625
12.2699999,-0.05027823522686958,-0.9768342971801758,-9.763554573059082,-0.1373291015625,1.03759765625,-0.030517578125
12.289999900000002,-0.05027823522686958,-0.9768342971801758,-9.765948295593262,-0.213623046875,1.03759765625,-0.091552734375
12.309999900000001,-0.047884032130241394,-0.9816226959228516,-9.768342971801758,-0.1068115234375,1.03759765625,-0.0457763671875
12.3299999,-0.047884032130241394,-0.9840168952941895,-9.770736694335938,-0.0762939453125,1.03759765625,-0.0457763671875
12.3499999,-0.047884032130241394,-0.9864110946655273,-9.770736694335938,-0.091552734375,1.0528564453125,0.030517578125
12.3699999,-0.047884032130241394,-0.9888052940368652,-9.773131370544434,-0.091552734375,1.03759765625,-0.030517578125
12.389999900000001,-0.0454898327589035,-0.9888052940368652,-9.775525093078613,-0.1678466796875,0.9918212890625,-0.06103515625
12.4099999,-0.047884032130241394,-0.9888052940368652,-9.775525093078613,-0.0762939453125,1.0528564453125,0.030517578125
12.4299999,-0.047884032130241394,-0.9864110946655273,-9.775525093078613,0.0152587890625,1.03759765625,-0.030517578125
12.4499999,-0.047884032130241394,-0.9864110946655273,-9.770736694335938,-0.1220703125,1.0223388671875,-0.0762939453125
12.469999900000001,-0.047884032130241394,-0.9840168952941895,-9.770736694335938,-0.1983642578125,1.0528564453125,-0.1373291015625
12.4899999,-0.0454898327589035,-0.9840168952941895,-9.768342971801758,-0.06103515625,1.068115234375,-0.091552734375
12.5099999,-0.0454898327589035,-0.9840168952941895,-9.770736694335938,-0.152587890625,1.0223388671875,-0.0762939453125
12.5299999,-0.043095629662275314,-0.9840168952941895,-9.770736694335938,-0.18310546875,1.0223388671875,-0.0457763671875
12.549999900000001,-0.043095629662275314,-0.9840168952941895,-9.773131370544434,-0.1220703125,1.0528564453125,-0.091552734375
12.569999900000001,-0.043095629662275314,-0.9864110946655273,-9.775525093078613,-0.1068115234375,1.03759765625,-0.0762939453125
12.5899999,-0.0454898327589035,-0.9888052940368652,-9.773131370544434,-0.1220703125,1.0528564453125,0
12.6099999,-0.047884032130241394,-0.9888052940368652,-9.773131370544434,-0.1220703125,1.0528564453125,0
12.629999900000001,-0.05027823522686958,-0.9888052940368652,-9.773131370544434,-0.091552734375,1.03759765625,-0.030517578125
12.649999900000001,-0.05267243832349777,-0.9864110946655273,-9.773131370544434,-0.152587890625,1.0223388671875,-0.06103515625
12.6699999,-0.05267243832349777,-0.9840168952941895,-9.773131370544434,-0.1068115234375,1.03759765625,-0.06103515625
12.6899999,-0.05027823522686958,-0.9840168952941895,-9.775525093078613,-0.1068115234375,1.007080078125,-0.030517578125
12.709999900000001,-0.047884032130241394,-0.9816226959228516,-9.77791976928711,-0.1220703125,0.9918212890625,-0.030517578125
12.729999900000001,-0.043095629662275314,-0.9840168952941895,-9.780313491821289,-0.18310546875,1.1138916015625,-0.06103515625
12.7499999,-0.043095629662275314,-0.9840168952941895,-9.780313491821289,-0.1068115234375,1.0223388671875,-0.030517578125
12.7699999,-0.040701430290937424,-0.9840168952941895,-9.77791976928711,-0.091552734375,1.0223388671875,-0.030517578125
12.789999900000002,-0.043095629662275314,-0.9864110946655273,-9.775525093078613,-0.152587890625,1.068115234375,-0.1068115234375
12.809999900000001,-0.047884032130241394,-0.9864110946655273,-9.770736694335938,-0.06103515625,1.068115234375,-0.06103515625
12.8299999,-0.05027823522686958,-0.9840168952941895,-9.765948295593262,-0.0762939453125,0.9918212890625,-0.1068115234375
12.8499999,-0.05027823522686958,-0.9840168952941895,-9.763554573059082,-0.1983642578125,1.007080078125,-0.0457763671875
12.8699999,-0.05267243832349777,-0.9816226959228516,-9.763554573059082,-0.1220703125,1.0528564453125,-0.0762939453125
12.889999900000001,-0.05027823522686958,-0.9840168952941895,-9.765948295593262,-0.091552734375,1.007080078125,-0.030517578125
12.9099999,-0.05027823522686958,-0.9840168952941895,-9.768342971801758,-0.2288818359375,1.0223388671875,0
12.9299999,-0.047884032130241394,-0.9840168952941895,-9.770736694335938,-0.1373291015625,1.03759765625,-0.0152587890625
12.9499999,-0.047884032130241394,-0.9840168952941895,-9.773131370544434,-0.0762939453125,1.0223388671875,-0.0762939453125
12.969999900000001,-0.047884032130241394,-0.9840168952941895,-9.775525093078613,-0.1068115234375,1.007080078125,-0.1068115234375
12.9899999,-0.047884032130241394,-0.9816226959228516,-9.77791976928711,-0.091552734375,1.0528564453125,-0.0457763671875
13.0099999,-0.047884032130241394,-0.9816226959228516,-9.77791976928711,-0.0152587890625,1.03759765625,-0.06103515625
13.0299999,-0.047884032130241394,-0.9816226959228516,-9.775525093078613,-0.091552734375,1.068115234375,-0.1373291015625
13.049999900000001,-0.0454898327589035,-0.9840168952941895,-9.775525093078613,-0.0457763671875,1.007080078125,-0.0152587890625
13.069999900000001,-0.0454898327589035,-0.9840168952941895,-9.770736694335938,-0.0762939453125,1.0223388671875,-0.0762939453125
13.0899999,-0.0454898327589035,-0.9840168952941895,-9.770736694335938,-0.1068115234375,1.0528564453125,-0.0457763671875
13.1099999,-0.047884032130241394,-0.9816226959228516,-9.770736694335938,-0.0762939453125,1.068115234375,-0.030517578125
13.129999900000001,-0.05027823522686958,-0.9816226959228516,-9.768342971801758,-0.0762939453125,1.068115234375,-0.1068115234375
13.149999900000001,-0.05027823522686958,-0.9816226959228516,-9.768342971801758,-0.1678466796875,1.0986328125,-0.06103515625
13.1699999,-0.05027823522686958,-0.9792284965515137,-9.765948295593262,-0.1220703125,1.007080078125,-0.06103515625
13.1899999,-0.05027823522686958,-0.9816226959228516,-9.763554573059082,-0.06103515625,1.0986328125,-0.0152587890625
13.209999900000001,-0.047884032130241394,-0.9816226959228516,-9.765948295593262,-0.1220703125,1.0833740234375,-0.0152587890625
13.229999900000001,-0.05027823522686958,-0.9816226959228516,-9.765948295593262,-0.213623046875,1.03759765625,-0.030517578125
13.2499999,-0.05027823522686958,-0.9792284965515137,-9.768342971801758,-0.1220703125,1.0833740234375,-0.0457763671875
13.2699999,-0.05267243832349777,-0.9768342971801758,-9.770736694335938,-0.06103515625,1.0986328125,-0.091552734375
13.289999900000002,-0.05267243832349777,-0.9744400978088379,-9.770736694335938,-0.1678466796875,1.0223388671875,-0.1068115234375
13.309999900000001,-0.05506663769483566,-0.9744400978088379,-9.770736694335938,-0.152587890625,1.007080078125,-0.030517578125
13.3299999,-0.05267243832349777,-0.9720458984375,-9.770736694335938,-0.0762939453125,0.9765625,-0.0457763671875
13.3499999,-0.05267243832349777,-0.9744400978088379,-9.770736694335938,-0.1220703125,1.0528564453125,-0.1068115234375
13.3699999,-0.05267243832349777,-0.9768342971801758,-9.773131370544434,-0.2593994140625,1.068115234375,-0.1220703125
13.389999900000001,-0.05267243832349777,-0.9816226959228516,-9.775525093078613,-0.091552734375,1.03759765625,-0.0457763671875
13.4099999,-0.05267243832349777,-0.9816226959228516,-9.775525093078613,-0.091552734375,1.007080078125,-0.030517578125
13.4299999,-0.05027823522686958,-0.9840168952941895,-9.775525093078613,-0.1983642578125,1.0223388671875,-0.06103515625
13.4499999,-0.05027823522686958,-0.9840168952941895,-9.773131370544434,-0.1220703125,1.0528564453125,-0.1220703125
13.469999900000001,-0.047884032130241394,-0.9840168952941895,-9.770736694335938,-0.0762939453125,1.0986328125,-0.0152587890625
13.4899999,-0.047884032130241394,-0.9864110946655273,-9.770736694335938,-0.030517578125,1.0223388671875,-0.06103515625
13.5099999,-0.0454898327589035,-0.9840168952941895,-9.765948295593262,-0.518798828125,1.007080078125,-0.091552734375
13.5299999,-0.0454898327589035,-0.9840168952941895,-9.770736694335938,0.152587890625,1.1444091796875,0
13.549999900000001,-0.043095629662275314,-0.9816226959228516,-9.773131370544434,0.274658203125,0.9765625,0.0152587890625
13.569999900000001,-0.043095629662275314,-0.9792284965515137,-9.773131370544434,-0.579833984375,0.9765625,-0.091552734375
13.5899999,-0.040701430290937424,-0.9792284965515137,-9.775525093078613,-0.152587890625,1.129150390625,-0.030517578125
13.6099999,-0.043095629662275314,-0.9792284965515137,-9.775525093078613,0.3204345703125,1.1444091796875,-0.0152587890625
13.629999900000001,-0.047884032130241394,-0.9768342971801758,-9.773131370544434,-0.6866455078125,0.885009765625,-0.18310546875
13.649999900000001,-0.047884032130241394,-0.9816226959228516,-9.773131370544434,0.1373291015625,1.190185546875,-0.0152587890625
13.6699999,-0.0454898327589035,-0.9840168952941895,-9.77791976928711,0.06103515625,1.0986328125,0
13.6899999,-0.0454898327589035,-0.9816226959228516,-9.775525093078613,-0.5950927734375,0.823974609375,-0.0762939453125
13.709999900000001,-0.043095629662275314,-0.9816226959228516,-9.780313491821289,0.274658203125,1.129150390625,-0.06103515625
13.729999900000001,-0.040701430290937424,-0.9792284965515137,-9.782708168029785,-0.1068115234375,1.0528564453125,-0.091552734375
13.7499999,-0.043095629662275314,-0.9768342971801758,-9.782708168029785,-0.42724609375,0.946044921875,-0.0762939453125
13.7699999,-0.0454898327589035,-0.9768342971801758,-9.782708168029785,-0.0457763671875,1.03759765625,-0.0457763671875
13.789999900000002,-0.047884032130241394,-0.9768342971801758,-9.780313491821289,0.1068115234375,1.03759765625,-0.0152587890625
13.809999900000001,-0.05027823522686958,-0.9768342971801758,-9.77791976928711,-0.244140625,1.007080078125,-0.0457763671875
13.8299999,-0.05267243832349777,-0.9792284965515137,-9.773131370544434,-0.3204345703125,0.91552734375,-0.0762939453125
13.8499999,-0.05027823522686958,-0.9840168952941895,-9.773131370544434,0.18310546875,1.0986328125,-0.06103515625
13.8699999,-0.047884032130241394,-0.9840168952941895,-9.770736694335938,-0.244140625,1.007080078125,-0.0762939453125
13.889999900000001,-0.047884032130241394,-0.9816226959228516,-9.770736694335938,-0.1678466796875,1.068115234375,-0.030517578125
13.9099999,-0.047884032130241394,-0.9816226959228516,-9.773131370544434,-0.0152587890625,1.007080078125,0
13.9299999,-0.047884032130241394,-0.9792284965515137,-9.775525093078613,-0.3509521484375,0.946044921875,-0.1220703125
13.9499999,-0.0454898327589035,-0.9816226959228516,-9.77791976928711,0.1220703125,1.068115234375,-0.0762939453125
13.969999900000001,-0.0454898327589035,-0.9840168952941895,-9.77791976928711,-0.1373291015625,1.068115234375,-0.0762939453125
13.9899999,-0.0454898327589035,-0.9840168952941895,-9.780313491821289,-0.6103515625,0.9307861328125,-0.1373291015625
14.0099999,-0.047884032130241394,-0.9840168952941895,-9.780313491821289,0.4425048828125,1.129150390625,-0.0152587890625
14.0299999,-0.047884032130241394,-0.9816226959228516,-9.780313491821289,0.06103515625,1.0528564453125,-0.06103515625
14.049999900000001,-0.047884032130241394,-0.9792284965515137,-9.782708168029785,-0.5950927734375,0.9613037109375,-0.0152587890625
14.069999900000001,-0.0454898327589035,-0.9792284965515137,-9.780313491821289,0.1068115234375,1.068115234375,-0.0762939453125
14.0899999,-0.0454898327589035,-0.9792284965515137,-9.780313491821289,-0.0457763671875,0.9918212890625,-0.030517578125
14.1099999,-0.047884032130241394,-0.9768342971801758,-9.77791976928711,-0.213623046875,1.007080078125,0
14.129999900000001,-0.047884032130241394,-0.9768342971801758,-9.773131370544434,-0.213623046875,1.0223388671875,-0.0457763671875
14.149999900000001,-0.0454898327589035,-0.9792284965515137,-9.770736694335938,0.1373291015625,1.129150390625,-0.1220703125
14.1699999,-0.0454898327589035,-0.9768342971801758,-9.768342971801758,-0.18310546875,1.007080078125,-0.1068115234375
14.1899999,-0.0454898327589035,-0.9792284965515137,-9.768342971801758,-0.457763671875,0.9613037109375,-0.091552734375
14.209999900000001,-0.05027823522686958,-0.9768342971801758,-9.773131370544434,0.0762939453125,1.0833740234375,-0.0152587890625
14.229999900000001,-0.05267243832349777,-0.9768342971801758,-9.773131370544434,-0.0152587890625,1.03759765625,-0.030517578125
14.2499999,-0.05267243832349777,-0.9816226959228516,-9.775525093078613,-0.091552734375,1.03759765625,0.0457763671875
14.2699999,-0.047884032130241394,-0.9840168952941895,-9.773131370544434,-3.7078857421875,1.3580322265625,1.15966796875
14.289999900000002,-0.047884032130241394,-0.9696516990661621,-9.77791976928711,-14.6942138671875,0.06103515625,-0.0457763671875
14.309999900000001,-0.047884032130241394,-0.9552865028381348,-9.775525093078613,-0.54931640625,1.220703125,-0.152587890625
14.3299999,-0.05027823522686958,-0.933738648891449,-9.780313491821289,7.354736328125,2.532958984375,-0.2899169921875
14.3499999,-0.05267243832349777,-0.9145850539207458,-9.785101890563965,-2.7618408203125,0.9307861328125,-0.48828125
14.3699999,-0.047884032130241394,-0.9169792532920837,-9.78989028930664,-0.1373291015625,0.9918212890625,-0.2288818359375
14.389999900000001,-0.0454898327589035,-0.9193734526634216,-9.785101890563965,5.1422119140625,0.4425048828125,-0.0457763671875
14.4099999,-0.0454898327589035,-0.9265560507774353,-9.785101890563965,1.617431640625,0.640869140625,-0.1373291015625
14.4299999,-0.0454898327589035,-0.933738648891449,-9.77791976928711,-2.0599365234375,0.91552734375,-0.06103515625
14.4499999,-0.0454898327589035,-0.9433154463768005,-9.773131370544434,-0.1983642578125,1.0223388671875,-0.030517578125
14.469999900000001,-0.0454898327589035,-0.9481038451194763,-9.773131370544434,1.28173828125,1.129150390625,-0.0152587890625
14.4899999,-0.040701430290937424,-0.950498104095459,-9.775525093078613,-0.946044921875,1.007080078125,-0.1373291015625
14.5099999,-0.040701430290937424,-0.9528923034667969,-9.775525093078613,-0.7476806640625,0.946044921875,-0.030517578125
14.5299999,-0.040701430290937424,-0.9552865028381348,-9.775525093078613,0.9307861328125,1.0833740234375,0.06103515625
14.549999900000001,-0.043095629662275314,-0.9552865028381348,-9.775525093078613,-0.152587890625,1.0528564453125,-0.0457763671875
14.569999900000001,-0.0454898327589035,-0.9552865028381348,-9.775525093078613,-1.03759765625,0.8544921875,-0.06103515625
14.5899999,-0.043095629662275314,-0.9528923034667969,-9.775525093078613,0.5035400390625,1.0986328125,0.030517578125
14.6099999,-0.0454898327589035,-0.9528923034667969,-9.775525093078613,0.3204345703125,1.1749267578125,0
14.629999900000001,-0.0454898327589035,-0.9481038451194763,-9.775525093078613,-0.946044921875,0.9307861328125,-0.0762939453125
14.649999900000001,-0.0454898327589035,-0.9481038451194763,-9.773131370544434,0.0457763671875,1.0528564453125,-0.0762939453125
14.6699999,-0.047884032130241394,-0.9457096457481384,-9.775525093078613,0.4119873046875,1.15966796875,0
14.6899999,-0.0454898327589035,-0.9457096457481384,-9.775525093078613,-0.6103515625,0.91552734375,-0.091552734375
14.709999900000001,-0.047884032130241394,-0.9457096457481384,-9.77791976928711,-0.274658203125,0.9613037109375,-0.0762939453125
14.729999900000001,-0.047884032130241394,-0.9481038451194763,-9.780313491821289,0.3509521484375,1.1138916015625,0.0152587890625
14.7499999,-0.047884032130241394,-0.9481038451194763,-9.780313491821289,-0.30517578125,0.9765625,-0.0152587890625
14.7699999,-0.047884032130241394,-0.950498104095459,-9.77791976928711,-0.42724609375,0.91552734375,-0.06103515625
14.789999900000002,-0.047884032130241394,-0.9528923034667969,-9.775525093078613,0.3509521484375,1.0986328125,-0.0762939453125
14.809999900000001,-0.047884032130241394,-0.9576807022094727,-9.775525093078613,-0.1983642578125,1.068115234375,-0.030517578125
14.8299999,-0.047884032130241394,-0.9576807022094727,-9.775525093078613,-0.518798828125,1.007080078125,-0.06103515625
14.8499999,-0.047884032130241394,-0.9576807022094727,-9.775525093078613,0.18310546875,1.03759765625,-0.0762939453125
14.8699999,-0.047884032130241394,-0.9552865028381348,-9.775525093078613,-0.1068115234375,0.9765625,0
14.889999900000001,-0.0454898327589035,-0.9528923034667969,-9.775525093078613,-0.4425048828125,0.946044921875,-0.06103515625
14.9099999,-0.043095629662275314,-0.950498104095459,-9.775525093078613,0.030517578125,1.007080078125,-0.0457763671875
14.9299999,-0.040701430290937424,-0.9481038451194763,-9.773131370544434,0.1068115234375,1.0528564453125,-0.0457763671875
14.9499999,-0.040701430290937424,-0.9481038451194763,-9.775525093078613,-0.518798828125,1.0528564453125,-0.091552734375
14.969999900000001,-0.043095629662275314,-0.9481038451194763,-9.773131370544434,-0.396728515625,1.007080078125,-0.030517578125
14.9899999,-0.047884032130241394,-0.9481038451194763,-9.773131370544434,0.3662109375,1.0528564453125,0.0152587890625
15.0099999,-0.05027823522686958,-0.9481038451194763,-9.773131370544434,-0.0152587890625,1.1138916015625,-0.0762939453125
15.0299999,-0.05027823522686958,-0.9481038451194763,-9.773131370544434,-0.5645751953125,1.03759765625,-0.1220703125
15.049999900000001,-0.047884032130241394,-0.950498104095459,-9.775525093078613,-0.0152587890625,1.0986328125,-0.0457763671875
15.069999900000001,-0.0454898327589035,-0.950498104095459,-9.775525093078613,0.030517578125,1.007080078125,-0.0457763671875
15.0899999,-0.0454898327589035,-0.950498104095459,-9.77791976928711,-0.30517578125,0.91552734375,-0.1373291015625
15.1099999,-0.047884032130241394,-0.9433154463768005,-9.785101890563965,-0.274658203125,0.91552734375,-0.1373291015625
15.129999900000001,-0.038307227194309235,-0.9145850539207458,-9.773131370544434,7.171630859375,1.129150390625,-2.38037109375
15.149999900000001,-0.023942016065120697,-0.9193734526634216,-9.780313491821289,22.216796875,6.988525390625,-4.5623779296875
15.1699999,-0.040701430290937424,-0.950498104095459,-9.768342971801758,1.3885498046875,0.79345703125,-3.4332275390625
15.1899999,-0.038307227194309235,-1.0007762908935547,-9.763554573059082,1.46484375,1.434326171875,0.0457763671875
15.209999900000001,-0.06703764945268631,-1.0749965906143188,-9.761159896850586,-3.4332275390625,0.518798828125,0.2288818359375
15.229999900000001,-0.0694318488240242,-1.1037269830703735,-9.75397777557373,-1.1138916015625,1.129150390625,0.0152587890625
15.2499999,-0.05985504388809204,-1.1228805780410767,-9.751583099365234,3.7384033203125,1.129150390625,-0.732421875
15.2699999,-0.043095629662275314,-1.1061211824417114,-9.751583099365234,1.28173828125,1.8463134765625,0.1068115234375
15.289999900000002,-0.033518824726343155,-1.0989385843276978,-9.751583099365234,-4.08935546875,0.1220703125,-0.0457763671875
15.309999900000001,-0.031124621629714966,-1.0773907899856567,-9.751583099365234,1.251220703125,1.5411376953125,0.1678466796875
15.3299999,-0.031124621629714966,-1.0678139925003052,-9.758766174316406,0.1220703125,0.946044921875,0.091552734375
15.3499999,-0.031124621629714966,-1.0654197931289673,-9.75397777557373,0.7476806640625,1.0986328125,0.091552734375
15.3699999,-0.031124621629714966,-1.158793568611145,-9.763554573059082,-5.828857421875,-0.3509521484375,3.8604736328125
15.389999900000001,-0.023942016065120697,-1.1683704853057861,-9.763554573059082,-20.3399658203125,-6.3934326171875,-1.5716552734375
15.4099999,-0.043095629662275314,-1.137245774269104,-9.765948295593262,-4.302978515625,-1.5106201171875,-9.46044921875
15.4299999,-0.0454898327589035,-1.072602391242981,-9.77791976928711,5.615234375,3.326416015625,-0.0457763671875
15.4499999,-0.05027823522686958,-0.9193734526634216,-9.792284965515137,0.396728515625,1.495361328125,1.2359619140625
15.469999900000001,-0.05985504388809204,-0.871489405632019,-9.787496566772461,4.7760009765625,-0.0457763671875,-1.190185546875
15.4899999,-0.05267243832349777,-0.8643068075180054,-9.792284965515137,2.38037109375,0.9307861328125,-0.457763671875
15.5099999,-0.06464344263076782,-0.9097966551780701,-9.768342971801758,3.6773681640625,1.800537109375,-0.3509521484375
15.5299999,-0.0694318488240242,-0.9528923034667969,-9.758766174316406,8.6212158203125,3.2806396484375,-0.579833984375
15.549999900000001,-0.0694318488240242,-1.0007762908935547,-9.75397777557373,4.302978515625,2.8533935546875,0.732421875
15.569999900000001,-0.05985504388809204,-1.0414776802062988,-9.763554573059082,3.41796875,1.77001953125,-0.213623046875
15.5899999,-0.047884032130241394,-1.072602391242981,-9.775525093078613,6.0882568359375,1.739501953125,-2.13623046875
15.6099999,-0.038307227194309235,-1.1061211824417114,-9.773131370544434,9.979248046875,1.8310546875,-0.4730224609375
15.629999900000001,-0.040701430290937424,-1.1180921792984009,-9.775525093078613,1.9989013671875,0.0152587890625,-0.640869140625
15.649999900000001,-0.043095629662275314,-1.1468225717544556,-9.763554573059082,0.274658203125,0.8697509765625,0.4425048828125
15.6699999,-0.06703764945268631,-1.1563993692398071,-9.761159896850586,1.28173828125,1.007080078125,2.3193359375
15.6899999,-0.06703764945268631,-1.173158884048462,-9.75637149810791,1.52587890625,0.5645751953125,0.2899169921875
15.709999900000001,-0.12928688526153564,-1.192312479019165,-9.751583099365234,2.25830078125,0.640869140625,-0.1678466796875
15.729999900000001,-0.11971008777618408,-1.213860273361206,-9.749189376831055,3.5247802734375,0.5950927734375,-0.152587890625
15.7499999,-0.08140286058187485,-1.3718775510787964,-9.734824180603027,9.0484619140625,-0.4119873046875,4.33349609375
15.7699999,-0.07182604819536209,-1.3263877630233765,-9.751583099365234,15.960693359375,-5.0048828125,-8.758544921875
15.789999900000002,0.014365210197865963,-1.4221558570861816,-9.75637149810791,18.12744140625,-4.119873046875,-8.4228515625
15.809999900000001,0.016759412363171577,-1.381454348564148,-9.75397777557373,20.416259765625,-3.5858154296875,-1.9683837890625
15.8299999,0.0071826050989329815,-1.381454348564148,-9.75637149810791,17.08984375,-4.9591064453125,-6.2713623046875
15.8499999,-0.033518824726343155,-1.3982137441635132,-9.742006301879883,20.4010009765625,-6.77490234375,-8.575439453125
15.869999900000002,-0.08619125932455063,-1.4389152526855469,-9.730035781860352,25.5584716796875,-5.1727294921875,-2.899169921875
15.889999900000001,-0.1628057211637497,-1.4508862495422363,-9.730035781860352,21.6522216796875,-4.5318603515625,2.410888671875
15.9099999,-0.21787235140800476,-1.501164436340332,-9.718064308166504,22.491455078125,-4.8675537109375,3.3416748046875
15.9299999,-0.24899697303771973,-1.5825673341751099,-9.718064308166504,20.6451416015625,-6.4544677734375,1.373291015625
15.9499999,-0.26336219906806946,-1.699883222579956,-9.694122314453125,-2.38037109375,-15.167236328125,0.457763671875
15.969999900000001,-0.27054479718208313,-1.766920804977417,-9.68933391571045,-0.823974609375,-16.05224609375,-0.06103515625
15.9899999,-0.2801215946674347,-1.8746598958969116,-9.653421401977539,19.9127197265625,-9.5977783203125,6.4544677734375
16.0099999,-0.33279404044151306,-1.9273324012756348,-9.641449928283691,64.7125244140625,-2.4566650390625,4.3487548828125
16.0299999,-0.35673606395721436,-2.142810583114624,-9.634267807006836,90.8050537109375,-4.7149658203125,0
16.0499999,-0.3998316824436188,-2.470816135406494,-9.615114212036133,111.175537109375,-9.9334716796875,-2.1514892578125
16.0699999,-0.38546648621559143,-3.0334534645080566,-9.524134635925293,149.3682861328125,0.6866455078125,-10.711669921875
16.089999900000002,-0.3711012601852417,-3.5673606395721436,-9.435548782348633,190.4449462890625,7.0343017578125,-25.3448486328125
16.109999900000002,-0.3902548849582672,-3.936067581176758,-9.344569206237793,118.0267333984375,-25.0701904296875,-35.6292724609375
16.1299999,-0.4596867263317108,-4.098873138427734,-9.366117477416992,8.544921875,-40.5426025390625,-17.8375244140625
16.1499999,-0.5291185975074768,-4.091690540313721,-9.583989143371582,1.0528564453125,-1.312255859375,-1.4190673828125
16.1699999,-0.6129156351089478,-4.113238334655762,-9.804255485534668,-39.0167236328125,26.031494140625,-4.33349609375
16.1899999,-0.6200982332229614,-4.180276393890381,-9.995792388916016,-54.9163818359375,39.9627685546875,-11.5966796875
16.2099999,-0.6368576288223267,-4.199429988861084,-9.979032516479492,-64.300537109375,36.865234375,-19.6533203125
16.2299999,-0.6512228846549988,-4.129997730255127,-9.734824180603027,-68.8934326171875,31.9976806640625,-13.61083984375
16.249999900000002,-0.6320692300796509,-3.995922565460205,-9.318233489990234,-35.94970703125,33.50830078125,-5.3253173828125
16.269999900000002,-0.5722141861915588,-3.8546648025512695,-8.920795440673828,-3.387451171875,21.8505859375,-7.62939453125
16.2899999,-0.4118026793003082,-3.8355112075805664,-8.631096839904785,9.1552734375,4.486083984375,-8.9874267578125
16.3099999,-0.16998831927776337,-3.952826976776123,-8.62630844116211,56.5643310546875,2.3651123046875,-3.814697265625
16.3299999,0.06224924325942993,-4.158728122711182,-8.911218643188477,70.5718994140625,0.4425048828125,-9.1552734375
16.3499999,0.22744916379451752,-4.443638324737549,-9.39245319366455,56.2744140625,1.0528564453125,-24.261474609375
16.3699999,0.3064578175544739,-4.699818134307861,-9.950302124023438,39.1082763671875,16.3726806640625,-30.1971435546875
16.3899999,0.2944868206977844,-4.865017890930176,-10.376470565795898,6.4239501953125,35.5224609375,-29.6478271484375
16.4099999,0.26336219906806946,-4.900930881500244,-10.522516250610352,-21.1944580078125,48.7518310546875,-33.0352783203125
16.429999900000002,0.26575639843940735,-4.869806289672852,-10.335768699645996,-29.23583984375,50.445556640625,-36.6668701171875
16.4499999,0.3734954595565796,-4.948814868927002,-9.794678688049316,-35.0189208984375,41.4886474609375,-35.2783203125
16.4699999,0.4908113479614258,-5.003881454467773,-9.162610054016113,7.4615478515625,37.3992919921875,-42.510986328125
16.4899999,0.6368576288223267,-5.157110691070557,-8.485051155090332,52.642822265625,31.036376953125,-64.9566650390625
16.5099999,0.7709329724311829,-5.305551052093506,-7.929595947265625,85.44921875,30.6396484375,-73.9288330078125
16.5299999,0.8307880163192749,-5.406107425689697,-7.5201873779296875,66.9403076171875,15.380859375,-69.1070556640625
16.5499999,0.8236053586006165,-5.489904403686523,-7.24485445022583,76.141357421875,7.4920654296875,-64.483642578125
16.5699999,0.7541735172271729,-5.396530628204346,-7.232883453369141,79.5440673828125,4.2572021484375,-65.4296875
16.589999900000002,0.6727706789970398,-5.185841083526611,-7.570465564727783,87.921142578125,-3.0059814453125,-73.8525390625
16.609999900000002,0.6009446382522583,-4.764461517333984,-8.202534675598145,-24.322509765625,-11.9476318359375,-68.206787109375
16.6299999,0.6416460275650024,-4.314351558685303,-8.98543930053711,-47.2259521484375,19.775390625,-61.4471435546875
16.6499999,0.8188169598579407,-3.952826976776123,-9.557653427124023,-52.06298828125,63.17138671875,-52.5054931640625
16.6699999,1.1300631761550903,-3.864241600036621,-9.727641105651855,-93.475341796875,70.37353515625,-40.5731201171875
16.6899999,1.5442601442337036,-3.928884983062744,-9.428366661071777,-52.520751953125,60.48583984375,-40.9698486328125
16.7099999,1.9943699836730957,-4.177882194519043,-8.87051773071289,14.4195556640625,35.4766845703125,-43.8690185546875
16.7299999,2.38462495803833,-4.371812343597412,-8.396465301513672,56.427001953125,16.54052734375,-43.1976318359375
16.749999900000002,2.676717519760132,-4.491522312164307,-8.259995460510254,31.646728515625,9.4757080078125,-37.3992919921875
16.769999900000002,2.849100112915039,-4.546588897705078,-8.468291282653809,-5.035400390625,21.9268798828125,-22.7813720703125
16.7899999,2.9017724990844727,-4.534617900848389,-8.844181060791016,-27.0843505859375,33.050537109375,-14.434814453125
16.8099999,2.896984100341797,-4.491522312164307,-9.339780807495117,3.8909912109375,31.463623046875,-15.3656005859375
16.8299999,2.873042106628418,-4.393360137939453,-9.62947940826416,18.85986328125,43.6248779296875,-6.9580078125
16.8499999,2.892195701599121,-4.271255970001221,-9.653421401977539,-1.1749267578125,51.2847900390625,4.364013671875
16.8699999,2.940079689025879,-4.07014274597168,-9.545681953430176,23.3001708984375,33.233642578125,5.18798828125
16.8899999,3.071760892868042,-4.005499362945557,-9.277531623840332,39.5355224609375,23.62060546875,19.4549560546875
16.9099999,3.227383852005005,-4.077325344085693,-8.939949035644531,45.501708984375,44.830322265625,25.787353515625
16.929999900000002,3.3901896476745605,-4.247313976287842,-8.695740699768066,84.9456787109375,59.38720703125,7.8582763671875
16.9499999,3.5242648124694824,-4.414907932281494,-8.312667846679688,88.19580078125,51.177978515625,-5.1422119140625
16.9699999,3.6320040225982666,-4.594472885131836,-7.922413349151611,66.131591796875,25.1922607421875,8.819580078125
16.9899999,3.708618402481079,-4.692635536193848,-7.682993412017822,96.435546875,19.0582275390625,11.383056640625
17.0099999,3.7612907886505127,-4.833893299102783,-7.486668586730957,100.189208984375,44.5556640625,3.662109375
17.0299999,3.8067808151245117,-4.912901878356934,-7.271190643310547,58.563232421875,58.0596923828125,-4.852294921875
17.0499999,3.8115692138671875,-5.070919036865234,-7.022193431854248,40.557861328125,41.68701171875,13.6260986328125
17.0699999,3.6990416049957275,-5.027823448181152,-6.378153324127197,-11.444091796875,27.801513671875,23.4527587890625
17.089999900000002,3.5482068061828613,-4.903325080871582,-5.688623428344727,-13.4124755859375,23.5443115234375,32.8216552734375
17.109999900000002,3.3854012489318848,-4.7836151123046875,-5.07570743560791,23.7579345703125,19.22607421875,57.2052001953125
17.1299999,3.227383852005005,-4.654327869415283,-4.575319290161133,34.4696044921875,22.7508544921875,74.981689453125
17.1499999,3.093308687210083,-4.651933670043945,-4.230554580688477,45.440673828125,27.4505615234375,80.0628662109375
17.1699999,2.9975404739379883,-4.896142482757568,-3.974374771118164,63.0340576171875,14.5416259765625,86.4410400390625
17.1899999,2.935291290283203,-5.185841083526611,-3.8714241981506348,89.996337890625,-3.6163330078125,85.5712890625
17.2099999,2.873042106628418,-5.6670756340026855,-3.864241600036621,51.0406494140625,-23.2696533203125,95.0469970703125
17.2299999,2.8443117141723633,-6.124367713928223,-4.165910720825195,60.943603515625,-9.1400146484375,103.8818359375
17.249999900000002,2.7317841053009033,-6.555324077606201,-4.438849925994873,38.26904296875,17.8680419921875,111.5875244140625
17.269999900000002,2.5498247146606445,-6.931213855743408,-4.575319290161133,36.80419921875,32.0281982421875,121.3226318359375
17.2899999,2.3127987384796143,-7.295132637023926,-4.323928356170654,58.6700439453125,13.8092041015625,123.382568359375
17.3099999,2.0638017654418945,-7.613561630249023,-3.9264907836914062,112.152099609375,-19.378662109375,102.935791015625
17.3299999,1.8315643072128296,-7.967903137207031,-3.5745432376861572,150.4364013671875,-29.1290283203125,82.1075439453125
17.3499999,1.7286136150360107,-8.372523307800293,-3.44765043258667,142.486572265625,-13.00048828125,78.18603515625
17.3699999,1.7166426181793213,-8.880094528198242,-3.5218706130981445,126.800537109375,3.0517578125,74.3865966796875
17.3899999,1.889025092124939,-9.461885452270508,-3.6104562282562256,130.859375,10.589599609375,43.4112548828125
17.409999900000003,2.1547815799713135,-10.000580787658691,-3.5242648124694824,150.08544921875,22.8729248046875,4.974365234375
17.429999900000002,2.432508945465088,-10.26394271850586,-3.2417490482330322,141.845703125,23.6968994140625,-15.56396484375
17.4499999,2.5953147411346436,-10.055646896362305,-2.8802247047424316,142.6849365234375,16.8609619140625,-25.4364013671875
17.4699999,2.557007312774658,-9.289502143859863,-2.5043349266052246,107.757568359375,11.199951171875,-28.656005859375
17.4899999,2.2625205516815186,-8.11634349822998,-2.212242364883423,75.6072998046875,25.848388671875,-13.3056640625
17.5099999,1.7405846118927002,-6.665457725524902,-1.8052281141281128,25.93994140625,46.295166015625,25.08544921875
17.5299999,1.1779472827911377,-5.530605792999268,-1.3120225667953491,-25.6195068359375,28.99169921875,90.1947021484375
17.5499999,0.5961562395095825,-4.903325080871582,-0.8092401623725891,62.744140625,10.7421875,131.3629150390625
17.5699999,0.2322375625371933,-5.092466831207275,-0.17956513166427612,44.86083984375,6.3018798828125,154.205322265625
17.589999900000002,0.1364694982767105,-5.990292549133301,-0.035913024097681046,2.6702880859375,-24.90234375,166.0308837890625
17.609999900000002,0.17956513166427612,-7.223306655883789,0.15322890877723694,-3.936767578125,-13.9923095703125,161.5447998046875
17.6299999,0.2106897532939911,-8.508993148803711,0.43095630407333374,-57.5408935546875,-11.962890625,149.3682861328125
17.6499999,0.0933738648891449,-9.533711433410645,0.7541735172271729,-2.9754638671875,-53.40576171875,125.6103515625
17.6699999,-0.08619125932455063,-10.24239444732666,1.2832920551300049,12.75634765625,-82.6873779296875,111.541748046875
17.6899999,-0.272938996553421,-10.81460952758789,1.4915876388549805,45.3033447265625,-84.4268798828125,95.7183837890625
17.7099999,-0.2825157940387726,-11.257535934448242,1.580173134803772,85.7696533203125,-64.2852783203125,62.5
17.7299999,-0.31124621629714966,-11.36048698425293,1.941697597503662,29.6173095703125,-57.67822265625,10.7574462890625
17.749999900000002,-0.5410895943641663,-11.291055679321289,2.3367409706115723,95.6268310546875,-100.4180908203125,-1.7242431640625
17.769999900000002,-1.1252747774124146,-10.769119262695312,2.9017724990844727,146.6827392578125,-143.524169921875,6.2408447265625
17.7899999,-2.0446481704711914,-9.914389610290527,3.0861260890960693,152.4658203125,-147.491455078125,5.18798828125
17.8099999,-3.0166940689086914,-8.892065048217773,2.7006595134735107,163.3758544921875,-128.7689208984375,28.564453125
17.8299999,-3.7612907886505127,-8.001421928405762,1.9057846069335938,170.135498046875,-92.3919677734375,80.1239013671875
17.8499999,-4.02465295791626,-7.594407558441162,1.235408067703247,176.727294921875,-47.3175048828125,112.7471923828125
17.8699999,-3.8379054069519043,-7.623138427734375,1.0845733880996704,219.1314697265625,-14.5721435546875,82.122802734375
17.8899999,-3.4955344200134277,-7.843404769897461,1.6711528301239014,295.2117919921875,-15.9149169921875,41.8243408203125
17.909999900000003,-3.2345664501190186,-7.948749542236328,2.6192567348480225,399.017333984375,-19.5159912109375,53.3447265625
17.929999900000002,-3.2369606494903564,-7.6566572189331055,3.531447410583496,435.516357421875,16.0675048828125,73.272705078125
17.9499999,-3.4093432426452637,-7.194576263427734,4.288015365600586,304.99267578125,61.676025390625,68.9239501953125
17.9699999,-3.4955344200134277,-7.115567684173584,4.7836151123046875,201.7364501953125,54.7332763671875,73.150634765625
17.9899999,-3.584120035171509,-7.127538681030273,5.295974254608154,287.0941162109375,53.7109375,49.3621826171875
18.0099999,-3.5242648124694824,-7.268796443939209,6.071695327758789,278.106689453125,83.2672119140625,26.7486572265625
18.0299999,-3.579331636428833,-6.993463039398193,7.01979923248291,207.4737548828125,115.2191162109375,4.8980712890625
18.0499999,-3.7205893993377686,-6.222530364990234,8.365341186523438,144.47021484375,114.9444580078125,-7.843017578125
18.0699999,-3.8977603912353516,-5.035006046295166,10.043676376342773,97.991943359375,47.91259765625,1.8768310546875
18.089999900000002,-4.106055736541748,-3.6511576175689697,11.736376762390137,211.1053466796875,0.9918212890625,7.171630859375
18.109999900000002,-4.357447147369385,-2.3487119674682617,12.933477401733398,269.3023681640625,-26.9622802734375,5.523681640625
18.1299999,-4.570530891418457,-1.1971008777618408,13.259089469909668,203.8421630859375,-32.958984375,0.1983642578125
18.1499999,-4.742913722991943,-0.20111294090747833,12.72996997833252,134.521484375,-18.5089111328125,-16.6015625
18.1699999,-4.8482584953308105,0.8547300100326538,11.714828491210938,133.9874267578125,12.939453125,-31.402587890625
18.1899999,-4.955997467041016,2.0374655723571777,10.778696060180664,112.701416015625,27.2979736328125,-33.782958984375
18.2099999,-5.102043628692627,3.1914708614349365,10.177751541137695,151.611328125,35.9344482421875,-1.40380859375
18.2299999,-5.348646640777588,4.000710964202881,9.72285270690918,257.415771484375,40.740966796875,31.73828125
18.249999900000002,-5.592854976654053,4.292803764343262,9.452308654785156,229.9041748046875,40.9088134765625,17.3492431640625
18.269999900000002,-5.762843608856201,4.120420932769775,9.08838939666748,95.9625244140625,22.39990234375,-33.905029296875
18.2899999,-5.868188381195068,3.9025487899780273,8.62630844116211,108.4136962890625,20.9197998046875,-63.7359619140625
18.3099999,-5.992686748504639,4.046200752258301,8.11634349822998,96.25244140625,6.6986083984375,-63.323974609375
18.3299999,-6.143521785736084,4.632780075073242,7.429207801818848,76.0345458984375,-2.3040771484375,-45.6695556640625
18.3499999,-6.3063273429870605,5.224148273468018,6.67982292175293,57.342529296875,16.6015625,-15.9149169921875
18.3699999,-6.251260757446289,5.413290023803711,5.9974751472473145,42.877197265625,36.7431640625,-5.9051513671875
18.3899999,-6.030993938446045,5.03021764755249,5.623979568481445,46.0968017578125,47.05810546875,-40.0390625
18.409999900000003,-5.789179801940918,4.0964789390563965,5.7987565994262695,-14.8162841796875,35.0341796875,-67.718505859375
18.429999900000002,-5.832275390625,3.0166940689086914,6.325480937957764,-31.31103515625,15.2587890625,-82.1533203125
18.4499999,-6.246472358703613,2.233790159225464,6.763619899749756,4.730224609375,-10.3912353515625,-108.123779296875
18.4699999,-7.122750282287598,1.9369091987609863,6.761225700378418,26.5655517578125,-6.34765625,-132.659912109375
18.4899999,-8.015787124633789,2.1811177730560303,6.339846134185791,-0.640869140625,22.94921875,-140.167236328125
18.5099999,-8.765172004699707,2.9496564865112305,5.592854976654053,-10.07080078125,42.3736572265625,-145.5230712890625
18.5299999,-9.059659004211426,3.8570590019226074,4.991910457611084,1.5869140625,51.8646240234375,-125.213623046875
18.5499999,-8.880094528198242,4.525041103363037,5.054159641265869,-3.0059814453125,78.0792236328125,-85.3729248046875
18.5699999,-8.360552787780762,4.637568473815918,5.679046630859375,22.4609375,71.96044921875,-61.3250732421875
18.589999900000002,-7.754819393157959,4.165910720825195,6.756437301635742,46.4019775390625,19.622802734375,-67.81005859375
18.609999900000002,-7.177816867828369,3.4572272300720215,7.7883381843566895,44.00634765625,-41.19873046875,-77.880859375
18.6299999,-6.761225700378418,3.1507694721221924,8.470685958862305,6.3934326171875,-72.8912353515625,-72.7691650390625
18.6499999,-6.517016887664795,3.2082302570343018,8.851364135742188,7.5836181640625,-70.3887939453125,-14.9688720703125
18.6699999,-6.67982292175293,3.5051112174987793,8.916007041931152,57.525634765625,-94.90966796875,57.1441650390625
18.6899999,-7.4770917892456055,3.4332852363586426,8.382100105285645,88.80615234375,-145.4315185546875,84.320068359375
18.7099999,-8.537723541259766,2.715024709701538,6.818686485290527,148.1781005859375,-127.197265625,68.6492919921875
18.7299999,-9.651026725769043,1.843535304069519,4.6040496826171875,87.1124267578125,-5.4473876953125,1.2054443359375
18.749999900000002,-10.050858497619629,1.3335703611373901,2.8419175148010254,-103.9276123046875,85.51025390625,-41.6259765625
18.769999900000002,-9.552865028381348,1.482010841369629,2.4899697303771973,-104.5379638671875,80.841064453125,-9.0179443359375
18.7899999,-8.47547435760498,2.070984363555908,3.8139634132385254,24.9481201171875,17.7764892578125,39.36767578125
18.8099999,-7.206547260284424,2.497152328491211,5.861005783081055,61.676025390625,-25.1617431640625,60.7452392578125
18.8299999,-6.2201361656188965,2.561795711517334,7.575253963470459,22.64404296875,-19.7601318359375,28.106689453125
18.8499999,-5.765237808227539,2.3942017555236816,8.293514251708984,-2.899169921875,-23.468017578125,-13.4124755859375
18.8699999,-5.791574001312256,2.346317768096924,8.08282470703125,5.1422119140625,-33.0963134765625,-22.2320556640625
18.8899999,-6.22731876373291,2.7533318996429443,7.357381820678711,-3.0670166015625,-18.524169921875,-15.13671875
18.909999900000003,-6.742072105407715,3.292027235031128,6.421248912811279,-6.9427490234375,8.3160400390625,7.75146484375
18.929999900000002,-7.1251444816589355,3.7445313930511475,5.7125654220581055,-11.8255615234375,19.9432373046875,21.148681640625
18.9499999,-7.252037048339844,3.797203779220581,5.473145008087158,-10.589599609375,16.387939453125,14.4195556640625
18.9699999,-7.141903877258301,3.469198226928711,5.671864032745361,-0.3662109375,9.09423828125,4.0130615234375
18.9899999,-6.92881965637207,3.023876667022705,6.0621185302734375,-0.5340576171875,2.7923583984375,-4.4708251953125
19.0099999,-6.742072105407715,2.604891538619995,6.433219909667969,-8.4991455078125,0,-1.15966796875
19.0299999,-6.6127848625183105,2.3942017555236816,6.660669326782227,-1.1749267578125,2.7618408203125,1.0223388671875
19.0499999,-6.593631267547607,2.315192937850952,6.746860504150391,7.8887939453125,2.105712890625,-2.7008056640625
19.0699999,-6.603208065032959,2.296039342880249,6.746860504150391,22.76611328125,2.716064453125,-6.805419921875
19.089999900000002,-6.672640323638916,2.3582887649536133,6.694188117980957,31.646728515625,2.5177001953125,-16.9525146484375
19.109999900000002,-6.737283706665039,2.5091233253479004,6.572083473205566,23.5443115234375,-0.244140625,-22.0794677734375
19.1299999,-6.813898086547852,2.7748796939849854,6.449979305267334,7.1868896484375,1.251220703125,-16.937255859375
19.1499999,-6.856993675231934,3.1244332790374756,6.354211330413818,5.401611328125,4.5318603515625,-7.354736328125
19.1699999,-6.885724067687988,3.426102638244629,6.299144744873047,10.955810546875,2.0904541015625,1.434326171875
19.1899999,-6.89530086517334,3.5697548389434814,6.282385349273682,18.0816650390625,0.48828125,3.0670166015625
19.2099999,-6.900089263916016,3.5721490383148193,6.2632317543029785,16.1895751953125,2.99072265625,-4.4708251953125
19.2299999,-6.912060260772705,3.49314022064209,6.2201361656188965,6.805419921875,5.1727294921875,-8.7127685546875
19.249999900000002,-6.909666061401367,3.4117374420166016,6.174646377563477,-1.2359619140625,4.4097900390625,-2.5787353515625
19.269999900000002,-6.890512466430664,3.359065055847168,6.165069580078125,-3.5552978515625,4.2572021484375,5.06591796875
19.2899999,-6.864176273345947,3.308786630630493,6.196194171905518,-5.37109375,3.1585693359375,5.6610107421875
19.3099999,-6.835445880889893,3.222595453262329,6.2416839599609375,-3.692626953125,1.0528564453125,3.570556640625
19.3299999,-6.828263282775879,3.1316158771514893,6.27280855178833,-4.058837890625,-0.18310546875,1.8463134765625
19.3499999,-6.852205276489258,3.0765492916107178,6.275202751159668,-1.9989013671875,2.0294189453125,-0.030517578125
19.3699999,-6.8809356689453125,3.069366693496704,6.251260757446289,0.457763671875,4.0130615234375,0.2288818359375
19.3899999,-6.897695064544678,3.090914487838745,6.234501361846924,3.3416748046875,6.011962890625,3.173828125
19.409999900000003,-6.873753070831299,3.112462282180786,6.2632317543029785,-0.1068115234375,4.0740966796875,4.57763671875
19.429999900000002,-6.818686485290527,3.1220390796661377,6.332663536071777,0.4730224609375,0.762939453125,3.8299560546875
19.4499999,-6.739677906036377,3.141192674636841,6.433219909667969,-0.640869140625,-3.4027099609375,3.6163330078125
19.4699999,-6.694188117980957,3.1747114658355713,6.5050458908081055,-1.708984375,-6.9580078125,6.2408447265625
19.4899999,-6.701370716094971,3.1866824626922607,6.497863292694092,-5.218505859375,-10.3912353515625,8.5906982421875
19.5099999,-6.775590896606445,3.1890766620635986,6.392518520355225,-1.3885498046875,-6.4697265625,4.150390625
19.5299999,-6.8809356689453125,3.162740468978882,6.222530364990234,1.0833740234375,-0.8544921875,-1.9683837890625
19.5499999,-6.952761650085449,3.1483752727508545,6.090848922729492,-3.631591796875,3.9215087890625,-2.38037109375
19.5699999,-6.957550048828125,3.157952070236206,6.076483726501465,-3.3111572265625,5.096435546875,2.0294189453125
19.589999900000002,-6.89530086517334,3.1651346683502197,6.167463779449463,-0.18310546875,-1.03759765625,5.4473876953125
19.609999900000002,-6.818686485290527,3.141192674636841,6.3063273429870605,3.5247802734375,-4.425048828125,3.7384033203125
19.6299999,-6.7708024978637695,3.112462282180786,6.385335922241211,0.9002685546875,-3.631591796875,-0.2593994140625
19.6499999,-6.766014099121094,3.095702886581421,6.380547523498535,-1.953125,-0.335693359375,-0.396728515625
19.6699999,-6.785167694091797,3.1196448802948,6.327875137329102,-3.35693359375,1.373291015625,1.5869140625
19.6899999,-6.789956092834473,3.155557870864868,6.301538944244385,-1.9683837890625,1.983642578125,2.9296875
19.7099999,-6.785167694091797,3.1938650608062744,6.323086738586426,-0.5035400390625,0.7476806640625,1.40380859375
19.7299999,-6.761225700378418,3.2082302570343018,6.342240333557129,3.47900390625,-2.1514892578125,0.9002685546875
19.749999900000002,-6.7492547035217285,3.2321722507476807,6.366182327270508,-0.5340576171875,-1.861572265625,1.1444091796875
19.769999900000002,-6.742072105407715,3.2393548488616943,6.358999729156494,-3.4027099609375,0.6256103515625,2.685546875
19.7899999,-6.744466304779053,3.2369606494903564,6.339846134185791,-1.190185546875,0.54931640625,2.4566650390625
19.8099999,-6.744466304779053,3.2154128551483154,6.335057735443115,0.9307861328125,0.274658203125,0.0762939453125
19.8299999,-6.739677906036377,3.203441858291626,6.347028732299805,0.30517578125,0.518798828125,-1.1138916015625
19.8499999,-6.734889507293701,3.184288263320923,6.358999729156494,-3.0364990234375,-0.213623046875,1.3275146484375
19.8699999,-6.730101108551025,3.162740468978882,6.3733649253845215,-3.9215087890625,-0.030517578125,2.5482177734375
19.8899999,-6.722918510437012,3.1459810733795166,6.3949127197265625,-3.204345703125,0.67138671875,-0.9765625
19.909999900000003,-6.710947513580322,3.1292216777801514,6.4164605140686035,0.244140625,0.6256103515625,-2.6702880859375
19.929999900000002,-6.7061591148376465,3.1316158771514893,6.430825710296631,4.0130615234375,0.0457763671875,-0.8392333984375
19.9499999,-6.7061591148376465,3.1459810733795166,6.418854713439941,4.2877197265625,-0.823974609375,0.030517578125
19.9699999,-6.718130111694336,3.177105665206909,6.387730121612549,1.5411376953125,-0.2899169921875,-2.4871826171875
19.9899999,-6.730101108551025,3.2154128551483154,6.349422931671143,-0.4119873046875,0.762939453125,-3.0517578125
20.0099999,-6.744466304779053,3.251325845718384,6.323086738586426,0.0152587890625,0.396728515625,0.5950927734375
20.0299999,-6.751648902893066,3.2752678394317627,6.3063273429870605,-0.1678466796875,-0.5645751953125,2.7313232421875
20.0499999,-6.754043102264404,3.270479440689087,6.315904140472412,-1.03759765625,1.03759765625,1.2664794921875
20.0699999,-6.751648902893066,3.2321722507476807,6.325480937957764,-0.2593994140625,1.800537109375,-0.5645751953125
20.089999900000002,-6.744466304779053,3.1914708614349365,6.347028732299805,1.52587890625,0.9765625,-1.03759765625
