# Time (seconds),Accel_X,Accel_Y,Accel_Z,Gyro_X,Gyro_Y,Gyro_Z
0.0099999,-5.796362400054932,0.17477671802043915,8.26239013671875,3.448486328125,21.3165283203125,-40.2374267578125
0.029999900000000003,-5.9304375648498535,0.2513911724090576,8.35097599029541,6.805419921875,17.5933837890625,-26.1077880859375
0.0499999,-6.071695327758789,0.42616790533065796,8.47547435760498,-3.204345703125,25.848388671875,-37.567138671875
0.0699999,-6.069301128387451,0.4165911078453064,8.628703117370605,-0.1220703125,11.16943359375,-51.5899658203125
0.08999990000000001,-5.959167957305908,0.3423708379268646,8.87051773071289,31.982421875,1.5106201171875,-54.13818359375
0.10999990000000001,-5.772420406341553,0.3232172429561615,8.853757858276367,66.2078857421875,-20.7366943359375,-64.1021728515625
0.1299999,-5.525817394256592,0.17477671802043915,8.779537200927734,72.906494140625,-29.8614501953125,-74.371337890625
0.14999990000000002,-5.365406036376953,-0.011971008032560349,8.520963668823242,98.2666015625,-34.7900390625,-89.90478515625
0.1699999,-5.257667064666748,-0.15562310814857483,8.190564155578613,111.328125,-44.189453125,-62.80517578125
0.1899999,-5.219359874725342,-0.3064578175544739,7.965508937835693,91.85791015625,-37.445068359375,-25.7110595703125
0.20999990000000002,-5.240907669067383,-0.3064578175544739,7.8960771560668945,82.7484130859375,-31.73828125,-9.9029541015625
0.2299999,-5.281609058380127,-0.3519476354122162,7.982268333435059,49.13330078125,-41.595458984375,-11.2762451171875
0.2499999,-5.2696380615234375,-0.2944868206977844,8.305485725402832,0.579833984375,-46.173095703125,-5.6304931640625
0.2699999,-5.2480902671813965,-0.3064578175544739,8.65743350982666,-2.471923828125,-49.5147705078125,-0.4119873046875
0.28999990000000003,-5.166687488555908,-0.21787235140800476,8.944737434387207,-12.26806640625,-53.436279296875,-3.72314453125
0.3099999,-5.056553840637207,-0.08619125932455063,9.133879661560059,-13.9923095703125,-45.6695556640625,-18.2647705078125
0.3299999,-4.920084476470947,0.023942016065120697,9.210494041442871,16.021728515625,-43.3349609375,-34.7747802734375
0.34999990000000003,-4.790797710418701,0.1412578970193863,9.121908187866211,13.885498046875,-51.08642578125,-29.541015625
0.3699999,-4.6734819412231445,0.24181437492370605,8.999804496765137,-1.9073486328125,-40.3900146484375,-30.70068359375
0.3899999,-4.577713489532471,0.2968810200691223,8.83699893951416,-7.171630859375,-31.890869140625,-32.2265625
0.40999990000000003,-4.527435302734375,0.3280056416988373,8.664615631103516,-2.5482177734375,-36.590576171875,-27.2674560546875
0.4299999,-4.448426723480225,0.3232172429561615,8.655038833618164,4.57763671875,-27.3284912109375,-19.927978515625
0.4499999,-4.410119533538818,0.26096799969673157,8.671798706054688,10.1318359375,-16.693115234375,-17.333984375
0.4699999,-4.383783340454102,0.19632454216480255,8.69334602355957,17.303466796875,-16.3116455078125,-19.8211669921875
0.4899999,-4.381389141082764,0.15562310814857483,8.688557624816895,8.880615234375,-10.467529296875,-17.059326171875
0.5099999,-4.395754337310791,0.15322890877723694,8.621520042419434,-12.451171875,-7.5225830078125,-9.4146728515625
0.5299999,-4.405331134796143,0.19871874153614044,8.513781547546387,-14.6484375,-8.60595703125,-9.2620849609375
0.5499999,-4.383783340454102,0.20111294090747833,8.559270858764648,-1.9683837890625,1.4495849609375,-7.62939453125
0.5699999,-4.359841346740723,0.16519992053508759,8.635885238647461,3.8604736328125,-2.2125244140625,-7.720947265625
0.5899998999999999,-4.3406877517700195,0.1173158809542656,8.786720275878906,3.7078857421875,-8.636474609375,-7.537841796875
0.6099998999999999,-4.3406877517700195,0.047884032130241394,8.927978515625,0.9307861328125,-6.9122314453125,-4.5623779296875
0.6299999,-4.352658748626709,-0.0071826050989329815,8.999804496765137,0.2288818359375,-2.777099609375,-8.2550048828125
0.6499999,-4.352658748626709,-0.07182604819536209,9.033323287963867,-3.9825439453125,-3.11279296875,-11.4593505859375
0.6699999,-4.311957359313965,-0.13407529890537262,9.095572471618652,-4.7454833984375,-6.40869140625,-12.0391845703125
0.6899999,-4.240131378173828,-0.23942017555236816,9.191340446472168,3.84521484375,-10.406494140625,-14.0533447265625
0.7099999,-4.1611223220825195,-0.3256114423274994,9.287108421325684,22.5372314453125,-14.923095703125,-23.0712890625
0.7299998999999999,-4.086902141571045,-0.40940847992897034,9.313444137573242,28.8543701171875,-18.707275390625,-29.327392578125
0.7499998999999999,-4.027047157287598,-0.47405192255973816,9.272743225097656,14.9383544921875,-15.228271484375,-26.3824462890625
0.7699999,-3.9695863723754883,-0.4836287498474121,9.138668060302734,6.4544677734375,-11.7645263671875,-24.10888671875
0.7899999,-3.8522706031799316,-0.4572925269603729,9.093177795410156,11.505126953125,-9.307861328125,-26.885986328125
0.8099999,-3.734954595565796,-0.38067805767059326,9.042900085449219,28.9459228515625,-15.289306640625,-32.3944091796875
0.8299999,-3.5913026332855225,-0.26336219906806946,9.030928611755371,37.5213623046875,-21.026611328125,-32.958984375
0.8499998999999999,-3.466804027557373,-0.14604631066322327,9.002198219299316,21.392822265625,-13.2598876953125,-27.3284912109375
0.8699998999999999,-3.3638534545898438,-0.038307227194309235,8.93037223815918,7.110595703125,-7.62939453125,-20.6146240234375
0.8899999,-3.2632968425750732,0.035913024097681046,8.901641845703125,5.4473876953125,-6.6070556640625,-18.7530517578125
0.9099999,-3.177105665206909,0.06703764945268631,8.949525833129883,7.9345703125,-6.5765380859375,-17.27294921875
0.9299999,-3.1268274784088135,0.07182604819536209,9.040505409240723,8.85009765625,-7.7972412109375,-15.5792236328125
0.9499999,-3.1052796840667725,0.0454898327589035,9.198522567749023,6.6986083984375,-6.9122314453125,-14.6026611328125
0.9699998999999999,-3.136404275894165,-0.016759412363171577,9.30386734008789,13.1988525390625,-10.3302001953125,-16.8609619140625
0.9899998999999999,-3.181894063949585,-0.05027823522686958,9.368511199951172,15.350341796875,-12.6495361328125,-20.782470703125
1.0099999,-3.248931646347046,-0.019153613597154617,9.32541561126709,14.556884765625,-11.5203857421875,-20.5535888671875
1.0299999,-3.31118106842041,0.0933738648891449,9.174580574035645,14.6942138671875,-9.979248046875,-17.3492431640625
1.0499999,-3.3518824577331543,0.26096799969673157,8.992621421813965,11.3372802734375,-6.7138671875,-14.129638671875
1.0699999,-3.354276657104492,0.4213795065879822,8.848969459533691,11.962890625,-5.2947998046875,-12.847900390625
1.0899999,-3.339911460876465,0.5315127968788147,8.755595207214355,16.11328125,-7.415771484375,-13.1988525390625
1.1099999,-3.3231520652770996,0.5889736413955688,8.71728801727295,18.280029296875,-7.6446533203125,-11.8560791015625
1.1299999,-3.318363666534424,0.5937620401382446,8.743624687194824,13.427734375,-4.8980712890625,-8.819580078125
1.1499999,-3.332728862762451,0.5674257874488831,8.810662269592285,9.94873046875,-3.9520263671875,-8.1787109375
1.1699998999999999,-3.3494882583618164,0.5410895943641663,8.918401718139648,11.0321044921875,-5.7373046875,-9.033203125
1.1899998999999999,-3.3518824577331543,0.5219359993934631,9.078812599182129,14.0533447265625,-6.2713623046875,-8.6822509765625
1.2099999,-3.361459255218506,0.5315127968788147,9.21288776397705,15.68603515625,-6.6680908203125,-7.080078125
1.2299999,-3.3734302520751953,0.569819986820221,9.313444137573242,14.16015625,-6.9427490234375,-5.0048828125
1.2499999,-3.3901896476745605,0.5841852426528931,9.366117477416992,10.8489990234375,-5.889892578125,-3.692626953125
1.2699999,-3.406949043273926,0.608127236366272,9.368511199951172,10.498046875,-6.134033203125,-4.21142578125
1.2899999,-3.4117374420166016,0.6177040338516235,9.311050415039062,13.702392578125,-8.0108642578125,-3.6773681640625
1.3099999,-3.399766445159912,0.6488286852836609,9.208099365234375,17.547607421875,-7.110595703125,-1.3885498046875
1.3299999,-3.375824451446533,0.6871358752250671,9.093177795410156,19.8211669921875,-4.4097900390625,1.1749267578125
1.3499999,-3.359065055847168,0.6727706789970398,8.983044624328613,19.134521484375,-3.7841796875,3.72314453125
1.3699999,-3.339911460876465,0.6368576288223267,8.9064302444458,16.2811279296875,-2.74658203125,3.9825439453125
1.3899999,-3.313575267791748,0.5530605912208557,8.904036521911621,11.810302734375,0.7171630859375,5.218505859375
1.4099999,-3.270479440689087,0.49559974670410156,8.925583839416504,13.12255859375,1.983642578125,6.0882568359375
1.4299998999999999,-3.1890766620635986,0.49559974670410156,8.98543930053711,14.4195556640625,0.9613037109375,6.0577392578125
1.4499999,-3.0813376903533936,0.5817909836769104,9.035717010498047,11.962890625,0.3509521484375,7.4615478515625
1.4699999,-2.9688100814819336,0.7445967197418213,9.045293807983398,8.11767578125,1.7547607421875,10.6658935546875
1.4899999,-2.8658595085144043,0.9624691009521484,9.05487060546875,3.0517578125,6.16455078125,14.4195556640625
1.5099999,-2.7772738933563232,1.1971008777618408,9.133879661560059,-2.0599365234375,11.41357421875,15.8843994140625
1.5299999,-2.691082715988159,1.434126853942871,9.301473617553711,1.3885498046875,9.490966796875,13.85498046875
1.5499999,-2.5905263423919678,1.644816517829895,9.588777542114258,7.232666015625,4.5623779296875,11.932373046875
1.5699999,-2.518700122833252,1.8100165128707886,9.830592155456543,8.5601806640625,1.1444091796875,8.9874267578125
1.5899999,-2.4684219360351562,1.941697597503662,10.014945983886719,0.762939453125,6.744384765625,6.2103271484375
1.6099999,-2.4396915435791016,2.0470423698425293,10.11789608001709,-11.810302734375,13.2904052734375,7.568359375
1.6299999,-2.477998733520508,2.0685901641845703,10.125079154968262,-8.6212158203125,7.4310302734375,14.5721435546875
1.6499999,-2.4899697303771973,2.03507137298584,10.160991668701172,4.0435791015625,-1.6632080078125,15.5792236328125
1.6699999,-2.5091233253479004,1.9608511924743652,10.20648193359375,23.7579345703125,-1.312255859375,-10.528564453125
1.6899998999999999,-2.540247917175293,1.965639591217041,10.17296314239502,60.5316162109375,-6.53076171875,-49.4537353515625
1.7099999,-2.58813214302063,2.1380221843719482,9.940725326538086,68.90869140625,-18.2037353515625,-42.694091796875
1.7299999,-2.674323320388794,2.4636335372924805,9.579200744628906,41.1834716796875,-7.14111328125,-8.819580078125
1.7499999,-2.7676970958709717,2.851494312286377,9.160215377807617,10.0250244140625,7.0648193359375,19.0887451171875
1.7699999,-2.8131868839263916,3.1675288677215576,8.96149730682373,-18.00537109375,3.936767578125,45.4559326171875
1.7899999,-2.8131868839263916,3.332728862762451,9.030928611755371,-15.7318115234375,-4.8370361328125,53.1005859375
1.8099999,-2.779668092727661,3.2800562381744385,9.30386734008789,-12.908935546875,-6.65283203125,53.8787841796875
1.8299999,-2.719813108444214,3.1747114658355713,9.646238327026367,-11.8865966796875,8.30078125,26.9775390625
1.8499999,-2.6839001178741455,2.959233283996582,9.871294021606445,-12.2833251953125,17.4560546875,17.6849365234375
1.8699999,-2.6455929279327393,2.7222073078155518,10.019734382629395,-14.2059326171875,13.85498046875,27.191162109375
1.8899999,-2.607285737991333,2.5282769203186035,10.08198356628418,-9.246826171875,2.166748046875,23.193359375
1.9099999,-2.6192567348480225,2.4133553504943848,9.962273597717285,-1.7852783203125,-16.143798828125,15.8233642578125
1.9299998999999999,-2.6671407222747803,2.382230758666992,9.694122314453125,-1.617431640625,-21.4996337890625,16.357421875
1.9499999,-2.738966703414917,2.497152328491211,9.299078941345215,0.335693359375,-12.2222900390625,12.7105712890625
1.9699999,-2.782062292098999,2.6671407222747803,8.966285705566406,-3.143310546875,-1.7242431640625,11.2762451171875
1.9899999,-2.7772738933563232,2.82515811920166,8.820239067077637,7.4310302734375,-3.326416015625,11.5966796875
2.0099999,-2.784456491470337,2.913743495941162,8.769960403442383,30.364990234375,-16.9525146484375,11.2152099609375
2.0299999,-2.801215887069702,2.9089550971984863,8.729259490966797,25.970458984375,-21.78955078125,13.0157470703125
2.0499999,-2.87064790725708,2.8634653091430664,8.607154846191406,8.8043212890625,-4.1656494140625,11.4593505859375
2.0699999,-2.9161376953125,2.7748796939849854,8.51138687133789,-2.3345947265625,21.54541015625,5.218505859375
2.0899999,-2.9161376953125,2.7269957065582275,8.580819129943848,6.04248046875,32.3638916015625,-11.04736328125
2.1099999,-2.8610711097717285,2.695871114730835,8.846575736999512,22.857666015625,17.4102783203125,-15.4571533203125
2.1299999,-2.8203697204589844,2.669534921646118,9.114726066589355,12.4664306640625,-6.4849853515625,7.4462890625
2.1499999,-2.7916390895843506,2.6144683361053467,9.282320022583008,-12.6190185546875,-14.9383544921875,18.0511474609375
2.1699999,-2.760514497756958,2.5330653190612793,9.466673851013184,-27.16064453125,-9.09423828125,11.8408203125
2.1899999,-2.7006595134735107,2.5091233253479004,9.588777542114258,-9.2620849609375,-22.369384765625,1.2359619140625
2.2099999,-2.626439332962036,2.5115175247192383,9.627084732055664,6.3934326171875,-39.337158203125,-5.3863525390625
2.2299999,-2.537853717803955,2.626439332962036,9.5624418258667,5.462646484375,-22.064208984375,-4.2266845703125
2.2499999,-2.5330653190612793,2.715024709701538,9.327810287475586,-2.5634765625,0,15.19775390625
2.2699999,-2.497152328491211,2.734178304672241,9.100360870361328,-9.7808837890625,-4.241943359375,24.810791015625
2.2899999,-2.4875755310058594,2.652775526046753,9.05487060546875,-2.5482177734375,-1.52587890625,17.822265625
2.3099999,-2.4444799423217773,2.499546527862549,9.097966194152832,20.751953125,0.152587890625,6.439208984375
2.3299999,-2.367865562438965,2.4444799423217773,9.124302864074707,29.754638671875,-7.568359375,-3.8299560546875
2.3499999,-2.2912509441375732,2.4875755310058594,9.066842079162598,16.1285400390625,-8.3770751953125,3.631591796875
2.3699999,-2.1930887699127197,2.7485435009002686,8.975862503051758,5.7373046875,-10.8489990234375,20.7061767578125
2.3899999,-2.0829553604125977,3.0837318897247314,8.973467826843262,2.9296875,-18.6309814453125,41.6107177734375
2.4099999,-1.965639591217041,3.3710360527038574,9.042900085449219,12.3748779296875,-38.482666015625,58.77685546875
2.4299999,-1.867477297782898,3.485957622528076,9.121908187866211,24.017333984375,-53.8330078125,58.685302734375
2.4499999,-1.7812861204147339,3.3686418533325195,9.129091262817383,19.7601318359375,-47.1343994140625,44.891357421875
2.4699999,-1.7166426181793213,3.1651346683502197,9.050082206726074,4.669189453125,-30.3955078125,31.8145751953125
2.4899999,-1.680729627609253,3.004723072052002,8.89445972442627,-2.01416015625,-20.4925537109375,27.8778076171875
2.5099999,-1.6879122257232666,2.942473888397217,8.722076416015625,-3.4027099609375,-14.739990234375,29.3121337890625
2.5299999,-1.7357962131500244,2.9735984802246094,8.667010307312012,-21.087646484375,0.946044921875,30.8837890625
2.5499999,-1.7956513166427612,2.9233202934265137,8.765172004699707,-35.552978515625,7.1563720703125,27.2216796875
2.5699999,-1.8315643072128296,2.760514497756958,9.033323287963867,-19.4091796875,-3.1280517578125,9.5977783203125
2.5899999,-1.8387469053268433,2.58813214302063,9.299078941345215,14.1448974609375,-12.26806640625,-11.29150390625
2.6099999,-1.7836803197860718,2.473210334777832,9.512163162231445,16.448974609375,-8.453369140625,-15.9454345703125
2.6299999,-1.702277421951294,2.5019407272338867,9.516951560974121,6.256103515625,-0.823974609375,-13.3514404296875
2.6499999,-1.6041151285171509,2.6168625354766846,9.399636268615723,-4.058837890625,2.0751953125,-5.43212890625
2.6699999,-1.5394717454910278,2.698265314102173,9.241618156433105,-14.4805908203125,5.5694580078125,5.523681640625
2.6899999,-1.5394717454910278,2.691082715988159,9.07641887664795,-23.0255126953125,15.80810546875,4.8675537109375
2.7099999,-1.5753847360610962,2.609679937362671,9.07641887664795,-20.4620361328125,31.0516357421875,-10.25390625
2.7299999,-1.5729905366897583,2.4803929328918457,9.229647636413574,-0.2899169921875,43.51806640625,-32.8369140625
2.7499999,-1.5107412338256836,2.363077163696289,9.636661529541016,32.5927734375,68.2525634765625,-49.8046875
2.7699999,-1.3862427473068237,2.3247697353363037,10.093954086303711,32.3486328125,61.248779296875,-38.787841796875
2.7899999,-1.3024457693099976,2.22660756111145,10.376470565795898,0.823974609375,21.6827392578125,-13.580322265625
2.8099999,-1.316810965538025,2.1499931812286377,10.36449909210205,-16.9219970703125,3.875732421875,-0.5340576171875
2.8299999,-1.4437036514282227,2.0254945755004883,10.007762908935547,-28.289794921875,6.65283203125,2.532958984375
2.8499999,-1.6208745241165161,1.8387469053268433,9.62947940826416,-36.6058349609375,15.3350830078125,1.46484375
2.8699999,-1.7884687185287476,1.7166426181793213,9.433155059814453,-9.735107421875,16.29638671875,-6.9580078125
2.8899999,-1.8962076902389526,1.644816517829895,9.488221168518066,17.1356201171875,-3.875732421875,-11.9781494140625
2.9099999,-1.944091796875,1.6304513216018677,9.727641105651855,16.5252685546875,-17.1051025390625,-15.9759521484375
2.9299999,-1.9273324012756348,1.742978811264038,9.880870819091797,19.9737548828125,-14.3280029296875,-21.759033203125
2.9499999,-1.8770540952682495,1.8602946996688843,9.859322547912598,19.6533203125,-7.110595703125,-23.1475830078125
2.9699999,-1.8076223134994507,2.056619167327881,9.651026725769043,23.0560302734375,-2.62451171875,-22.9949951171875
2.9899999,-1.7310078144073486,2.188300371170044,9.337387084960938,9.613037109375,-7.26318359375,-14.0228271484375
3.0099999,-1.659181833267212,2.2888567447662354,9.093177795410156,-21.8963623046875,-4.547119140625,-1.1138916015625
3.0299999,-1.6184803247451782,2.248155355453491,8.863334655761719,-20.01953125,-2.0294189453125,1.556396484375
3.0499999,-1.601720929145813,2.1499931812286377,8.774748802185059,-16.2506103515625,7.4005126953125,-3.326416015625
3.0699999,-1.6328455209732056,2.0398597717285156,8.731653213500977,-25.299072265625,19.9432373046875,-10.4522705078125
3.0899999,-1.7166426181793213,1.8914192914962769,8.729259490966797,-56.4422607421875,19.6685791015625,-1.9378662109375
3.1099999,-1.800439715385437,1.7741034030914307,8.875306129455566,-99.7161865234375,24.7955322265625,7.50732421875
3.1299999,-1.8818424940109253,1.5466543436050415,9.208099365234375,-111.9842529296875,22.39990234375,15.3656005859375
3.1499999,-1.920149803161621,1.259350061416626,9.655815124511719,-90.7745361328125,-4.8828125,17.02880859375
3.1699999,-1.9321208000183105,0.9050082564353943,10.120290756225586,-51.26953125,-28.4423828125,14.801025390625
3.1899999,-1.900996208190918,0.5770025849342346,10.376470565795898,-25.1007080078125,-39.703369140625,7.2479248046875
3.2099999,-1.8531121015548706,0.2801215946674347,10.251971244812012,-5.462646484375,-31.25,-11.77978515625
3.2299999,-1.7932571172714233,0.20111294090747833,9.988609313964844,22.491455078125,-3.204345703125,-31.463623046875
3.2499999,-1.742978811264038,0.2346317619085312,9.509769439697266,23.4527587890625,-8.148193359375,-23.101806640625
3.2699999,-1.7334020137786865,0.4189853072166443,9.124302864074707,19.744873046875,-19.0277099609375,-19.2108154296875
3.2899999,-1.7262194156646729,0.667982280254364,8.980650901794434,17.333984375,-4.5166015625,-24.2767333984375
3.3099999,-1.7501614093780518,0.8140285611152649,8.990227699279785,26.2298583984375,-0.1068115234375,-28.106689453125
3.3299999000000002,-1.778891921043396,0.993593692779541,9.074024200439453,41.6717529296875,-9.9639892578125,-31.9671630859375
3.3499999,-1.8363527059555054,1.194706678390503,9.10993766784668,30.6549072265625,-1.3427734375,-28.472900390625
3.3699999,-1.9488801956176758,1.4221558570861816,9.014169692993164,5.523681640625,28.076171875,-20.5535888671875
3.3899999,-2.051830768585205,1.6065093278884888,9.083600997924805,-3.509521484375,60.4705810546875,-10.31494140625
3.4099999,-2.212242364883423,1.6112977266311646,9.181763648986816,-6.7291259765625,44.6319580078125,-3.7078857421875
3.4299999,-2.315192937850952,1.6208745241165161,9.526528358459473,-31.43310546875,41.412353515625,-4.150390625
3.4499999,-2.360682964324951,1.6687586307525635,9.907206535339355,-19.989013671875,65.5670166015625,-0.213623046875
3.4699999,-2.4013843536376953,1.7166426181793213,9.916783332824707,40.6951904296875,35.6597900390625,7.4310302734375
3.4899999,-2.451662540435791,1.7717092037200928,9.897629737854004,15.2435302734375,31.25,9.521484375
3.5099999,-2.52109432220459,1.6855180263519287,9.77791976928711,-25.8026123046875,64.910888671875,2.8839111328125
3.5299999,-2.9903578758239746,1.525106430053711,9.44752025604248,-12.20703125,47.393798828125,-16.357421875
3.5499999,-3.1699230670928955,1.2761094570159912,9.327810287475586,-30.059814453125,60.5010986328125,-4.4403076171875
3.5699999,-3.603273630142212,1.115697979927063,9.253589630126953,-14.892578125,74.798583984375,8.2550048828125
3.5899999,-3.6750996112823486,0.8834604024887085,9.165003776550293,-13.5498046875,29.998779296875,6.77490234375
3.6099999,-3.6798880100250244,0.6129156351089478,9.289502143859863,-13.458251953125,5.584716796875,-1.953125
3.6299999,-3.7636849880218506,0.6009446382522583,9.47146224975586,1.2969970703125,-8.0718994140625,-10.80322265625
3.6499999,-3.8331170082092285,0.5889736413955688,9.454702377319336,29.296875,-25.6195068359375,10.68115234375
3.6699999,-3.9456443786621094,0.6823474764823914,9.452308654785156,16.90673828125,-10.009765625,19.683837890625
3.6899999,-4.0078935623168945,0.7996633648872375,9.255983352661133,-16.5557861328125,0.640869140625,-1.739501953125
3.7099999,-3.9264907836914062,0.689530074596405,9.009381294250488,-5.18798828125,3.0364990234375,-5.8746337890625
3.7299999,-3.8331170082092285,0.6248866319656372,9.040505409240723,-18.798828125,7.2784423828125,-16.3116455078125
3.7499999,-3.7445313930511475,0.5770025849342346,9.222464561462402,-36.9873046875,-0.9918212890625,-29.1595458984375
3.7699999,-3.6990416049957275,0.6512228846549988,9.476250648498535,-18.4326171875,-23.2696533203125,-30.8837890625
3.7899999,-3.667917013168335,0.9050082564353943,9.864110946655273,-7.720947265625,-19.4091796875,-30.059814453125
3.8099999,-3.641580820083618,1.1444283723831177,10.062829971313477,1.2664794921875,-26.85546875,-25.2685546875
3.8299999000000002,-3.5697548389434814,1.3670891523361206,10.110713958740234,22.15576171875,-45.4254150390625,-21.5911865234375
3.8499999,-3.471592426300049,1.599326729774475,10.074800491333008,46.661376953125,-41.015625,-21.42333984375
3.8699999,-3.3470940589904785,1.7357962131500244,9.758766174316406,43.121337890625,-38.9862060546875,-9.1094970703125
3.8899999,-3.2297780513763428,1.8148049116134644,9.478644371032715,22.247314453125,-30.303955078125,3.0975341796875
3.9099999,-3.098097085952759,1.7764976024627686,9.21288776397705,15.9454345703125,-17.333984375,2.9296875
3.9299999,-3.004723072052002,1.577778935432434,8.939949035644531,10.2691650390625,-24.322509765625,2.3345947265625
3.9499999,-2.894589900970459,1.381454348564148,8.78432559967041,0.6561279296875,-19.927978515625,-3.2196044921875
3.9699999,-2.784456491470337,1.3120225667953491,8.7484130859375,5.5694580078125,-5.5694580078125,-6.622314453125
3.9899999,-2.676717519760132,1.3694833517074585,8.863334655761719,10.3759765625,-12.115478515625,-2.86865234375
4.0099999,-2.6431987285614014,1.5418659448623657,9.074024200439453,-5.828857421875,-32.501220703125,-3.4942626953125
4.029999900000001,-2.674323320388794,1.7262194156646729,9.169792175292969,-22.186279296875,-26.42822265625,7.62939453125
4.0499999,-2.671929121017456,1.9704279899597168,9.227252960205078,-36.19384765625,14.4195556640625,27.8472900390625
4.069999900000001,-2.715024709701538,2.10210919380188,9.188945770263672,-20.1568603515625,24.47509765625,26.6571044921875
4.0899999000000005,-2.6360161304473877,2.3080103397369385,9.339780807495117,8.575439453125,13.214111328125,17.7764892578125
4.1099999,-2.5522189140319824,2.432508945465088,9.560047149658203,29.6173095703125,-2.5177001953125,25.9246826171875
4.1299999000000005,-2.516305923461914,2.4420857429504395,9.684545516967773,22.430419921875,-12.237548828125,34.1339111328125
4.1499999,-2.499546527862549,2.5091233253479004,9.605537414550781,-3.0059814453125,-8.331298828125,33.3404541015625
4.1699999000000005,-2.540247917175293,2.499546527862549,9.327810287475586,-11.566162109375,-2.3040771484375,43.5943603515625
4.1899999,-2.6001031398773193,2.4636335372924805,9.002198219299316,-17.9290771484375,0.3509521484375,59.844970703125
4.209999900000001,-2.6384103298187256,2.252943754196167,8.83699893951416,-44.12841796875,-8.60595703125,64.178466796875
4.2299999,-2.6431987285614014,1.9847931861877441,8.786720275878906,-14.1448974609375,-16.448974609375,28.5491943359375
4.249999900000001,-2.6192567348480225,1.5442601442337036,8.901641845703125,0.42724609375,-8.9569091796875,15.80810546875
4.2699999,-2.52109432220459,1.1899182796478271,9.038111686706543,7.5531005859375,-11.077880859375,4.180908203125
4.289999900000001,-2.4157495498657227,0.912190854549408,9.02135181427002,24.0020751953125,-14.6331787109375,-7.5836181640625
4.3099999,-2.279279947280884,0.7709329724311829,8.789113998413086,23.1170654296875,-14.556884765625,-11.566162109375
4.329999900000001,-2.166752576828003,0.7158663272857666,8.4108304977417,2.7008056640625,-7.1563720703125,-13.153076171875
4.3499999,-2.056619167327881,0.7541735172271729,8.092401504516602,-7.781982421875,-0.6561279296875,-19.3328857421875
4.369999900000001,-1.9704279899597168,0.8403648138046265,7.905653953552246,-0.091552734375,-0.396728515625,-26.1688232421875
4.3899999,-1.900996208190918,1.0007762908935547,8.034940719604492,-0.18310546875,0.0762939453125,-33.26416015625
4.409999900000001,-1.8555063009262085,1.2018892765045166,8.437167167663574,-7.9498291015625,2.8839111328125,-37.6739501953125
4.4299999,-1.843535304069519,1.4269442558288574,8.96389102935791,-8.575439453125,-0.946044921875,-34.9884033203125
4.449999900000001,-1.867477297782898,1.6663644313812256,9.59835433959961,-5.3253173828125,-2.960205078125,-31.7840576171875
4.4699999,-1.9129672050476074,1.8195933103561401,10.27591323852539,-4.5928955078125,-9.002685546875,-29.388427734375
4.489999900000001,-1.9369091987609863,1.8315643072128296,10.855310440063477,-13.6871337890625,-27.89306640625,-35.6903076171875
4.5099999,-1.9369091987609863,1.745373010635376,11.197681427001953,-12.6190185546875,-36.8804931640625,-47.42431640625
4.529999900000001,-1.8938134908676147,1.5610195398330688,11.24795913696289,-6.0577392578125,-34.5306396484375,-52.0172119140625
4.5499999,-1.8698714971542358,1.3527239561080933,10.958261489868164,-5.7373046875,-33.38623046875,-50.2777099609375
4.569999900000001,-1.8722656965255737,1.1827356815338135,10.488997459411621,-5.889892578125,-32.8369140625,-58.7158203125
4.5899999000000005,-1.889025092124939,1.1492167711257935,9.998186111450195,13.4124755859375,-18.49365234375,-64.788818359375
4.609999900000001,-1.889025092124939,1.2306196689605713,9.730035781860352,13.7176513671875,-0.701904296875,-54.718017578125
4.6299999000000005,-1.8339585065841675,1.3694833517074585,9.679757118225098,-6.317138671875,9.063720703125,-39.8101806640625
4.6499999,-1.7190368175506592,1.4652514457702637,9.837775230407715,-9.1094970703125,7.2174072265625,-18.524169921875
4.6699999000000005,-1.6184803247451782,1.3742717504501343,9.959878921508789,-26.06201171875,-8.6212158203125,-1.2359619140625
4.6899999,-1.5538369417190552,1.161187767982483,9.926360130310059,-49.530029296875,-7.01904296875,1.7547607421875
4.709999900000001,-1.5466543436050415,0.8858546018600464,9.780313491821289,-41.5496826171875,13.275146484375,1.1444091796875
4.7299999,-1.659181833267212,0.5386953949928284,9.5408935546875,-15.0909423828125,10.3759765625,-6.256103515625
4.749999900000001,-1.766920804977417,0.31842881441116333,9.41400146484375,-9.307861328125,3.0975341796875,-26.5960693359375
4.7699999,-1.9249382019042969,0.1867477297782898,9.397241592407227,-2.8076171875,4.150390625,-34.7747802734375
4.789999900000001,-2.0254945755004883,0.2298433631658554,9.433155059814453,5.1727294921875,1.861572265625,-24.23095703125
4.8099999,-2.099714994430542,0.5051765441894531,9.41639518737793,26.5045166015625,-2.5482177734375,-16.8914794921875
4.829999900000001,-2.1308395862579346,0.9217676520347595,9.363722801208496,41.5802001953125,7.659912109375,-11.505126953125
4.8499999,-2.164358377456665,1.2689268589019775,9.217676162719727,30.975341796875,16.632080078125,-5.7525634765625
4.869999900000001,-2.166752576828003,1.5466543436050415,9.172186851501465,16.6015625,27.0538330078125,-7.720947265625
4.8899999,-2.1739351749420166,1.601720929145813,9.181763648986816,11.8408203125,20.4010009765625,-6.8511962890625
4.909999900000001,-2.164358377456665,1.5418659448623657,9.241618156433105,15.6707763671875,8.5296630859375,-2.0904541015625
4.9299999,-2.1571757793426514,1.3646949529647827,9.320627212524414,13.8092041015625,11.5814208984375,5.6304931640625
4.949999900000001,-2.166752576828003,1.1899182796478271,9.313444137573242,12.8173828125,16.021728515625,9.8724365234375
4.9699999,-2.183511972427368,1.0007762908935547,9.289502143859863,13.153076171875,13.8092041015625,11.2457275390625
4.989999900000001,-2.1978771686553955,0.8355764150619507,9.30386734008789,3.90625,12.5274658203125,18.4173583984375
5.0099999,-2.190694570541382,0.768538773059845,9.38048267364502,-10.528564453125,13.0615234375,23.895263671875
5.029999900000001,-2.1739351749420166,0.7661445140838623,9.452308654785156,-23.712158203125,10.894775390625,34.088134765625
5.0499999,-2.1332337856292725,0.8643068075180054,9.545681953430176,-37.109375,5.5389404296875,42.572021484375
5.069999900000001,-2.099714994430542,0.9792284965515137,9.624691009521484,-37.4603271484375,5.0811767578125,41.839599609375
5.0899999000000005,-2.070984363555908,1.0630255937576294,9.682151794433594,-17.2576904296875,12.0391845703125,35.15625
5.109999900000001,-2.0254945755004883,1.1492167711257935,9.765948295593262,6.0272216796875,16.3726806640625,24.2767333984375
5.1299999000000005,-1.9967641830444336,1.2832920551300049,9.770736694335938,19.4854736328125,8.7432861328125,23.193359375
5.1499999,-1.9823989868164062,1.4317326545715332,9.742006301879883,11.9781494140625,2.2735595703125,35.003662109375
5.1699999000000005,-1.9800047874450684,1.53707754611969,9.677363395690918,-13.8397216796875,5.5084228515625,42.66357421875
5.1899999,-1.98958158493042,1.50355863571167,9.615114212036133,-23.529052734375,15.0299072265625,40.8935546875
5.209999900000001,-2.008735179901123,1.3048399686813354,9.591172218322754,-7.7667236328125,21.0113525390625,30.8990478515625
5.2299999,-2.0254945755004883,1.048660397529602,9.57441234588623,1.556396484375,14.2059326171875,26.702880859375
5.249999900000001,-2.0877439975738525,0.751779317855835,9.53849983215332,-3.9825439453125,10.1318359375,33.9508056640625
5.2699999,-2.145204782485962,0.35434186458587646,9.5408935546875,-16.7694091796875,10.68115234375,34.210205078125
5.289999900000001,-2.118868589401245,-0.047884032130241394,9.607931137084961,-14.1754150390625,6.9732666015625,6.6680908203125
5.3099999,-2.075772762298584,-0.44532153010368347,9.62947940826416,6.7596435546875,-8.8043212890625,-6.103515625
5.329999900000001,-1.965639591217041,-0.5770025849342346,9.68694019317627,10.9405517578125,-6.9580078125,5.5084228515625
5.3499999,-1.8962076902389526,-0.4357447028160095,9.859322547912598,-25.0396728515625,14.1143798828125,33.9813232421875
5.369999900000001,-1.9321208000183105,-0.11013327538967133,10.132261276245117,-47.5311279296875,19.9432373046875,61.5081787109375
5.3899999,-2.0661959648132324,0.4118026793003082,10.644620895385742,-38.360595703125,14.190673828125,63.2476806640625
5.409999900000001,-2.3104045391082764,0.9074024558067322,11.209651947021484,-35.7666015625,6.7901611328125,73.2879638671875
5.4299999,-2.604891538619995,1.4173674583435059,11.626243591308594,-39.154052734375,2.9754638671875,87.127685546875
5.449999900000001,-2.920926094055176,1.7405846118927002,11.793837547302246,-21.30126953125,-4.791259765625,91.97998046875
5.4699999,-3.246537446975708,1.6328455209732056,11.554417610168457,8.4381103515625,-16.7083740234375,82.94677734375
5.489999900000001,-3.44765043258667,1.2665326595306396,11.142614364624023,4.08935546875,-0.8087158203125,51.0406494140625
5.5099999,-3.5458126068115234,0.727837324142456,10.589553833007812,-23.4832763671875,19.8974609375,30.303955078125
5.529999900000001,-3.5027170181274414,0.2298433631658554,10.086771965026855,-32.073974609375,6.683349609375,38.5589599609375
5.5499999,-3.2992098331451416,-0.09816227108240128,9.81143856048584,-13.7176513671875,-2.5177001953125,38.57421875
5.569999900000001,-3.0621838569641113,-0.38307225704193115,9.674968719482422,-8.5296630859375,-1.800537109375,31.0516357421875
5.5899999000000005,-2.846705913543701,-0.6320692300796509,9.710882186889648,-39.7491455078125,-5.43212890625,32.073974609375
5.609999900000001,-2.717418909072876,-0.8547300100326538,9.895236015319824,-57.647705078125,-9.735107421875,34.3475341796875
5.6299999000000005,-2.6431987285614014,-0.9911994934082031,10.271124839782715,-55.389404296875,-10.19287109375,29.7698974609375
5.6499999,-2.626439332962036,-1.0582371950149536,10.826580047607422,-52.55126953125,-18.524169921875,12.6190185546875
5.6699999000000005,-2.7222073078155518,-1.0869675874710083,11.30302619934082,-35.5224609375,-43.4417724609375,-5.950927734375
5.6899999,-2.7533318996429443,-0.8643068075180054,11.523292541503906,-38.238525390625,-74.8291015625,-28.045654296875
5.709999900000001,-2.8347349166870117,-0.5434837937355042,11.295844078063965,-54.5196533203125,-84.1522216796875,-43.792724609375
5.7299999,-2.8155810832977295,-0.08140286058187485,10.563218116760254,-20.56884765625,-56.9000244140625,-48.0194091796875
5.749999900000001,-2.6647465229034424,0.4405331015586853,9.883264541625977,20.782470703125,-8.36181640625,-56.854248046875
5.7699999,-2.4827871322631836,0.5985504388809204,9.493009567260742,2.13623046875,8.23974609375,-26.5960693359375
5.789999900000001,-2.298433542251587,0.6272808313369751,9.327810287475586,-33.6151123046875,-39.0472412109375,-9.3994140625
5.8099999,-2.1571757793426514,0.4429273009300232,9.464279174804688,-44.4183349609375,-41.2750244140625,-20.4010009765625
5.829999900000001,-2.070984363555908,0.2346317619085312,9.528923034667969,-38.3758544921875,-16.4642333984375,-22.3236083984375
5.8499999,-2.006340980529785,0.09576806426048279,9.39245319366455,-23.529052734375,-17.4560546875,-23.223876953125
5.869999900000001,-1.922544002532959,0.038307227194309235,9.239224433898926,-2.1514892578125,-20.0958251953125,-18.5546875
5.8899999,-1.8124107122421265,-0.10295066982507706,9.308655738830566,7.354736328125,-9.9639892578125,-16.021728515625
5.909999900000001,-1.7597382068634033,-0.17956513166427612,9.126696586608887,0.9918212890625,-29.5257568359375,-16.4947509765625
5.9299999,-1.6831238269805908,-0.21308395266532898,8.935160636901855,36.224365234375,-15.3350830078125,-6.3018798828125
5.949999900000001,-1.6136919260025024,-0.21308395266532898,8.746018409729004,52.1240234375,30.609130859375,15.1214599609375
5.9699999,-1.5705963373184204,-0.22505496442317963,8.688557624816895,46.0357666015625,36.5142822265625,11.077880859375
5.989999900000001,-1.5155296325683594,-0.33039984107017517,8.777143478393555,15.655517578125,-8.30078125,-20.3857421875
6.0099999,-1.4628572463989258,-0.4644751250743866,9.090784072875977,8.7890625,-19.1192626953125,-26.91650390625
6.029999900000001,-1.4939818382263184,-0.5410895943641663,9.275136947631836,17.2119140625,10.31494140625,-16.0369873046875
6.0499999,-1.5298948287963867,-0.4812345504760742,9.397241592407227,-13.031005859375,12.5579833984375,-20.751953125
6.069999900000001,-1.5682021379470825,-0.31124621629714966,9.509769439697266,-75.3326416015625,-34.9884033203125,-18.4478759765625
6.0899999000000005,-1.5873557329177856,-0.1388636976480484,9.495404243469238,-99.12109375,-71.563720703125,-5.2032470703125
6.109999900000001,-1.5298948287963867,0,9.363722801208496,-39.9169921875,-42.8314208984375,-14.251708984375
6.1299999000000005,-1.3838485479354858,0.023942016065120697,9.153033256530762,13.4735107421875,-3.4027099609375,-27.7557373046875
6.149999900000001,-1.2258312702178955,0.019153613597154617,8.860940933227539,17.1661376953125,-13.5498046875,-16.3116455078125
6.1699999000000005,-1.0630255937576294,-0.11971008777618408,8.769960403442383,20.751953125,-10.986328125,0.152587890625
6.1899999,-0.9361328482627869,-0.2298433631658554,8.719682693481445,20.7977294921875,0.3662109375,11.322021484375
6.209999900000001,-0.8667010068893433,-0.3711012601852417,8.69334602355957,19.1802978515625,4.913330078125,26.0009765625
6.2299999,-0.849941611289978,-0.4357447028160095,8.683769226074219,15.9454345703125,7.0648193359375,32.5164794921875
6.249999900000001,-0.8738836050033569,-0.5219359993934631,8.7268648147583,-6.2713623046875,7.6904296875,18.096923828125
6.2699999,-0.9433154463768005,-0.6009446382522583,8.825027465820312,-7.0953369140625,7.049560546875,13.1072998046875
6.289999900000001,-1.0223240852355957,-0.7254431247711182,9.004592895507812,2.86865234375,7.4920654296875,11.6729736328125
6.3099999,-1.0845733880996704,-0.8451532125473022,9.265560150146484,5.4931640625,9.735107421875,6.3629150390625
6.329999900000001,-1.1037269830703735,-0.9768342971801758,9.567230224609375,10.101318359375,2.960205078125,2.6092529296875
6.3499999,-1.0773907899856567,-1.0127472877502441,9.785101890563965,20.9503173828125,-8.9263916015625,0.9765625
6.369999900000001,-1.015141487121582,-0.9600749015808105,9.86650562286377,29.4342041015625,-10.772705078125,4.9591064453125
6.3899999,-0.9217676520347595,-0.8236053586006165,9.77791976928711,29.052734375,-5.0506591796875,7.32421875
6.409999900000001,-0.8355764150619507,-0.5889736413955688,9.560047149658203,27.252197265625,-0.3204345703125,7.0953369140625
6.4299999,-0.751779317855835,-0.3663128614425659,9.399636268615723,14.4195556640625,3.936767578125,8.11767578125
6.449999900000001,-0.6488286852836609,-0.20350714027881622,9.457097053527832,2.9754638671875,8.9569091796875,7.38525390625
6.4699999,-0.5626373887062073,-0.1628057211637497,9.670180320739746,19.47021484375,3.2806396484375,5.8135986328125
6.489999900000001,-0.47884035110473633,-0.23942017555236816,9.998186111450195,36.8194580078125,-7.4462890625,2.8228759765625
6.5099999,-0.42377370595932007,-0.42616790533065796,10.376470565795898,35.9649658203125,-7.8887939453125,-3.753662109375
6.529999900000001,-0.43335050344467163,-0.5195417404174805,10.457873344421387,36.1480712890625,-9.7503662109375,-11.0321044921875
6.5499999,-0.45250412821769714,-0.5554547905921936,10.512939453125,-5.5084228515625,-3.509521484375,-9.3841552734375
6.569999900000001,-0.5027823448181152,-0.40222588181495667,10.393229484558105,-17.822265625,-1.2664794921875,-8.11767578125
6.5899999000000005,-0.5434837937355042,-0.19153612852096558,10.24239444732666,-0.762939453125,-4.0435791015625,-2.99072265625
6.609999900000001,-0.5602431893348694,0.021547814831137657,10.156203269958496,-4.241943359375,-2.25830078125,0.885009765625
6.6299999000000005,-0.5578489899635315,0.14365209639072418,10.11789608001709,2.1209716796875,-2.593994140625,-0.4119873046875
6.649999900000001,-0.5506663918495178,0.20350714027881622,10.093954086303711,24.6124267578125,-7.87353515625,-4.5623779296875
6.6699999000000005,-0.5482721924781799,0.22266076505184174,10.050858497619629,35.0799560546875,-11.2457275390625,-6.77490234375
6.6899999,-0.5674257874488831,0.26096799969673157,9.95748519897461,18.035888671875,-6.6070556640625,-5.5999755859375
6.709999900000001,-0.5889736413955688,0.3447650372982025,9.835380554199219,0.701904296875,-0.67138671875,-2.6702880859375
6.7299999,-0.5961562395095825,0.42377370595932007,9.746794700622559,2.9296875,-1.7852783203125,0.4119873046875
6.749999900000001,-0.5937620401382446,0.47405192255973816,9.706093788146973,13.5040283203125,-4.7149658203125,0.54931640625
6.7699999,-0.5770025849342346,0.47644615173339844,9.72285270690918,14.8162841796875,-2.105712890625,-0.4730224609375
6.789999900000001,-0.5770025849342346,0.44532153010368347,9.708487510681152,15.899658203125,0.9002685546875,-1.0528564453125
6.8099999,-0.5793967843055725,0.40701428055763245,9.708487510681152,15.0604248046875,1.64794921875,-1.8463134765625
6.829999900000001,-0.5817909836769104,0.40462008118629456,9.715670585632324,8.4381103515625,2.1820068359375,-4.180908203125
6.8499999,-0.586579442024231,0.40940847992897034,9.703699111938477,3.35693359375,2.197265625,-1.495361328125
6.869999900000001,-0.6033388376235962,0.4381389021873474,9.648633003234863,-0.91552734375,5.4473876953125,2.7008056640625
6.8899999,-0.6177040338516235,0.4596867263317108,9.607931137084961,-13.0157470703125,13.0157470703125,5.1727294921875
6.909999900000001,-0.6224924325942993,0.42377370595932007,9.62947940826416,-28.045654296875,16.8609619140625,8.453369140625
6.9299999,-0.6129156351089478,0.35913026332855225,9.75397777557373,-24.6124267578125,12.51220703125,8.11767578125
6.949999900000001,-0.5937620401382446,0.2777273952960968,9.931148529052734,-8.3770751953125,5.67626953125,4.8828125
6.9699999,-0.5793967843055725,0.19153612852096558,10.091560363769531,0.8697509765625,3.3416748046875,4.302978515625
6.989999900000001,-0.5793967843055725,0.1364694982767105,10.160991668701172,-1.3275146484375,3.2806396484375,3.5400390625
7.0099999,-0.5913678407669067,0.1173158809542656,10.15141487121582,1.8310546875,4.730224609375,0.18310546875
7.029999900000001,-0.6057330369949341,0.12210428714752197,10.11550235748291,5.2337646484375,6.8817138671875,-0.579833984375
7.0499999,-0.629675030708313,0.1604115068912506,10.055646896362305,8.7890625,6.7901611328125,1.251220703125
7.069999900000001,-0.6512228846549988,0.23702596127986908,10.046070098876953,10.1470947265625,7.5836181640625,-0.030517578125
7.0899999000000005,-0.6847416758537292,0.3280056416988373,10.036493301391602,9.2315673828125,3.35693359375,-1.03759765625
7.109999900000001,-0.751779317855835,0.5123591423034668,10.019734382629395,-0.9613037109375,0.640869140625,1.89208984375
7.1299999000000005,-0.7805097699165344,0.5650315880775452,9.976638793945312,-4.5928955078125,1.312255859375,2.86865234375
7.149999900000001,-0.7948749661445618,0.5913678407669067,9.926360130310059,-1.28173828125,0.0762939453125,2.6702880859375
7.1699999000000005,-0.7924807667732239,0.5722141861915588,9.907206535339355,-2.5634765625,-0.1678466796875,3.0517578125
7.1899999,-0.7733271718025208,0.5386953949928284,9.926360130310059,-5.0201416015625,-0.7781982421875,3.35693359375
7.209999900000001,-0.7422025203704834,0.507570743560791,9.947908401489258,-0.42724609375,-3.2501220703125,2.7008056640625
7.2299999,-0.7110779285430908,0.4836287498474121,9.986215591430664,1.1444091796875,-3.0059814453125,3.7384033203125
7.249999900000001,-0.6823474764823914,0.49320554733276367,10.036493301391602,-5.2032470703125,-1.800537109375,4.0283203125
7.2699999,-0.6488286852836609,0.5506663918495178,10.11789608001709,-6.439208984375,-2.86865234375,3.0059814453125
7.289999900000001,-0.6153098344802856,0.629675030708313,10.211270332336426,-0.30517578125,-6.7596435546875,4.8828125
7.3099999,-0.5626373887062073,0.7326257228851318,10.333374977111816,1.617431640625,-8.36181640625,6.40869140625
7.329999900000001,-0.5147533416748047,0.8068459630012512,10.409989356994629,2.1209716796875,-8.8958740234375,8.4075927734375
7.3499999,-0.47884035110473633,0.8355764150619507,10.407594680786133,3.5247802734375,-11.3677978515625,9.5367431640625
7.369999900000001,-0.4596867263317108,0.8044517636299133,10.32858657836914,4.7607421875,-12.7716064453125,10.25390625
7.3899999,-0.4596867263317108,0.7158663272857666,10.189722061157227,3.8299560546875,-12.20703125,11.1541748046875
7.409999900000001,-0.47644615173339844,0.5913678407669067,10.005369186401367,3.6163330078125,-11.7034912109375,11.627197265625
7.4299999,-0.5003881454467773,0.45250412821769714,9.799467086791992,6.011962890625,-11.474609375,11.1846923828125
7.449999900000001,-0.5219359993934631,0.3256114423274994,9.59596061706543,5.096435546875,-9.5062255859375,11.1083984375
7.4699999,-0.5506663918495178,0.20111294090747833,9.428366661071777,-2.44140625,-5.828857421875,11.71875
7.489999900000001,-0.5650315880775452,0.11252748221158981,9.332598686218262,-7.1258544921875,-2.7313232421875,9.9334716796875
7.5099999,-0.5746083855628967,0.033518824726343155,9.289502143859863,-8.3770751953125,-2.105712890625,7.3089599609375
7.529999900000001,-0.5650315880775452,-0.014365210197865963,9.342175483703613,-11.199951171875,-0.2899169921875,5.55419921875
7.5499999,-0.5315127968788147,-0.047884032130241394,9.44752025604248,-10.162353515625,1.617431640625,4.6539306640625
7.569999900000001,-0.48602294921875,-0.06224924325942993,9.593565940856934,-6.5460205078125,0,2.74658203125
7.5899999000000005,-0.4405331015586853,-0.035913024097681046,9.742006301879883,-0.5950927734375,-2.25830078125,-0.1983642578125
7.609999900000001,-0.4141969084739685,0.033518824726343155,9.84256362915039,4.1046142578125,-3.173828125,-0.8697509765625
7.6299999000000005,-0.3998316824436188,0.14604631066322327,9.883264541625977,3.631591796875,-0.9307861328125,-0.2899169921875
7.649999900000001,-0.3926490843296051,0.28969839215278625,9.876082420349121,1.9378662109375,1.068115234375,-0.030517578125
7.6699999000000005,-0.38546648621559143,0.40940847992897034,9.864110946655273,-0.2899169921875,0.579833984375,0.9307861328125
7.6899999,-0.3687070608139038,0.4836287498474121,9.885659217834473,-1.46484375,0.1983642578125,1.6937255859375
7.709999900000001,-0.363918662071228,0.5147533416748047,9.890447616577148,0.9002685546875,-0.6561279296875,1.861572265625
7.7299999,-0.3663128614425659,0.5099649429321289,9.876082420349121,2.4871826171875,-0.732421875,1.64794921875
7.749999900000001,-0.38546648621559143,0.47165772318840027,9.830592155456543,-0.5035400390625,0.7171630859375,2.0751953125
7.7699999,-0.4165911078453064,0.4189853072166443,9.758766174316406,-3.47900390625,1.861572265625,2.13623046875
7.789999900000001,-0.43335050344467163,0.3758896589279175,9.696516990661621,-3.387451171875,2.8228759765625,2.166748046875
7.8099999,-0.42377370595932007,0.3758896589279175,9.660603523254395,-3.90625,1.251220703125,2.5177001953125
7.829999900000001,-0.40940847992897034,0.3711012601852417,9.643844604492188,-4.1656494140625,3.6163330078125,5.0506591796875
7.8499999,-0.363918662071228,0.42856210470199585,9.670180320739746,-3.448486328125,6.4697265625,3.3416748046875
7.869999900000001,-0.33518823981285095,0.4644751250743866,9.715670585632324,-3.265380859375,6.9580078125,3.4027099609375
7.8899999,-0.31603461503982544,0.5099649429321289,9.773131370544434,-3.997802734375,5.55419921875,5.67626953125
7.909999900000001,-0.31364041566848755,0.5363011956214905,9.830592155456543,-2.593994140625,5.2947998046875,6.3629150390625
7.9299999,-0.3232172429561615,0.5339069962501526,9.883264541625977,-3.1280517578125,4.8370361328125,5.2947998046875
7.949999900000001,-0.3495534360408783,0.49559974670410156,9.885659217834473,-2.716064453125,2.6092529296875,4.150390625
7.9699999,-0.3758896589279175,0.4429273009300232,9.840168952941895,0.8697509765625,3.7689208984375,3.662109375
7.989999900000001,-0.3998316824436188,0.3902548849582672,9.765948295593262,1.64794921875,8.1787109375,3.814697265625
8.0099999,-0.42616790533065796,0.3447650372982025,9.677363395690918,-3.021240234375,9.46044921875,4.57763671875
8.0299999,-0.44532153010368347,0.2992752194404602,9.655815124511719,-5.92041015625,9.124755859375,4.3487548828125
8.049999900000001,-0.4692635238170624,0.26815059781074524,9.672574996948242,-1.708984375,7.110595703125,2.471923828125
8.069999900000001,-0.5219359993934631,0.26096799969673157,9.677363395690918,2.9754638671875,5.157470703125,1.739501953125
8.0899999,-0.5746083855628967,0.2753331959247589,9.696516990661621,-4.7454833984375,11.5509033203125,4.6539306640625
8.1099999,-0.6248866319656372,0.29209262132644653,9.727641105651855,-12.26806640625,19.439697265625,8.11767578125
8.129999900000001,-0.6607996821403503,0.29209262132644653,9.801861763000488,-8.4686279296875,17.4407958984375,7.6904296875
8.149999900000001,-0.6871358752250671,0.2585737705230713,9.943120002746582,-5.4779052734375,11.9781494140625,6.866455078125
8.1699999,-0.7086837291717529,0.26096799969673157,10.074800491333008,-4.5623779296875,11.566162109375,6.6375732421875
8.1899999,-0.7422025203704834,0.26815059781074524,10.194510459899902,-5.2947998046875,13.97705078125,10.3759765625
8.2099999,-0.7924807667732239,0.2992752194404602,10.251971244812012,-3.997802734375,11.474609375,10.92529296875
8.229999900000001,-0.8547300100326538,0.33039984107017517,10.26394271850586,2.25830078125,12.6800537109375,7.4920654296875
8.2499999,-0.9050082564353943,0.31124621629714966,10.299856185913086,11.962890625,18.3258056640625,4.669189453125
8.2699999,-0.9720458984375,0.24181437492370605,10.278307914733887,9.58251953125,8.9263916015625,3.1585693359375
8.2899999,-1.0773907899856567,0.1604115068912506,10.129867553710938,2.8076171875,-0.5950927734375,2.838134765625
8.309999900000001,-1.158793568611145,0.17717093229293823,9.885659217834473,2.0599365234375,17.0745849609375,2.3345947265625
8.3299999,-1.2186486721038818,0.26815059781074524,9.560047149658203,-4.69970703125,37.4298095703125,16.845703125
8.3499999,-1.2449848651885986,0.4213795065879822,9.17697525024414,-23.7274169921875,22.1405029296875,32.5469970703125
8.3699999,-1.2066776752471924,0.5123591423034668,8.990227699279785,-50.6439208984375,14.8773193359375,32.684326171875
8.389999900000001,-1.139639973640442,0.4405331015586853,9.095572471618652,-56.854248046875,23.25439453125,25.1617431640625
8.4099999,-1.1348515748977661,0.28730419278144836,9.229647636413574,-3.2806396484375,11.77978515625,10.0555419921875
8.4299999,-1.1851298809051514,0.047884032130241394,9.478644371032715,30.426025390625,4.21142578125,-3.4027099609375
8.4499999,-1.2545616626739502,-0.17238251864910126,9.6989107131958,-15.411376953125,3.265380859375,-30.303955078125
8.469999900000001,-1.3910311460494995,-0.38546648621559143,9.801861763000488,-29.5257568359375,2.8533935546875,-42.9840087890625
8.4899999,-1.482010841369629,-0.5722141861915588,9.914389610290527,-13.36669921875,-1.861572265625,-38.4368896484375
8.5099999,-1.5610195398330688,-0.7158663272857666,10.007762908935547,-14.95361328125,-5.2947998046875,-25.5584716796875
8.5299999,-1.6041151285171509,-0.7852981686592102,10.08437728881836,-1.1749267578125,2.532958984375,-11.4593505859375
8.549999900000001,-1.6208745241165161,-0.7829039692878723,10.019734382629395,5.9661865234375,-8.4686279296875,-12.8326416015625
8.569999900000001,-1.6089035272598267,-0.6560112833976746,9.931148529052734,24.749755859375,-4.2266845703125,-18.4326171875
8.5899999,-1.5634137392044067,-0.3998316824436188,9.770736694335938,36.773681640625,3.84521484375,-22.7203369140625
8.6099999,-1.522712230682373,-0.05506663769483566,9.543288230895996,31.951904296875,6.0882568359375,-10.9100341796875
8.629999900000001,-1.501164436340332,0.2968810200691223,9.354146003723145,26.123046875,16.1590576171875,4.6234130859375
8.649999900000001,-1.4987702369689941,0.5410895943641663,9.220070838928223,15.7318115234375,25.238037109375,11.3983154296875
8.6699999,-1.5442601442337036,0.5841852426528931,9.188945770263672,1.5106201171875,29.6478271484375,22.7508544921875
8.6899999,-1.601720929145813,0.47884035110473633,9.32541561126709,-7.537841796875,28.656005859375,25.4058837890625
8.709999900000001,-1.6711528301239014,0.24899697303771973,9.57441234588623,0.54931640625,23.956298828125,21.087646484375
8.729999900000001,-1.7405846118927002,0.028730420395731926,9.84495735168457,11.6119384765625,19.1802978515625,14.9688720703125
8.7499999,-1.8148049116134644,-0.11971008777618408,10.043676376342773,9.0179443359375,15.4876708984375,12.1917724609375
8.7699999,-1.889025092124939,-0.15322890877723694,10.113107681274414,-2.74658203125,13.3819580078125,14.190673828125
8.7899999,-1.9584569931030273,-0.08619125932455063,10.070012092590332,-11.0015869140625,14.58740234375,15.13671875
8.809999900000001,-2.0207061767578125,0.009576806798577309,9.995792388916016,-11.04736328125,16.4642333984375,13.5345458984375
8.8299999,-2.0685901641845703,0.0933738648891449,9.921571731567383,-5.79833984375,14.312744140625,11.90185546875
8.8499999,-2.1092917919158936,0.15083470940589905,9.832986831665039,1.2359619140625,11.5814208984375,11.2762451171875
8.8699999,-2.140416383743286,0.20111294090747833,9.737217903137207,1.251220703125,12.8173828125,12.9241943359375
8.889999900000001,-2.1811177730560303,0.2346317619085312,9.615114212036133,-3.72314453125,13.6871337890625,17.51708984375
8.9099999,-2.2170307636260986,0.2537853717803955,9.521739959716797,-8.0718994140625,12.3291015625,18.9666748046875
8.9299999,-2.2457611560821533,0.26096799969673157,9.476250648498535,-8.6669921875,12.298583984375,16.7999267578125
8.9499999,-2.2673089504241943,0.2513911724090576,9.433155059814453,-4.4403076171875,12.02392578125,17.547607421875
8.969999900000001,-2.2864625453948975,0.17717093229293823,9.44752025604248,-16.2506103515625,12.3138427734375,21.30126953125
8.9899999,-2.3032219409942627,0.08140286058187485,9.485827445983887,-16.4947509765625,13.0462646484375,16.3421630859375
9.0099999,-2.3319525718688965,-0.026336219161748886,9.53849983215332,-6.256103515625,10.955810546875,9.613037109375
9.0299999,-2.365471363067627,-0.1173158809542656,9.603142738342285,-2.6397705078125,9.246826171875,8.85009765625
9.049999900000001,-2.3942017555236816,-0.19153612852096558,9.715670585632324,2.2125244140625,12.4969482421875,9.9639892578125
9.069999900000001,-2.43011474609375,-0.19871874153614044,9.799467086791992,13.36669921875,10.8795166015625,6.866455078125
9.0899999,-2.4468741416931152,-0.1867477297782898,9.895236015319824,12.908935546875,6.6375732421875,3.2501220703125
9.1099999,-2.4684219360351562,-0.0694318488240242,9.897629737854004,1.2359619140625,4.82177734375,2.0904541015625
9.129999900000001,-2.4875755310058594,0.09816227108240128,9.854534149169922,-13.3514404296875,10.528564453125,9.21630859375
9.149999900000001,-2.5282769203186035,0.27054479718208313,9.739612579345703,-4.9591064453125,12.9852294921875,15.6707763671875
9.1699999,-2.580949544906616,0.395043283700943,9.643844604492188,4.33349609375,12.51220703125,14.95361328125
9.1899999,-2.6431987285614014,0.4118026793003082,9.622296333312988,1.800537109375,14.068603515625,16.1285400390625
9.209999900000001,-2.717418909072876,0.4165911078453064,9.615114212036133,7.8125,15.7470703125,16.4794921875
9.229999900000001,-2.779668092727661,0.47644615173339844,9.600749015808105,28.7933349609375,19.1802978515625,16.17431640625
9.2499999,-2.851494312286377,0.7254431247711182,9.50498104095459,41.1529541015625,21.331787109375,24.017333984375
9.2699999,-2.9233202934265137,1.1204863786697388,9.327810287475586,47.4853515625,26.9622802734375,44.37255859375
9.2899999,-3.002328872680664,1.4867992401123047,9.160215377807617,46.0205078125,36.834716796875,60.150146484375
9.309999900000001,-3.0765492916107178,1.656787633895874,8.99740982055664,24.90234375,32.8369140625,58.7310791015625
9.3299999,-3.141192674636841,1.6208745241165161,8.904036521911621,5.6304931640625,26.3214111328125,51.94091796875
9.3499999,-3.184288263320923,1.3958195447921753,8.822632789611816,-2.25830078125,24.566650390625,50.8880615234375
9.3699999,-3.2154128551483154,1.2545616626739502,8.643068313598633,3.11279296875,25.421142578125,53.314208984375
9.389999900000001,-3.2632968425750732,1.2880805730819702,8.367734909057617,7.568359375,24.749755859375,58.6700439453125
9.4099999,-3.3446998596191406,1.357512354850769,8.087613105773926,3.7078857421875,32.073974609375,62.2711181640625
9.4299999,-3.4380736351013184,1.357512354850769,7.905653953552246,-6.8359375,37.9486083984375,51.94091796875
9.4499999,-3.531447410583496,1.3455413579940796,7.9631147384643555,-18.3258056640625,43.975830078125,34.2254638671875
9.469999900000001,-3.5936968326568604,1.2761094570159912,8.24084186553955,-26.42822265625,38.1927490234375,32.89794921875
9.4899999,-3.622427225112915,1.2952631711959839,8.667010307312012,-17.6849365234375,28.6865234375,35.6597900390625
9.5099999,-3.667917013168335,1.3479355573654175,9.011775016784668,0.9307861328125,21.881103515625,33.4014892578125
9.5299999,-3.732560396194458,1.4101848602294922,9.224859237670898,15.8233642578125,27.557373046875,24.9481201171875
9.549999900000001,-3.823540210723877,1.3958195447921753,9.275136947631836,9.979248046875,33.7677001953125,23.101806640625
9.569999900000001,-3.936067581176758,1.3766659498214722,9.246406555175781,0.396728515625,32.2265625,27.3284912109375
9.5899999,-4.055777549743652,1.3623007535934448,9.220070838928223,3.5247802734375,30.7464599609375,25.787353515625
9.6099999,-4.185064792633057,1.3479355573654175,9.196128845214844,6.8511962890625,31.219482421875,19.866943359375
9.629999900000001,-4.32871675491333,1.3335703611373901,9.119514465332031,7.3699951171875,36.1328125,13.031005859375
9.649999900000001,-4.489128112792969,1.3742717504501343,8.975862503051758,-0.6256103515625,43.792724609375,9.3994140625
9.6699999,-4.63517427444458,1.4652514457702637,8.78193187713623,-8.7890625,51.8798828125,14.6331787109375
9.6899999,-4.76924991607666,1.6184803247451782,8.56884765625,-2.2735595703125,54.6875,21.087646484375
9.709999900000001,-4.9152960777282715,1.7932571172714233,8.288725852966309,8.209228515625,55.450439453125,21.331787109375
9.729999900000001,-5.049371242523193,2.006340980529785,8.066065788269043,9.82666015625,70.556640625,15.1519775390625
9.7499999,-5.2049946784973145,2.1954829692840576,7.8745293617248535,3.875732421875,76.019287109375,22.5830078125
9.7699999,-5.370194435119629,2.3343467712402344,7.766790390014648,7.049560546875,70.80078125,40.5120849609375
9.7899999,-5.499481201171875,2.4636335372924805,7.7883381843566895,18.5089111328125,71.8841552734375,42.7093505859375
9.809999900000001,-5.6191911697387695,2.537853717803955,7.869740962982178,15.0299072265625,66.314697265625,45.8221435546875
9.8299999,-5.700594425201416,2.537853717803955,7.989450931549072,-2.6702880859375,56.2896728515625,53.0548095703125
9.8499999,-5.78678560256958,2.432508945465088,8.020575523376465,-8.9263916015625,44.6319580078125,52.520751953125
9.8699999,-5.870582580566406,2.3127987384796143,7.931990146636963,6.6070556640625,42.877197265625,39.520263671875
9.889999900000001,-6.00226354598999,2.2864625453948975,7.644686222076416,-12.725830078125,48.1719970703125,29.296875
9.9099999,-6.1770405769348145,2.427720546722412,7.271190643310547,-50.4913330078125,63.53759765625,34.576416015625
9.9299999,-6.354211330413818,2.7437551021575928,7.015010833740234,-50.689697265625,81.3446044921875,41.015625
9.9499999,-6.524199485778809,3.093308687210083,7.005434036254883,-39.3218994140625,77.392578125,45.83740234375
9.969999900000001,-6.651092529296875,3.2968156337738037,7.216124057769775,-40.4815673828125,58.3648681640625,55.023193359375
9.9899999,-6.732495307922363,3.2776620388031006,7.51779317855835,-33.233642578125,51.2237548828125,55.7861328125
10.0099999,-6.789956092834473,3.093308687210083,7.666234016418457,-10.009765625,51.6815185546875,41.290283203125
10.0299999,-6.8162922859191895,2.8634653091430664,7.5848307609558105,7.1258544921875,55.633544921875,25.909423828125
10.049999900000001,-6.854599475860596,2.695871114730835,7.309497833251953,-10.528564453125,54.3975830078125,30.426025390625
10.069999900000001,-6.873753070831299,2.6455929279327393,6.97430944442749,-23.2696533203125,47.5921630859375,40.52734375
10.0899999,-6.912060260772705,2.691082715988159,6.658275127410889,-17.76123046875,43.4722900390625,41.900634765625
10.1099999,-6.957550048828125,2.7437551021575928,6.411672115325928,-9.58251953125,39.97802734375,38.482666015625
10.129999900000001,-7.007828235626221,2.779668092727661,6.253654956817627,-4.241943359375,38.787841796875,37.139892578125
10.149999900000001,-7.060500621795654,2.762908697128296,6.117185115814209,-3.173828125,36.468505859375,38.6505126953125
10.1699999,-7.113173484802246,2.765302896499634,5.990292549133301,1.556396484375,34.7900390625,36.956787109375
10.1899999,-7.158663272857666,2.7557260990142822,5.925649166107178,-1.52587890625,34.7137451171875,34.0423583984375
10.209999900000001,-7.196970462799072,2.736572504043579,5.92325496673584,-8.8043212890625,32.3028564453125,31.9366455078125
10.229999900000001,-7.240066051483154,2.7437551021575928,5.959167957305908,-1.5716552734375,25.726318359375,27.252197265625
10.2499999,-7.29034423828125,2.7940332889556885,5.954379558563232,14.22119140625,21.7437744140625,23.1170654296875
10.2699999,-7.350199222564697,2.896984100341797,5.906495571136475,4.638671875,24.1546630859375,24.6124267578125
10.2899999,-7.405265808105469,3.0765492916107178,5.825092792510986,-15.0299072265625,27.0538330078125,27.008056640625
10.309999900000001,-7.462726593017578,3.287238836288452,5.7556610107421875,-8.148193359375,24.444580078125,26.3824462890625
10.3299999,-7.513004779815674,3.485957622528076,5.731719017028809,9.3536376953125,19.47021484375,24.2156982421875
10.3499999,-7.575253963470459,3.627215623855591,5.686229228973389,17.2576904296875,19.683837890625,23.834228515625
10.3699999,-7.649474620819092,3.7397429943084717,5.609614372253418,15.4266357421875,24.200439453125,25.1922607421875
10.389999900000001,-7.7213006019592285,3.825934410095215,5.5545477867126465,8.697509765625,28.1829833984375,31.2652587890625
10.4099999,-7.819462776184082,3.93367338180542,5.47075080871582,13.0462646484375,25.665283203125,40.069580078125
10.4299999,-7.934384346008301,3.993528366088867,5.382165431976318,31.6619873046875,25.4669189453125,46.93603515625
10.4499999,-8.039729118347168,3.9025487899780273,5.329493045806885,33.69140625,33.111572265625,42.6483154296875
10.469999900000001,-8.133103370666504,3.667917013168335,5.207388877868652,28.961181640625,29.4342041015625,30.853271484375
10.4899999,-8.185775756835938,3.488351821899414,4.9799394607543945,27.984619140625,22.2930908203125,19.3939208984375
10.5099999,-8.202534675598145,3.335123062133789,4.699818134307861,8.9874267578125,25.421142578125,26.8707275390625
10.5299999,-8.221688270568848,3.339911460876465,4.3406877517700195,12.2222900390625,33.14208984375,31.1126708984375
10.549999900000001,-8.29830265045166,3.469198226928711,3.9432501792907715,40.2679443359375,36.7431640625,22.430419921875
10.569999900000001,-8.42040729522705,3.622427225112915,3.584120035171509,56.610107421875,46.0968017578125,17.5018310546875
10.5899999,-8.60236644744873,3.7636849880218506,3.3470940589904785,66.9708251953125,65.2923583984375,16.021728515625
10.6099999,-8.916007041931152,3.8139634132385254,3.1316158771514893,82.8399658203125,73.699951171875,15.8843994140625
10.629999900000001,-9.425971984863281,3.8738183975219727,2.889801502227783,98.114013671875,89.3707275390625,5.06591796875
10.649999900000001,-10.04846477508545,3.7708675861358643,3.0142998695373535,89.17236328125,125.9918212890625,-5.218505859375
10.6699999,-10.982203483581543,3.40216064453125,3.4763808250427246,34.423828125,114.898681640625,-11.7340087890625
10.6899999,-12.097901344299316,3.0334534645080566,4.242525577545166,37.841796875,80.38330078125,-43.7164306640625
10.709999900000001,-13.436260223388672,2.5474305152893066,5.341464042663574,64.971923828125,57.7545166015625,-75.3631591796875
10.729999900000001,-15.097835540771484,1.7477672100067139,6.337451934814453,32.9742431640625,16.11328125,-87.646484375
10.7499999,-16.802507400512695,1.3838485479354858,7.113173484802246,43.975830078125,-4.180908203125,-139.2974853515625
10.7699999,-18.430564880371094,1.2090718746185303,8.034940719604492,12.6953125,-30.517578125,-189.8345947265625
10.7899999,-19.92933464050293,0.7709329724311829,9.59596061706543,-114.1510009765625,-99.700927734375,-199.89013671875
10.809999900000001,-21.490354537963867,0.3495534360408783,11.769895553588867,-166.80908203125,-212.432861328125,-279.9835205078125
10.8299999,-23.585281372070312,-0.6991068720817566,14.970943450927734,-65.2923583984375,-352.3101806640625,-414.276123046875
10.8499999,-27.016172409057617,-1.6160861253738403,17.156848907470703,217.2698974609375,-500,-500
10.8699999,-30.698453903198242,-1.1085153818130493,16.436195373535156,403.839111328125,-500,-500
10.889999900000001,-33.497276306152344,0.3711012601852417,14.21916389465332,116.14990234375,-500,-382.62939453125
10.9099999,-34.86197280883789,2.513911724090576,11.604695320129395,-233.5662841796875,-477.203369140625,-314.483642578125
10.9299999,-34.32806396484375,4.656722068786621,9.72285270690918,-320.892333984375,-500,-383.270263671875
10.9499999,-32.02005386352539,6.871358871459961,9.155426979064941,18.61572265625,-500,-428.8330078125
10.969999900000001,-28.775909423828125,7.812280178070068,8.470685958862305,144.59228515625,-487.1826171875,-263.885498046875
10.9899999,-24.404098510742188,7.814674377441406,6.799532890319824,42.6483154296875,-349.6856689453125,-114.4256591796875
11.0099999,-19.45049476623535,7.352593421936035,4.6255974769592285,-133.4381103515625,-315.7806396484375,-135.6658935546875
11.0299999,-14.468160629272461,5.035006046295166,2.8610711097717285,-109.7564697265625,-322.235107421875,-142.547607421875
11.049999900000001,-10.067618370056152,3.335123062133789,1.2282254695892334,-68.78662109375,-297.119140625,-139.5416259765625
11.069999900000001,-6.370970726013184,1.8315643072128296,-0.31364041566848755,-27.16064453125,-233.9324951171875,-137.6190185546875
11.0899999,-6.114790916442871,0.3471592366695404,-2.166752576828003,25.0244140625,-250.762939453125,-137.725830078125
11.1099999,-2.346317768096924,2.300827741622925,-4.76924991607666,-108.9935302734375,-464.78271484375,-409.3170166015625
11.129999900000001,-2.738966703414917,2.8610711097717285,-6.98628044128418,-181.2744140625,-152.4200439453125,-101.6998291015625
11.149999900000001,0.40701428055763245,5.801150798797607,-8.848969459533691,-79.3914794921875,-39.0472412109375,37.2314453125
11.1699999,2.279279947280884,7.113173484802246,-10.51054573059082,-36.8804931640625,55.17578125,-9.5672607421875
11.1899999,3.3494882583618164,7.529764175415039,-10.254365921020508,-148.895263671875,131.4544677734375,50.872802734375
11.209999900000001,4.113238334655762,7.3693528175354,-9.713275909423828,-55.9844970703125,83.465576171875,43.2891845703125
11.229999900000001,4.321534156799316,6.775590896606445,-8.063671112060547,-60.699462890625,64.910888671875,78.582763671875
11.2499999,4.819528102874756,5.200206279754639,-5.298368453979492,-17.39501953125,48.492431640625,92.6361083984375
11.2699999,5.327098846435547,3.4835634231567383,-2.650381326675415,78.6895751953125,-1.5869140625,45.379638671875
11.2899999,6.0190229415893555,1.6663644313812256,0.05506663769483566,110.7635498046875,11.1083984375,17.791748046875
11.309999900000001,6.809109687805176,-0.035913024097681046,1.8531121015548706,161.6363525390625,57.6629638671875,40.1611328125
11.3299999,7.4770917892456055,-1.5873557329177856,3.4524388313293457,138.2904052734375,91.8731689453125,65.765380859375
11.3499999,8.166622161865234,-2.940079689025879,4.838681697845459,39.0625,54.3975830078125,22.857666015625
11.3699999,8.56884765625,-4.0078935623168945,6.052541732788086,-14.46533203125,10.3302001953125,4.638671875
11.389999900000001,8.841787338256836,-4.299986362457275,7.151480674743652,-34.1949462890625,24.8565673828125,18.9056396484375
11.4099999,8.9064302444458,-3.957615375518799,7.694964408874512,-3.7078857421875,38.116455078125,32.2113037109375
11.4299999,8.899248123168945,-3.531447410583496,8.118738174438477,25.6500244140625,27.069091796875,24.8260498046875
11.4499999,8.863334655761719,-3.3470940589904785,8.33182144165039,47.3785400390625,13.9312744140625,9.246826171875
11.469999900000001,8.772355079650879,-3.361459255218506,8.418013572692871,47.332763671875,12.847900390625,10.92529296875
11.4899999,8.595184326171875,-3.292027235031128,8.128314971923828,41.290283203125,19.53125,15.167236328125
11.5099999,8.343792915344238,-3.0885202884674072,7.618350028991699,54.107666015625,21.8353271484375,18.6004638671875
11.5299999,8.063671112060547,-2.8658595085144043,7.139509677886963,37.078857421875,23.6053466796875,17.7001953125
11.549999900000001,7.769184589385986,-2.6384103298187256,6.689399719238281,32.3028564453125,19.2718505859375,10.1776123046875
11.569999900000001,7.484274387359619,-2.4468741416931152,6.323086738586426,43.8385009765625,17.333984375,9.1400146484375
11.5899999,7.230489253997803,-2.2409727573394775,5.9974751472473145,45.3948974609375,25.299072265625,13.580322265625
11.6099999,7.01979923248291,-1.9991583824157715,5.6191911697387695,38.665771484375,33.0810546875,14.6484375
11.629999900000001,6.84981107711792,-1.723825216293335,5.260061264038086,41.68701171875,40.71044921875,12.2833251953125
11.649999900000001,6.756437301635742,-1.4963760375976562,5.154716491699219,0.7476806640625,47.3480224609375,13.5345458984375
11.6699999,6.672640323638916,-1.335964560508728,5.197812080383301,-9.6282958984375,43.914794921875,16.326904296875
11.6899999,6.5912370681762695,-1.3455413579940796,5.564124584197998,-1.8463134765625,44.5404052734375,19.9127197265625
11.709999900000001,6.433219909667969,-1.4652514457702637,6.054935932159424,-11.383056640625,46.112060546875,21.1029052734375
11.729999900000001,6.18182897567749,-1.6759412288665771,6.636727333068848,-5.55419921875,49.01123046875,21.0418701171875
11.7499999,5.899312973022461,-1.9536685943603516,7.347805023193359,-0.5950927734375,45.8221435546875,21.209716796875
11.7699999,5.6191911697387695,-2.2026655673980713,7.860164165496826,12.4053955078125,29.4647216796875,15.68603515625
11.7899999,5.418078422546387,-2.4684219360351562,8.257601737976074,4.7149658203125,22.0794677734375,10.4522705078125
11.809999900000001,5.295974254608154,-2.6671407222747803,8.327033042907715,-14.3890380859375,24.261474609375,9.552001953125
11.8299999,5.20978307723999,-2.695871114730835,8.133103370666504,-10.31494140625,27.2979736328125,10.406494140625
11.8499999,5.1810526847839355,-2.5977089405059814,7.908048152923584,10.345458984375,31.4178466796875,13.0767822265625
11.8699999,5.171475887298584,-2.434903144836426,7.704541206359863,27.618408203125,31.341552734375,14.0228271484375
11.889999900000001,5.157110691070557,-2.2864625453948975,7.529764175415039,27.6031494140625,29.60205078125,11.5509033203125
11.9099999,5.094861030578613,-2.2146365642547607,7.4316020011901855,-1.4495849609375,36.4837646484375,13.85498046875
11.9299999,4.9583916664123535,-2.229001760482788,7.486668586730957,-21.636962890625,45.8526611328125,20.2789306640625
11.9499999,4.778826713562012,-2.322375535964966,7.759607791900635,-7.781982421875,41.259765625,21.8963623046875
11.969999900000001,4.637568473815918,-2.4803929328918457,8.219294548034668,12.1002197265625,30.3955078125,17.76123046875
11.9899999,4.563348293304443,-2.75812029838562,8.655038833618164,18.9361572265625,26.9775390625,18.707275390625
12.0099999,4.654327869415283,-3.0573954582214355,8.942343711853027,4.8675537109375,26.5655517578125,16.54052734375
12.0299999,4.8051629066467285,-3.315969467163086,9.023746490478516,-14.0380859375,23.62060546875,10.894775390625
12.049999900000001,4.9799394607543945,-3.35667085647583,8.89445972442627,4.4097900390625,15.5487060546875,7.5531005859375
12.069999900000001,5.078101634979248,-3.222595453262329,8.729259490966797,22.3541259765625,17.3187255859375,10.162353515625
12.0899999,5.0876784324646,-2.8802247047424316,8.638279914855957,27.801513671875,26.91650390625,10.650634765625
12.1099999,5.008669853210449,-2.4851813316345215,8.552088737487793,27.4505615234375,20.93505859375,4.2572021484375
12.129999900000001,4.886565685272217,-2.1045033931732178,8.482656478881836,29.8004150390625,11.4593505859375,2.838134765625
12.149999900000001,4.750096321105957,-1.8267759084701538,8.413225173950195,16.1285400390625,19.439697265625,3.23486328125
12.1699999,4.594472885131836,-1.6831238269805908,8.274360656738281,2.655029296875,28.3355712890625,5.9356689453125
12.1899999,4.458003520965576,-1.6663644313812256,8.250418663024902,-8.544921875,26.275634765625,3.41796875
12.209999900000001,4.326322555541992,-1.7908629179000854,8.216899871826172,5.2032470703125,18.7530517578125,0.42724609375
12.229999900000001,4.256890773773193,-1.8794482946395874,8.190564155578613,30.9295654296875,24.0936279296875,-3.5400390625
12.2499999,4.240131378173828,-1.920149803161621,8.10437297821045,30.242919921875,36.1480712890625,-2.6397705078125
12.2699999,4.2760443687438965,-1.9105730056762695,7.989450931549072,18.798828125,39.8101806640625,2.9754638671875
12.289999900000002,4.355052947998047,-1.8579005002975464,8.008605003356934,20.5230712890625,40.6341552734375,1.0986328125
12.309999900000001,4.400542736053467,-1.7836803197860718,8.058882713317871,25.9246826171875,35.003662109375,-3.5247802734375
12.3299999,4.3622355461120605,-1.6759412288665771,8.11634349822998,14.95361328125,33.2489013671875,-0.6103515625
12.3499999,4.230554580688477,-1.5203180313110352,8.236053466796875,0.5950927734375,44.00634765625,3.4637451171875
12.3699999,4.019864559173584,-1.4077905416488647,8.367734909057617,15.7623291015625,44.86083984375,4.913330078125
12.389999900000001,3.7876269817352295,-1.3646949529647827,8.549694061279297,31.7230224609375,34.088134765625,0.946044921875
12.4099999,3.536235809326172,-1.335964560508728,8.695740699768066,23.4527587890625,27.4200439453125,-2.838134765625
12.4299999,3.2848446369171143,-1.2832920551300049,8.712499618530273,12.359619140625,32.04345703125,-0.3509521484375
12.4499999,3.00711727142334,-1.139639973640442,8.60236644744873,17.0135498046875,39.1082763671875,3.23486328125
12.469999900000001,2.7461493015289307,-0.9169792532920837,8.446743965148926,24.5208740234375,40.52734375,5.2490234375
12.4899999,2.518700122833252,-0.6584054827690125,8.269572257995605,29.632568359375,40.740966796875,6.7138671875
12.5099999,2.3582887649536133,-0.40940847992897034,8.17141056060791,22.27783203125,48.675537109375,11.260986328125
12.5299999,2.22660756111145,-0.22505496442317963,8.092401504516602,16.8609619140625,53.0242919921875,14.46533203125
12.549999900000001,2.1092917919158936,-0.0071826050989329815,7.934384346008301,33.721923828125,46.722412109375,10.31494140625
12.569999900000001,1.968033790588379,0.21787235140800476,7.682993412017822,31.18896484375,49.8046875,10.589599609375
12.5899999,1.7956513166427612,0.524330198764801,7.326257228851318,15.8538818359375,62.98828125,18.6614990234375
12.6099999,1.580173134803772,0.8762778043746948,6.967126846313477,19.47021484375,74.89013671875,27.2216796875
12.629999900000001,1.278503656387329,1.2330138683319092,6.687005519866943,48.1414794921875,82.7789306640625,30.1055908203125
12.649999900000001,0.8858546018600464,1.5514427423477173,6.507440090179443,73.1048583984375,90.301513671875,33.9508056640625
12.6699999,0.3926490843296051,1.802833914756775,6.4164605140686035,68.7713623046875,104.1107177734375,38.2537841796875
12.6899999,-0.14365209639072418,2.073378562927246,6.418854713439941,52.947998046875,113.1134033203125,35.980224609375
12.709999900000001,-0.7469909191131592,2.3056161403656006,6.404489517211914,61.767578125,110.8245849609375,37.5213623046875
12.729999900000001,-1.338358759880066,2.382230758666992,6.6127848625183105,72.540283203125,122.0550537109375,44.952392578125
12.7499999,-1.86508309841156,2.31758713722229,7.206547260284424,61.9659423828125,143.61572265625,44.2657470703125
12.7699999,-2.298433542251587,2.049436569213867,8.197746276855469,55.5419921875,130.4168701171875,40.863037109375
12.789999900000002,-2.6599581241607666,1.8339585065841675,9.378087997436523,70.831298828125,95.3826904296875,35.5072021484375
12.809999900000001,-2.9975404739379883,1.6376339197158813,10.575188636779785,56.671142578125,88.6993408203125,40.008544921875
12.8299999,-3.3518824577331543,1.5729905366897583,11.616666793823242,23.712158203125,103.94287109375,43.212890625
12.8499999,-3.6774938106536865,1.4221558570861816,12.49055004119873,33.9508056640625,96.954345703125,38.8641357421875
12.8699999,-3.8977603912353516,1.1875240802764893,13.206416130065918,67.5811767578125,68.0999755859375,31.494140625
12.889999900000001,-4.017470359802246,1.0295066833496094,13.61103630065918,68.756103515625,48.3856201171875,21.697998046875
12.9099999,-4.041412353515625,1.0342950820922852,13.599065780639648,32.5164794921875,49.072265625,22.705078125
12.9299999,-4.027047157287598,1.2449848651885986,13.194445610046387,23.9715576171875,50.4150390625,27.8778076171875
12.9499999,-3.9863457679748535,1.5490485429763794,12.641385078430176,41.7327880859375,40.7867431640625,27.2216796875
12.969999900000001,-3.93367338180542,1.8387469053268433,12.090718269348145,49.7283935546875,31.097412109375,21.881103515625
12.9899999,-3.909731388092041,2.073378562927246,11.559206008911133,37.5213623046875,27.52685546875,21.209716796875
13.0099999,-3.9217023849487305,2.255337953567505,11.137825965881348,27.9083251953125,31.1431884765625,23.590087890625
13.0299999,-3.9384617805480957,2.3080103397369385,10.860098838806152,34.9273681640625,32.2113037109375,21.9879150390625
13.049999900000001,-3.9217023849487305,2.2170307636260986,10.6925048828125,46.112060546875,26.702880859375,14.5111083984375
13.069999900000001,-3.861847400665283,2.03507137298584,10.563218116760254,39.581298828125,21.392822265625,7.3699951171875
13.0899999,-3.780444383621216,1.8483237028121948,10.417171478271484,30.0140380859375,23.162841796875,4.6844482421875
13.1099999,-3.7229835987091064,1.742978811264038,10.228029251098633,27.3895263671875,24.9176025390625,1.495361328125
13.129999900000001,-3.6966474056243896,1.742978811264038,10.06043529510498,24.0020751953125,23.3917236328125,-6.89697265625
13.149999900000001,-3.711012601852417,1.824381709098816,9.907206535339355,16.0064697265625,21.1334228515625,-15.13671875
13.1699999,-3.732560396194458,2.0422539710998535,9.694122314453125,10.25390625,20.4010009765625,-19.1192626953125
13.1899999,-3.7397429943084717,2.4133553504943848,9.430760383605957,7.5531005859375,22.88818359375,-17.5323486328125
13.209999900000001,-3.6750996112823486,2.8155810832977295,9.117119789123535,11.7034912109375,29.144287109375,-15.1519775390625
13.229999900000001,-3.536235809326172,3.07415509223938,8.705317497253418,7.99560546875,29.72412109375,-14.9688720703125
13.2499999,-3.3638534545898438,3.1244332790374756,8.26478385925293,-20.7061767578125,33.1573486328125,-18.7530517578125
13.2699999,-3.2321722507476807,3.0190882682800293,7.886500358581543,-53.5430908203125,44.9676513671875,-23.773193359375
13.289999900000002,-3.2585084438323975,2.920926094055176,7.649474620819092,-62.8662109375,54.412841796875,-17.8070068359375
13.309999900000001,-3.4524388313293457,2.9879636764526367,7.572859764099121,-34.5916748046875,63.90380859375,-12.1002197265625
13.3299999,-3.8522706031799316,3.2130186557769775,7.663839817047119,-15.5792236328125,76.995849609375,-4.7760009765625
13.3499999,-4.352658748626709,3.4189200401306152,8.118738174438477,-42.5567626953125,83.2672119140625,1.1749267578125
13.3699999,-4.896142482757568,3.4189200401306152,8.813055992126465,-74.005126953125,65.704345703125,-0.5950927734375
13.389999900000001,-5.39174222946167,3.2609026432037354,9.610325813293457,-53.985595703125,39.00146484375,-11.9476318359375
13.4099999,-5.781997203826904,2.978386878967285,10.290278434753418,-52.490234375,27.374267578125,-18.00537109375
13.4299999,-6.078877925872803,2.82515811920166,10.496180534362793,-55.084228515625,28.717041015625,-12.481689453125
13.4499999,-6.335057735443115,2.7892448902130127,10.144232749938965,-16.845703125,30.517578125,-4.9591064453125
13.469999900000001,-6.538564682006836,2.8179752826690674,9.605537414550781,0.7781982421875,32.684326171875,-2.4871826171875
13.4899999,-6.691793918609619,2.734178304672241,9.10993766784668,-36.7279052734375,30.0445556640625,-6.6070556640625
13.5099999,-6.787561893463135,2.585737943649292,8.738836288452148,-59.234619140625,16.4031982421875,-17.0745849609375
13.5299999,-6.794744491577148,2.3965959548950195,8.564059257507324,-60.272216796875,8.3770751953125,-19.53125
13.549999900000001,-6.7492547035217285,2.2912509441375732,8.44434928894043,-47.821044921875,10.284423828125,-13.8092041015625
13.569999900000001,-6.677428722381592,2.231395959854126,8.374917984008789,-34.2864990234375,12.115478515625,-4.608154296875
13.5899999,-6.5696892738342285,2.188300371170044,8.358158111572266,-27.8167724609375,9.521484375,-2.3956298828125
13.6099999,-6.452373504638672,2.10210919380188,8.360552787780762,-26.5960693359375,2.25830078125,-4.364013671875
13.629999900000001,-6.368576526641846,2.0374655723571777,8.358158111572266,-31.79931640625,0.1373291015625,-2.7923583984375
13.649999900000001,-6.327875137329102,1.9608511924743652,8.377311706542969,-37.29248046875,7.4005126953125,2.5634765625
13.6699999,-6.327875137329102,1.867477297782898,8.44434928894043,-33.4625244140625,11.6119384765625,3.96728515625
13.6899999,-6.337451934814453,1.702277421951294,8.583212852478027,-23.5748291015625,4.3182373046875,2.6092529296875
13.709999900000001,-6.299144744873047,1.482010841369629,8.736441612243652,-16.815185546875,-3.3111572265625,0.54931640625
13.729999900000001,-6.208165168762207,1.2713210582733154,8.75080680847168,-12.176513671875,-5.2490234375,0.2288818359375
13.7499999,-6.078877925872803,1.1204863786697388,8.607154846191406,-10.1318359375,-5.1422119140625,2.960205078125
13.7699999,-5.916072368621826,1.0534487962722778,8.379706382751465,-10.1165771484375,-6.6986083984375,4.9285888671875
13.789999900000002,-5.731719017028809,1.0606313943862915,8.13789176940918,-11.749267578125,-9.9029541015625,5.6610107421875
13.809999900000001,-5.513846397399902,1.1300631761550903,7.936778545379639,-10.8184814453125,-11.871337890625,7.568359375
13.8299999,-5.276820659637451,1.2186486721038818,7.766790390014648,-9.6893310546875,-12.542724609375,13.8092041015625
13.8499999,-5.054159641265869,1.2737152576446533,7.63989782333374,-2.99072265625,-10.80322265625,22.491455078125
13.8699999,-4.845864295959473,1.192312479019165,7.589619159698486,0.1220703125,-9.7503662109375,30.1666259765625
13.889999900000001,-4.721365928649902,1.0414776802062988,7.673416614532471,-1.0223388671875,-11.474609375,32.3486328125
13.9099999,-4.733336925506592,0.871489405632019,7.735665798187256,-9.1094970703125,-19.5159912109375,46.417236328125
13.9299999,-4.838681697845459,0.7158663272857666,7.94635534286499,-45.501708984375,-12.4053955078125,54.840087890625
13.9499999,-5.015852451324463,0.7254431247711182,8.152256965637207,-53.1158447265625,-3.7841796875,41.56494140625
13.969999900000001,-5.056553840637207,0.7493851184844971,8.497021675109863,-44.9066162109375,-12.8936767578125,45.7611083984375
13.9899999,-5.051765441894531,0.9026140570640564,8.753201484680176,-16.357421875,-39.1387939453125,67.0928955078125
14.0099999,-4.908113479614258,1.0869675874710083,8.83699893951416,-3.753662109375,-49.8809814453125,82.1533203125
14.0299999,-4.831499099731445,1.1468225717544556,8.458714485168457,-15.0146484375,-60.0738525390625,92.3309326171875
14.049999900000001,-4.924872875213623,0.7565677165985107,7.544129371643066,-17.9595947265625,-53.4515380859375,75.6683349609375
14.069999900000001,-5.085284233093262,0.37828385829925537,6.507440090179443,18.9971923828125,13.946533203125,14.22119140625
14.0899999,-5.2696380615234375,-0.033518824726343155,5.78678560256958,-20.3399658203125,65.4296875,-11.8560791015625
14.1099999,-5.52821159362793,-0.1364694982767105,5.5545477867126465,-82.70263671875,45.0897216796875,15.2587890625
14.129999900000001,-5.693411827087402,0.31124621629714966,6.0836663246154785,-68.66455078125,49.6978759765625,9.3231201171875
14.149999900000001,-5.9519853591918945,0.706289529800415,7.022193431854248,-61.2335205078125,52.6123046875,6.072998046875
14.1699999,-6.203376770019531,0.9002198576927185,8.190564155578613,-76.2786865234375,34.0118408203125,5.3558349609375
14.1899999,-6.423643112182617,1.01753568649292,9.272743225097656,-38.14697265625,13.8092041015625,-14.404296875
14.209999900000001,-6.646304130554199,0.933738648891449,9.976638793945312,-3.3721923828125,-9.21630859375,-21.453857421875
14.229999900000001,-6.799532890319824,0.993593692779541,10.170568466186523,1.2664794921875,-15.5181884765625,-16.876220703125
14.2499999,-6.943184852600098,0.9959878921508789,9.765948295593262,-3.6468505859375,-14.7552490234375,-8.453369140625
14.2699999,-7.0126166343688965,0.8307880163192749,9.028534889221191,-19.6075439453125,-10.650634765625,-11.749267578125
14.289999900000002,-6.967126846313477,0.5793967843055725,8.245630264282227,-17.120361328125,-7.232666015625,-28.228759765625
14.309999900000001,-6.789956092834473,0.2777273952960968,7.726089000701904,-20.782470703125,6.34765625,-34.271240234375
14.3299999,-6.521805286407471,0.12210428714752197,7.390900611877441,-29.205322265625,1.434326171875,-32.8216552734375
14.3499999,-6.258443355560303,-0.021547814831137657,7.376535415649414,4.2877197265625,9.552001953125,-23.6053466796875
14.3699999,-6.026205539703369,-0.15801730751991272,7.702147006988525,3.9825439453125,-0.823974609375,-34.6221923828125
14.389999900000001,-5.916072368621826,-0.3232172429561615,7.86734676361084,-16.0369873046875,-45.22705078125,-51.1474609375
14.4099999,-5.853823184967041,-0.363918662071228,8.015787124633789,-42.144775390625,-39.093017578125,-46.173095703125
14.4299999,-5.774814605712891,-0.2585737705230713,7.647080421447754,-59.967041015625,-34.881591796875,-24.1241455078125
14.4499999,-5.669469833374023,-0.13407529890537262,6.988674640655518,-0.9002685546875,7.7362060546875,3.2501220703125
14.469999900000001,-5.513846397399902,-0.07900865375995636,6.323086738586426,21.514892578125,54.9774169921875,18.4783935546875
14.4899999,-5.30076265335083,-0.20350714027881622,5.940014362335205,-21.728515625,45.6695556640625,15.0604248046875
14.5099999,-5.178658485412598,-0.36152446269989014,5.983109951019287,-48.15673828125,31.707763671875,19.4854736328125
14.5299999,-5.03021764755249,-0.42856210470199585,6.375759124755859,-30.2734375,22.216796875,3.5400390625
14.549999900000001,-4.991910457611084,-0.4213795065879822,6.8043212890625,20.2484130859375,7.6141357421875,-2.5634765625
14.569999900000001,-5.056553840637207,-0.1867477297782898,7.144298076629639,49.86572265625,4.9285888671875,16.571044921875
14.5899999,-5.2696380615234375,0.20350714027881622,7.141903877258301,62.6678466796875,15.899658203125,39.7491455078125
14.6099999,-5.612008571624756,0.6200982332229614,7.017405033111572,38.4063720703125,36.1480712890625,43.182373046875
14.629999900000001,-6.007051944732666,1.0007762908935547,6.833051681518555,10.5438232421875,48.9044189453125,50.994873046875
14.649999900000001,-6.399701118469238,1.2330138683319092,6.8162922859191895,18.9666748046875,46.417236328125,65.2618408203125
14.6699999,-6.675034523010254,1.4197616577148438,7.043741226196289,-13.3514404296875,29.1748046875,66.864013671875
14.6899999,-6.852205276489258,1.4915876388549805,7.433996200561523,-48.309326171875,-1.3885498046875,80.8868408203125
14.709999900000001,-6.9910688400268555,1.5298948287963867,7.682993412017822,-59.539794921875,-9.4146728515625,104.217529296875
14.729999900000001,-7.029376029968262,1.5849615335464478,7.694964408874512,-43.0450439453125,9.09423828125,104.9346923828125
14.7499999,-7.003039836883545,1.522712230682373,7.347805023193359,-21.1181640625,27.435302734375,96.3592529296875
14.7699999,-6.8809356689453125,1.558625340461731,6.675034523010254,-29.4952392578125,37.017822265625,98.69384765625
14.789999900000002,-6.6630635261535645,1.6089035272598267,5.8442463874816895,-41.0919189453125,46.8902587890625,102.7679443359375
14.809999900000001,-6.402095317840576,1.625662922859192,5.04218864440918,-44.7235107421875,58.4716796875,96.9390869140625
14.8299999,-6.179434776306152,1.7405846118927002,4.338293552398682,-28.3966064453125,64.4378662109375,80.8868408203125
14.8499999,-6.04775333404541,2.0470423698425293,3.773261785507202,-3.509521484375,76.9500732421875,74.8138427734375
14.8699999,-6.007051944732666,2.5713725090026855,3.6583402156829834,-34.0423583984375,98.2818603515625,82.9620361328125
14.889999900000001,-6.090848922729492,3.0765492916107178,4.0749311447143555,-83.6181640625,100.311279296875,105.9112548828125
14.9099999,-6.342240333557129,3.337517261505127,4.9583916664123535,-40.9088134765625,73.2574462890625,119.07958984375
14.9299999,-6.75883150100708,3.0382418632507324,6.064512729644775,42.816162109375,57.8460693359375,98.9990234375
14.9499999,-7.33583402633667,2.298433542251587,7.050923824310303,50.2777099609375,67.5201416015625,74.371337890625
14.969999900000001,-7.979874134063721,1.3838485479354858,7.620744228363037,17.822265625,70.4803466796875,61.2335205078125
14.9899999,-8.516175270080566,0.6392518281936646,7.939172744750977,-9.735107421875,70.404052734375,52.093505859375
15.0099999,-8.889671325683594,0.2849099934101105,8.061277389526367,-2.410888671875,58.441162109375,43.27392578125
15.0299999,-9.050082206726074,0.26815059781074524,8.178592681884766,8.148193359375,42.0074462890625,37.65869140625
15.049999900000001,-9.083600997924805,0.5434837937355042,8.176198959350586,29.205322265625,27.130126953125,29.1900634765625
15.069999900000001,-9.045293807983398,0.9792284965515137,7.979874134063721,59.0362548828125,19.71435546875,19.9127197265625
15.0899999,-8.987833023071289,1.45806884765625,7.613561630249023,53.0853271484375,25.543212890625,14.801025390625
15.1099999,-8.923190116882324,1.9752163887023926,7.01979923248291,26.6876220703125,25.970458984375,20.69091796875
15.129999900000001,-8.832210540771484,2.4372973442077637,6.44279670715332,-4.94384765625,28.106689453125,27.374267578125
15.149999900000001,-8.722076416015625,2.7557260990142822,5.963956356048584,-20.7366943359375,26.3214111328125,28.9459228515625
15.1699999,-8.5903959274292,2.892195701599121,5.669469833374023,2.1514892578125,21.78955078125,8.11767578125
15.1899999,-8.458714485168457,2.9903578758239746,5.398924827575684,48.2635498046875,18.2647705078125,-21.270751953125
15.209999900000001,-8.348581314086914,3.004723072052002,5.099649429321289,48.5687255859375,19.5770263671875,-12.4359130859375
15.229999900000001,-8.226476669311523,3.026270866394043,4.8267107009887695,6.9732666015625,27.130126953125,9.8114013671875
15.2499999,-8.121131896972656,3.0813376903533936,4.54419469833374,7.2021484375,26.214599609375,13.946533203125
15.2699999,-8.042123794555664,3.1675288677215576,4.323928356170654,20.8282470703125,18.6614990234375,19.4854736328125
15.289999900000002,-8.006210327148438,3.2800562381744385,4.163516521453857,6.744384765625,17.7001953125,31.890869140625
15.309999900000001,-8.003816604614258,3.469198226928711,4.077325344085693,-11.8560791015625,26.458740234375,30.029296875
15.3299999,-8.003816604614258,3.60566782951355,4.122815132141113,-17.486572265625,29.1748046875,25.0396728515625
15.3499999,-7.989450931549072,3.7253777980804443,4.292803764343262,-11.322021484375,15.472412109375,24.10888671875
15.3699999,-7.970297336578369,3.847482204437256,4.412513732910156,0.885009765625,5.126953125,25.6195068359375
15.389999900000001,-7.970297336578369,4.048594951629639,4.414907932281494,-2.5482177734375,14.1448974609375,28.167724609375
15.4099999,-7.982268333435059,4.302380561828613,4.32871675491333,-5.6610107421875,28.7322998046875,29.2816162109375
15.4299999,-8.015787124633789,4.537012100219727,4.211400985717773,2.532958984375,21.2554931640625,31.036376953125
15.4499999,-8.022970199584961,4.661510944366455,4.216189384460449,12.3138427734375,13.2293701171875,28.8238525390625
15.469999900000001,-8.020575523376465,4.623203277587891,4.268861770629883,11.8560791015625,13.36669921875,23.712158203125
15.4899999,-8.020575523376465,4.481945514678955,4.266467571258545,6.9427490234375,14.9688720703125,18.12744140625
15.5099999,-8.027758598327637,4.323928356170654,4.228160381317139,-1.983642578125,15.44189453125,17.08984375
15.5299999,-8.04930591583252,4.201824188232422,4.1874589920043945,-8.3465576171875,15.045166015625,19.7601318359375
15.549999900000001,-8.090007781982422,4.170699596405029,4.137180328369141,-2.50244140625,15.533447265625,19.561767578125
15.569999900000001,-8.125920295715332,4.146757125854492,4.141968727111816,1.556396484375,17.7459716796875,18.035888671875
15.5899999,-8.169015884399414,4.144362926483154,4.113238334655762,-2.3193359375,13.9617919921875,15.2130126953125
15.6099999,-8.20732307434082,4.156333923339844,4.031835556030273,-6.7901611328125,12.3443603515625,10.6353759765625
15.629999900000001,-8.274360656738281,4.223371982574463,3.8163576126098633,-5.9967041015625,18.5089111328125,9.46044921875
15.649999900000001,-8.341399192810059,4.2951979637146,3.5673606395721436,-2.3345947265625,29.6478271484375,13.1988525390625
15.6699999,-8.425195693969727,4.3622355461120605,3.3207578659057617,6.622314453125,33.294677734375,12.6495361328125
15.6899999,-8.528146743774414,4.309563159942627,3.184288263320923,5.6304931640625,29.8919677734375,11.5814208984375
15.709999900000001,-8.734047889709473,4.134786128997803,3.1747114658355713,7.476806640625,30.09033203125,8.270263671875
15.729999900000001,-9.162610054016113,3.909731388092041,3.354276657104492,20.3857421875,39.8101806640625,6.8511962890625
15.7499999,-10.04846477508545,3.270479440689087,4.017470359802246,3.6773681640625,48.1414794921875,23.13232421875
15.7699999,-11.468226432800293,2.27209734916687,5.037400245666504,37.506103515625,11.2152099609375,28.6712646484375
15.789999900000002,-13.481749534606934,0.6655880808830261,6.687005519866943,71.624755859375,-10.2691650390625,-14.4805908203125
15.809999900000001,-16.144102096557617,-1.824381709098816,8.899248123168945,-41.7327880859375,-29.8614501953125,-56.732177734375
15.8299999,-19.460071563720703,-4.039018154144287,11.432312965393066,-64.14794921875,-62.4847412109375,-134.307861328125
15.8499999,-23.3291015625,-6.3063273429870605,14.812926292419434,-120.0103759765625,-102.447509765625,-195.9991455078125
15.869999900000002,-27.676971435546875,-8.099584579467773,19.160797119140625,-210.235595703125,-170.5322265625,-247.1466064453125
15.889999900000001,-32.48931884765625,-10.043676376342773,24.54296112060547,-193.572998046875,-295.318603515625,-348.2208251953125
15.9099999,-38.09893035888672,-11.824962615966797,30.391996383666992,-186.9354248046875,-430.35888671875,-500
15.9299999,-44.14189529418945,-11.611878395080566,34.07188415527344,-132.4615478515625,-500,-500
15.9499999,-49.258304595947266,-8.880094528198242,34.39270782470703,60.8367919921875,-500,-500
15.969999900000001,-52.07867431640625,-2.4420857429504395,30.37763023376465,157.257080078125,-500,-500
15.9899999,-51.010860443115234,6.358999729156494,22.66111946105957,-0.8087158203125,-500,-469.0093994140625
16.0099999,-45.84178161621094,15.126565933227539,13.895946502685547,-139.7247314453125,-500,-378.0670166015625
16.0299999,-38.06062316894531,21.37303924560547,5.659893035888672,-139.862060546875,-425.5218505859375,-240.2191162109375
16.0499999,-29.261932373046875,23.728933334350586,-0.13407529890537262,-121.64306640625,-349.9755859375,-150.57373046875
16.0699999,-21.20783805847168,22.54619789123535,-3.0526070594787598,-130.0506591796875,-317.047119140625,-159.7137451171875
16.089999900000002,-14.882357597351074,19.07221031188965,-4.050989151000977,-40.9088134765625,-330.62744140625,-162.322998046875
16.109999900000002,-10.390835762023926,15.313314437866211,-4.022258758544922,-0.91552734375,-291.748046875,-100.40283203125
16.1299999,-7.51779317855835,12.00452709197998,-3.971980571746826,-144.622802734375,-224.9908447265625,-35.94970703125
16.1499999,-5.595249176025391,9.224859237670898,-4.05817174911499,-155.8837890625,-171.0357666015625,-26.91650390625
16.1699999,-4.2090067863464355,6.521805286407471,-3.737348794937134,-150.1007080078125,-164.5050048828125,-44.0673828125
16.1899999,-3.0310592651367188,4.343081951141357,-3.5913026332855225,-95.21484375,-182.464599609375,-64.2547607421875
16.2099999,-1.7932571172714233,2.537853717803955,-3.1866824626922607,-8.1939697265625,-137.6495361328125,-50.78125
16.2299999,-0.4620809257030487,1.2330138683319092,-3.3063924312591553,76.7669677734375,-101.6387939453125,-24.7955322265625
16.249999900000002,1.0031704902648926,0.4884171485900879,-4.082113742828369,172.9736328125,-98.388671875,-27.6336669921875
16.269999900000002,2.4827871322631836,-0.06224924325942993,-4.594472885131836,60.882568359375,-69.0155029296875,-12.847900390625
16.2899999,3.883395195007324,-0.5147533416748047,-5.140350818634033,-7.26318359375,-40.7562255859375,17.76123046875
16.3099999,5.094861030578613,-1.0534487962722778,-5.22175407409668,18.0816650390625,-35.888671875,23.6358642578125
16.3299999,6.074089527130127,-1.778891921043396,-4.836287498474121,34.698486328125,-32.1807861328125,4.8370361328125
16.3499999,6.84981107711792,-2.365471363067627,-4.3622355461120605,13.7786865234375,-31.1431884765625,-7.1868896484375
16.3699999,7.38132381439209,-2.6192567348480225,-4.240131378173828,13.6566162109375,-31.1126708984375,9.8419189453125
16.3899999,7.752425193786621,-2.5713725090026855,-4.441244125366211,7.232666015625,-0.3509521484375,31.3262939453125
16.4099999,7.979874134063721,-2.52109432220459,-4.620809078216553,-0.1983642578125,45.257568359375,27.2979736328125
16.429999900000002,8.159439086914062,-2.695871114730835,-4.292803764343262,0.030517578125,70.3125,11.71875
16.4499999,8.269572257995605,-3.0597896575927734,-3.488351821899414,-20.904541015625,59.1583251953125,9.0484619140625
16.4699999,8.370129585266113,-3.3638534545898438,-2.1284453868865967,-38.2232666015625,60.699462890625,21.2860107421875
16.4899999,8.461109161376953,-3.5434184074401855,-0.7398083209991455,-31.31103515625,73.486328125,25.6195068359375
16.5099999,8.497021675109863,-3.840299606323242,0.40940847992897034,16.5557861328125,75.714111328125,16.571044921875
16.5299999,8.556877136230469,-4.067748546600342,1.968033790588379,11.932373046875,82.3822021484375,3.6773681640625
16.5499999,8.583212852478027,-4.19224739074707,3.07415509223938,-11.2152099609375,36.8804931640625,-5.096435546875
16.5699999,8.607154846191406,-4.084507942199707,3.9624037742614746,-10.0555419921875,-0.030517578125,-2.3193359375
16.589999900000002,8.576030731201172,-3.885789394378662,4.23773717880249,10.589599609375,15.56396484375,5.4473876953125
16.609999900000002,8.497021675109863,-3.7397429943084717,3.7421371936798096,47.454833984375,35.675048828125,3.1585693359375
16.6299999,8.389283180236816,-3.5625722408294678,3.1435868740081787,23.284912109375,48.5382080078125,-5.3253173828125
16.6499999,8.271966934204102,-3.4835634231567383,2.628833532333374,-1.0986328125,45.013427734375,-0.885009765625
16.6699999,8.149862289428711,-3.2776620388031006,2.4636335372924805,19.71435546875,42.0989990234375,4.852294921875
16.6899999,8.039729118347168,-3.1100680828094482,2.5522189140319824,16.29638671875,46.3104248046875,9.8724365234375
16.7099999,7.972691535949707,-3.1292216777801514,2.7988216876983643,12.664794921875,47.3175048828125,8.8348388671875
16.7299999,7.977479934692383,-3.2297780513763428,3.026270866394043,7.4920654296875,39.9017333984375,1.953125
16.749999900000002,8.04930591583252,-3.3901896476745605,3.2130186557769775,21.2860107421875,40.9393310546875,-1.8463134765625
16.769999900000002,8.135497093200684,-3.4189200401306152,3.3638534545898438,30.4718017578125,50.0030517578125,-1.03759765625
16.7899999,8.20492935180664,-3.3063924312591553,3.4596214294433594,13.336181640625,53.314208984375,3.173828125
16.8099999,8.209717750549316,-3.134010076522827,3.584120035171509,21.6827392578125,55.6488037109375,2.2125244140625
16.8299999,8.192957878112793,-2.894589900970459,3.88818359375,15.7318115234375,61.70654296875,-0.9765625
16.8499999,8.135497093200684,-2.698265314102173,4.182670593261719,0.91552734375,56.57958984375,4.5928955078125
16.8699999,8.010998725891113,-2.5019407272338867,4.508281707763672,14.6331787109375,54.7943115234375,10.8795166015625
16.8899999,7.7883381843566895,-2.3056161403656006,4.730942726135254,31.3262939453125,62.469482421875,16.11328125
16.9099999,7.493851184844971,-2.1571757793426514,4.869806289672852,38.909912109375,71.1669921875,18.2342529296875
16.929999900000002,7.180211067199707,-2.054224967956543,4.989516258239746,35.247802734375,75.25634765625,20.44677734375
16.9499999,6.8378400802612305,-2.0039467811584473,5.078101634979248,36.7431640625,69.1986083984375,24.2156982421875
16.9699999,6.473921298980713,-2.0159177780151367,5.058948040008545,50.628662109375,61.3861083984375,30.487060546875
16.9899999,6.141127586364746,-2.0446481704711914,4.869806289672852,51.6357421875,68.9239501953125,33.5693359375
17.0099999,5.841852188110352,-2.0877439975738525,4.4532151222229,45.3033447265625,78.1707763671875,36.6973876953125
17.0299999,5.602431774139404,-2.1116859912872314,3.9671921730041504,30.914306640625,78.033447265625,44.8760986328125
17.0499999,5.327098846435547,-2.1571757793426514,3.6176388263702393,0.8697509765625,80.2764892578125,50.4302978515625
17.0699999,4.932055473327637,-2.2840683460235596,3.5434184074401855,8.7890625,86.3037109375,52.734375
17.089999900000002,4.4508209228515625,-2.4013843536376953,3.883395195007324,47.66845703125,93.048095703125,35.247802734375
17.109999900000002,3.9480385780334473,-2.4851813316345215,4.611232280731201,66.864013671875,95.8709716796875,13.24462890625
17.1299999,3.471592426300049,-2.5043349266052246,5.446808815002441,51.7730712890625,78.948974609375,18.8140869140625
17.1499999,3.157952070236206,-2.470816135406494,6.323086738586426,33.8287353515625,69.82421875,26.06201171875
17.1699999,2.96162748336792,-2.3582887649536133,6.967126846313477,45.95947265625,78.887939453125,14.22119140625
17.1899999,2.849100112915039,-2.2673089504241943,7.268796443939209,68.6492919921875,75.3936767578125,9.490966796875
17.2099999,2.738966703414917,-2.1164743900299072,7.386112213134766,55.4046630859375,79.40673828125,19.134521484375
17.2299999,2.6216509342193604,-2.006340980529785,7.419631004333496,40.740966796875,90.02685546875,26.2451171875
17.249999900000002,2.5306711196899414,-1.7357962131500244,7.613561630249023,58.53271484375,101.3031005859375,1.922607421875
17.269999900000002,2.4157495498657227,-1.5969325304031372,7.9631147384643555,64.208984375,91.796875,2.0751953125
17.2899999,2.2697031497955322,-1.4389152526855469,8.468291282653809,39.1082763671875,80.2154541015625,25.848388671875
17.3099999,2.0183119773864746,-1.4293384552001953,9.0859956741333,22.5067138671875,86.73095703125,28.7628173828125
17.3299999,1.7405846118927002,-1.4963760375976562,9.761159896850586,23.0255126953125,92.6055908203125,8.6212158203125
17.3499999,1.4987702369689941,-1.4915876388549805,10.340557098388672,24.8260498046875,72.784423828125,-5.706787109375
17.3699999,1.3431471586227417,-1.3982137441635132,10.72841739654541,22.8729248046875,56.610107421875,5.1116943359375
17.3899999,1.1875240802764893,-1.280897855758667,10.781089782714844,34.820556640625,70.98388671875,10.6201171875
17.409999900000003,0.9648633003234863,-1.2330138683319092,10.826580047607422,60.2874755859375,121.429443359375,-5.5084228515625
17.429999900000002,0.6727706789970398,-1.2282254695892334,11.044452667236328,60.516357421875,121.826171875,-24.7650146484375
17.4499999,0.3878606855869293,-1.0893617868423462,11.176133155822754,15.228271484375,35.888671875,-30.792236328125
17.4699999,0.07661445438861847,-0.6416460275650024,11.015722274780273,1.861572265625,2.6702880859375,-24.6124267578125
17.4899999,-0.23942017555236816,-0.2561795711517334,10.584765434265137,20.8892822265625,67.19970703125,6.561279296875
17.5099999,-0.5099649429321289,0.08858546614646912,10.067618370056152,46.661376953125,110.6414794921875,7.0953369140625
17.5299999,-0.7086837291717529,0.004788403399288654,9.885659217834473,38.0096435546875,74.3865966796875,-16.021728515625
17.5499999,-0.8236053586006165,-0.22266076505184174,9.99100399017334,11.23046875,30.6549072265625,-26.3214111328125
17.5699999,-0.9648633003234863,-0.3734954595565796,9.947908401489258,28.2440185546875,32.28759765625,-30.57861328125
17.589999900000002,-1.0845733880996704,-0.5506663918495178,9.84495735168457,49.4232177734375,82.0465087890625,-15.9454345703125
17.609999900000002,-1.137245774269104,-0.49320554733276367,9.964667320251465,63.4765625,124.5880126953125,-19.500732421875
17.6299999,-1.1204863786697388,-0.40222588181495667,10.369287490844727,72.509765625,82.0465087890625,-38.51318359375
17.6499999,-1.1971008777618408,-0.14844051003456116,10.706870079040527,80.810546875,23.37646484375,-35.0494384765625
17.6699999,-1.4269442558288574,0.18914192914962769,11.049241065979004,60.5926513671875,74.15771484375,-15.594482421875
17.6899999,-1.6950948238372803,0.45010992884635925,11.504138946533203,-26.2603759765625,118.0572509765625,14.892578125
17.7099999,-1.9919757843017578,0.6368576288223267,12.069170951843262,-19.683837890625,71.4263916015625,36.5447998046875
17.7299999,-2.2433669567108154,0.7182605266571045,12.69405746459961,27.191162109375,7.3394775390625,61.7523193359375
17.749999900000002,-2.4181437492370605,0.8786720037460327,13.053187370300293,7.6141357421875,-9.979248046875,79.3304443359375
17.769999900000002,-2.5522189140319824,0.933738648891449,13.022063255310059,-25.2685546875,15.80810546875,86.4105224609375
17.7899999,-2.6839001178741455,0.9097966551780701,12.6150484085083,28.3660888671875,8.6822509765625,40.0238037109375
17.8099999,-2.609679937362671,0.6991068720817566,12.413935661315918,66.497802734375,0,7.32421875
17.8299999,-2.535459518432617,0.3711012601852417,12.09311294555664,61.431884765625,0.762939453125,8.9874267578125
17.8499999,-2.3774423599243164,0.023942016065120697,11.887211799621582,61.004638671875,22.15576171875,1.89208984375
17.8699999,-2.1978771686553955,-0.24899697303771973,11.683704376220703,72.906494140625,24.4598388671875,-4.21142578125
17.8899999,-2.0374655723571777,-0.545877993106842,11.568782806396484,90.972900390625,0.3814697265625,-12.7105712890625
17.909999900000003,-1.9129672050476074,-0.7134721279144287,11.496956825256348,81.8023681640625,3.5400390625,-34.423828125
17.929999900000002,-1.8722656965255737,-0.5506663918495178,11.259930610656738,72.81494140625,35.5224609375,-62.9425048828125
17.9499999,-1.9321208000183105,-0.07900865375995636,10.939107894897461,69.8699951171875,71.77734375,-78.7811279296875
17.9699999,-2.0470423698425293,0.7589619159698486,10.618284225463867,76.3702392578125,77.8045654296875,-64.5294189453125
17.9899999,-2.2385785579681396,1.5849615335464478,10.359710693359375,46.6461181640625,62.0880126953125,-34.332275390625
18.0099999,-2.5498247146606445,2.1356279850006104,10.103530883789062,19.317626953125,65.4144287109375,-25.2838134765625
18.0299999,-2.913743495941162,2.559401512145996,9.856928825378418,2.3040771484375,98.0987548828125,-48.2635498046875
18.0499999,-3.3063924312591553,2.935291290283203,9.615114212036133,-8.36181640625,98.32763671875,-47.18017578125
18.0699999,-3.6990416049957275,3.4093432426452637,9.342175483703613,20.111083984375,75.439453125,-15.9759521484375
18.089999900000002,-4.417302131652832,3.7660791873931885,9.119514465332031,82.51953125,87.5244140625,-15.7012939453125
18.109999900000002,-4.6471452713012695,3.6966474056243896,9.030928611755371,108.1695556640625,77.9266357421875,-5.9356689453125
18.1299999,-4.776432514190674,3.335123062133789,8.951920509338379,81.8023681640625,46.4019775390625,25.299072265625
18.1499999,-4.752490520477295,3.2537200450897217,8.844181060791016,19.989013671875,58.074951171875,36.4227294921875
18.1699999,-4.714183330535889,3.1914708614349365,8.518569946289062,-24.0631103515625,52.886962890625,45.501708984375
18.1899999,-4.649539470672607,3.201047658920288,8.365341186523438,-32.9132080078125,52.9632568359375,49.8809814453125
18.2099999,-4.637568473815918,3.380612850189209,8.307879447937012,-10.6353759765625,41.07666015625,49.5452880859375
18.2299999,-4.7405195236206055,3.6583402156829834,8.202534675598145,14.09912109375,28.4423828125,50.048828125
18.249999900000002,-4.908113479614258,4.01268196105957,8.128314971923828,-6.9122314453125,45.6390380859375,65.0177001953125
18.269999900000002,-5.1116204261779785,4.189853191375732,8.042123794555664,-59.5245361328125,57.4951171875,79.9102783203125
18.2899999,-5.260061264038086,4.173093795776367,8.224082946777344,-48.1109619140625,42.510986328125,70.6787109375
18.3099999,-5.319916248321533,3.971980571746826,8.427590370178223,3.5247802734375,9.46044921875,44.036865234375
18.3299999,-5.343858242034912,3.687070608139038,8.65743350982666,21.6522216796875,-6.561279296875,23.3001708984375
18.3499999,-5.288791656494141,3.531447410583496,8.755595207214355,0.0762939453125,10.8642578125,11.8408203125
18.3699999,-5.343858242034912,3.5051112174987793,8.564059257507324,-15.472412109375,5.06591796875,2.2430419921875
18.3899999,-5.276820659637451,3.689464807510376,8.250418663024902,3.1280517578125,-2.13623046875,10.2996826171875
18.409999900000003,-5.307945251464844,4.110844135284424,7.91283655166626,-19.0277099609375,5.584716796875,8.148193359375
18.429999900000002,-5.286397457122803,4.367023944854736,7.445967197418213,-30.0750732421875,8.392333984375,23.6053466796875
18.4499999,-5.284003257751465,4.60165548324585,7.043741226196289,-41.9769287109375,10.3759765625,27.52685546875
18.4699999,-5.384559631347656,4.632780075073242,6.797138690948486,-76.9195556640625,13.61083984375,12.1917724609375
18.4899999,-5.489904403686523,4.438849925994873,6.461950302124023,-69.15283203125,6.805419921875,26.3824462890625
18.5099999,-5.659893035888672,4.201824188232422,6.236895561218262,-59.7686767578125,9.765625,30.09033203125
18.5299999,-5.762843608856201,3.9456443786621094,6.1530985832214355,-39.1998291015625,38.055419921875,20.99609375
18.5499999,-5.791574001312256,3.7158010005950928,6.246472358703613,-14.892578125,41.6259765625,17.5018310546875
18.5699999,-5.719748020172119,3.4620156288146973,6.540958881378174,4.425048828125,17.1051025390625,16.143798828125
18.589999900000002,-5.600037574768066,3.3016040325164795,6.897695064544678,-10.498046875,8.9263916015625,6.8817138671875
18.609999900000002,-5.415684223175049,3.1483752727508545,7.240066051483154,-54.5654296875,19.4244384765625,2.0904541015625
18.6299999,-5.20978307723999,3.112462282180786,7.218518257141113,-22.5982666015625,-4.791259765625,-3.4027099609375
18.6499999,-4.972756862640381,3.1292216777801514,6.964732646942139,19.4854736328125,-25.08544921875,-4.69970703125
18.6699999,-4.742913722991943,3.1890766620635986,6.313509941101074,18.157958984375,-5.6915283203125,-0.6256103515625
18.6899999,-4.575319290161133,3.2417490482330322,5.509057998657227,-35.8428955078125,20.294189453125,4.7607421875
18.7099999,-4.467580318450928,3.35667085647583,4.881777286529541,-62.0880126953125,39.642333984375,8.5296630859375
18.7299999,-4.458003520965576,3.584120035171509,4.563348293304443,-42.236328125,29.4647216796875,12.02392578125
18.749999900000002,-4.522646903991699,3.9217023849487305,4.683058738708496,-29.96826171875,28.9154052734375,16.7694091796875
18.769999900000002,-4.687847137451172,4.156333923339844,5.188235282897949,-9.5977783203125,45.3033447265625,24.4598388671875
18.7899999,-4.953603267669678,4.084507942199707,5.916072368621826,13.9312744140625,35.1409912109375,24.017333984375
18.8099999,-5.252878665924072,3.907337188720703,6.67982292175293,27.8778076171875,11.65771484375,5.7830810546875
18.8299999,-5.578489780426025,3.6942532062530518,7.407660007476807,32.2113037109375,27.435302734375,3.2501220703125
18.8499999,-5.942408561706543,3.423708438873291,7.903259754180908,9.4146728515625,40.435791015625,17.7154541015625
18.8699999,-6.145915985107422,3.579331636428833,8.090007781982422,-20.69091796875,33.50830078125,-11.322021484375
18.8899999,-6.260837554931641,3.8594532012939453,8.152256965637207,-25.87890625,42.3583984375,-21.1334228515625
18.909999900000003,-6.27280855178833,4.168305397033691,8.125920295715332,-25.69580078125,54.473876953125,19.134521484375
18.929999900000002,-6.222530364990234,4.60165548324585,7.90086555480957,-37.7655029296875,45.1202392578125,26.0467529296875
18.9499999,-6.236895561218262,4.7836151123046875,7.862558364868164,-22.27783203125,59.2498779296875,19.3634033203125
18.9699999,-6.299144744873047,4.726154327392578,7.996633529663086,-12.3748779296875,57.8155517578125,21.1639404296875
18.9899999,-6.490680694580078,4.575319290161133,8.147468566894531,17.333984375,27.5115966796875,12.298583984375
19.0099999,-6.732495307922363,4.438849925994873,8.142680168151855,37.29248046875,15.2740478515625,5.767822265625
19.0299999,-7.010222434997559,4.400542736053467,8.058882713317871,-4.608154296875,52.0782470703125,14.5721435546875
19.0499999,-7.266402244567871,4.410119533538818,7.738059997558594,-29.72412109375,58.0291748046875,27.77099609375
19.0699999,-7.395689010620117,4.486733913421631,7.4986395835876465,-28.9764404296875,48.4619140625,27.89306640625
19.089999900000002,-7.393294811248779,4.4292731285095215,7.383718013763428,-27.6641845703125,45.654296875,35.186767578125
19.109999900000002,-7.283161640167236,4.32871675491333,7.280767440795898,-36.4837646484375,46.234130859375,49.957275390625
19.1299999,-7.122750282287598,4.240131378173828,7.036558628082275,-44.37255859375,40.008544921875,60.7757568359375
19.1499999,-6.938396453857422,4.280832767486572,6.715735912322998,-42.1142578125,37.017822265625,74.0966796875
19.1699999,-6.789956092834473,4.474762916564941,6.256049156188965,-45.22705078125,39.7796630859375,100.2655029296875
19.1899999,-6.801927089691162,4.5154643058776855,5.676652431488037,-61.6302490234375,43.3807373046875,127.6092529296875
19.2099999,-6.933608055114746,4.343081951141357,5.137956619262695,-18.3563232421875,63.812255859375,103.515625
19.2299999,-7.127538681030273,4.017470359802246,4.93923807144165,21.5606689453125,92.22412109375,59.14306640625
19.249999900000002,-7.314286231994629,3.5673606395721436,5.023035049438477,-21.636962890625,88.7298583984375,51.849365234375
19.269999900000002,-7.38132381439209,3.406949043273926,5.410895824432373,-74.9664306640625,74.52392578125,56.9305419921875
19.2899999,-7.3693528175354,3.5745432376861572,5.827486991882324,-100.830078125,73.3642578125,64.117431640625
19.3099999,-7.297526836395264,3.9480385780334473,6.095637321472168,-94.085693359375,73.1048583984375,78.5675048828125
19.3299999,-7.240066051483154,4.378994941711426,6.117185115814209,-72.845458984375,62.7288818359375,90.850830078125
19.3499999,-7.1706342697143555,4.786009311676025,5.916072368621826,-41.9158935546875,55.877685546875,95.1385498046875
19.3699999,-7.1251444816589355,5.109226226806641,5.578489780426025,-16.8914794921875,59.417724609375,96.9085693359375
19.3899999,-7.074865818023682,5.293580055236816,5.2049946784973145,-18.4326171875,61.4471435546875,107.0709228515625
19.409999900000003,-7.024587631225586,5.329493045806885,4.865017890930176,-16.05224609375,62.8662109375,111.7401123046875
19.429999900000002,-6.955155849456787,5.16429328918457,4.69024133682251,0.7781982421875,65.887451171875,102.8289794921875
19.4499999,-6.871358871459961,4.738125324249268,4.661510944366455,-0.335693359375,59.5245361328125,89.78271484375
19.4699999,-6.787561893463135,4.173093795776367,4.656722068786621,7.2479248046875,51.1016845703125,64.788818359375
19.4899999,-6.708553314208984,3.711012601852417,4.608838081359863,11.6119384765625,53.863525390625,32.8216552734375
19.5099999,-6.631938934326172,3.579331636428833,4.577713489532471,-13.275146484375,63.17138671875,15.9912109375
19.5299999,-6.572083473205566,3.8115692138671875,4.525041103363037,-30.6854248046875,58.1817626953125,22.552490234375
19.5499999,-6.524199485778809,4.24970817565918,4.6255974769592285,-26.1383056640625,44.9371337890625,33.7066650390625
19.5699999,-6.507440090179443,4.666299343109131,4.797980308532715,-13.4124755859375,26.4739990234375,29.754638671875
19.589999900000002,-6.538564682006836,4.9368438720703125,4.924872875213623,-10.1165771484375,11.9171142578125,19.6075439453125
19.609999900000002,-6.581660270690918,5.082890033721924,4.994304656982422,-26.4129638671875,7.8125,11.3677978515625
19.6299999,-6.636727333068848,5.238513469696045,4.98472785949707,-41.778564453125,2.044677734375,7.38525390625
19.6499999,-6.708553314208984,5.47075080871582,4.8937482833862305,-31.097412109375,-4.7760009765625,3.4027099609375
19.6699999,-6.761225700378418,5.791574001312256,4.845864295959473,6.439208984375,8.1329345703125,-7.2479248046875
19.6899999,-6.821080684661865,6.090848922729492,4.733336925506592,20.6756591796875,11.627197265625,2.197265625
19.7099999,-6.852205276489258,6.232107162475586,4.697423934936523,13.1683349609375,11.9171142578125,11.4288330078125
19.7299999,-6.856993675231934,6.215347766876221,4.6950297355651855,2.01416015625,3.3111572265625,9.6282958984375
19.749999900000002,-6.8378400802612305,6.021417140960693,4.730942726135254,0.9002685546875,-6.561279296875,7.4615478515625
19.769999900000002,-6.8162922859191895,5.750872611999512,4.711789131164551,1.220703125,-5.8441162109375,7.843017578125
19.7899999,-6.7923502922058105,5.525817394256592,4.565742492675781,5.4473876953125,0.7171630859375,3.875732421875
19.8099999,-6.756437301635742,5.370194435119629,4.309563159942627,15.9454345703125,5.4168701171875,-1.3275146484375
19.8299999,-6.7061591148376465,5.324704647064209,4.000710964202881,15.8233642578125,7.476806640625,-3.509521484375
19.8499999,-6.660669326782227,5.353435039520264,3.754108190536499,1.312255859375,10.833740234375,-1.5411376953125
19.8699999,-6.643909931182861,5.427655220031738,3.60566782951355,-7.7056884765625,12.298583984375,-0.8697509765625
19.8899999,-6.665457725524902,5.566518783569336,3.5027170181274414,2.9296875,11.53564453125,-4.4708251953125
19.909999900000003,-6.715735912322998,5.700594425201416,3.490746021270752,6.6986083984375,16.9830322265625,-3.631591796875
19.929999900000002,-6.785167694091797,5.813121795654297,3.5170822143554688,0.1983642578125,22.491455078125,0.9765625
19.9499999,-6.897695064544678,5.875370979309082,3.509899616241455,8.48388671875,24.2462158203125,1.5411376953125
19.9699999,-7.024587631225586,5.918466567993164,3.5051112174987793,15.5181884765625,31.9976806640625,-0.42724609375
19.9899999,-7.249642848968506,5.872976779937744,3.4811692237854004,11.8865966796875,39.5050048828125,4.1351318359375
20.0099999,-7.630321025848389,5.552153587341309,3.450044631958008,32.135009765625,48.187255859375,11.7340087890625
20.0299999,-8.35336971282959,4.73573112487793,3.536235809326172,65.97900390625,64.3463134765625,2.3193359375
20.0499999,-9.770736694335938,2.920926094055176,4.003105163574219,70.2056884765625,83.0230712890625,-35.2783203125
20.0699999,-12.121843338012695,0.4165911078453064,5.623979568481445,86.3800048828125,102.5238037109375,-114.2578125
20.089999900000002,-15.612588882446289,-2.2194249629974365,9.119514465332031,87.7838134765625,97.686767578125,-210.9527587890625
20.109999900000002,-20.55182647705078,-5.082890033721924,15.210363388061523,-78.704833984375,13.3209228515625,-249.3743896484375
20.1299999,-26.80308723449707,-7.175422668457031,23.113622665405273,-59.2803955078125,-177.5970458984375,-289.55078125
20.1499999,-34.586639404296875,-8.638279914855957,30.229190826416016,313.232421875,-415.069580078125,-345.9320068359375
20.1699999,-42.195411682128906,-8.346187591552734,34.957740783691406,314.239501953125,-448.8983154296875,-353.5308837890625
20.1899999,-49.004520416259766,-5.585672378540039,34.50523376464844,-31.494140625,-491.7755126953125,-371.03271484375
20.2099999,-52.81369400024414,-0.33279404044151306,29.242778778076172,15.19775390625,-500,-334.3505859375
20.2299999,-52.93579864501953,6.076483726501465,20.436904907226562,122.4822998046875,-500,-244.3084716796875
20.249999900000002,-49.622222900390625,12.526463508605957,10.745177268981934,-83.0078125,-500,-214.3096923828125
20.269999900000002,-44.02458190917969,17.07305145263672,2.698265314102173,-263.214111328125,-500,-203.277587890625
20.2899999,-37.744590759277344,19.184738159179688,-2.5043349266052246,-222.4884033203125,-500,-176.666259765625
20.3099999,-32.046390533447266,19.524715423583984,-4.2760443687438965,-156.2042236328125,-497.3602294921875,-201.202392578125
20.3299999,-27.3537540435791,18.66040802001953,-4.8937482833862305,-37.139892578125,-476.959228515625,-205.2764892578125
20.3499999,-23.240516662597656,17.322050094604492,-5.315127849578857,48.675537109375,-440.8416748046875,-132.476806640625
