# Time (seconds),Accel_X,Accel_Y,Accel_Z,Gyro_X,Gyro_Y,Gyro_Z
0.0099999,9.770736694335938,0.10295066982507706,-1.3766659498214722,-0.4425048828125,2.5177001953125,0.1220703125
0.029999900000000003,9.775525093078613,0.1173158809542656,-1.3766659498214722,0.9918212890625,1.4495849609375,1.3275146484375
0.0499999,9.765948295593262,0.10773907601833344,-1.3551181554794312,0.4425048828125,2.288818359375,0.457763671875
0.0699999,9.746794700622559,0.08858546614646912,-1.338358759880066,0.4425048828125,1.8768310546875,-0.30517578125
0.08999990000000001,9.739612579345703,0.05027823522686958,-1.3407529592514038,0.4425048828125,1.8768310546875,-0.3814697265625
0.10999990000000001,9.734824180603027,0.05267243832349777,-1.3479355573654175,-1.007080078125,4.1046142578125,-1.6632080078125
0.1299999,9.734824180603027,0.06703764945268631,-1.3431471586227417,-1.190185546875,5.615234375,-1.617431640625
0.14999990000000002,9.734824180603027,0.09816227108240128,-1.3407529592514038,0.7781982421875,3.0975341796875,-0.030517578125
0.1699999,9.737217903137207,0.14365209639072418,-1.3120225667953491,1.0223388671875,3.1890869140625,-0.5950927734375
0.1899999,9.737217903137207,0.17956513166427612,-1.290474772453308,-0.244140625,3.387451171875,-0.335693359375
0.20999990000000002,9.734824180603027,0.19153612852096558,-1.2737152576446533,-0.091552734375,2.50244140625,1.0528564453125
0.2299999,9.725247383117676,0.20111294090747833,-1.2473790645599365,0.4425048828125,1.0223388671875,1.068115234375
0.2499999,9.710882186889648,0.17477671802043915,-1.237802267074585,0.823974609375,-0.1983642578125,1.1138916015625
0.2699999,9.6989107131958,0.13168109953403473,-1.2306196689605713,0.152587890625,0.396728515625,1.1138916015625
0.28999990000000003,9.68694019317627,0.11252748221158981,-1.2306196689605713,-1.6326904296875,1.5411376953125,-0.6866455078125
0.3099999,9.684545516967773,0.08858546614646912,-1.2425906658172607,-0.18310546875,0.1678466796875,0.396728515625
0.3299999,9.68694019317627,0.11013327538967133,-1.2425906658172607,0.91552734375,-0.2593994140625,1.007080078125
0.34999990000000003,9.6989107131958,0.12689268589019775,-1.2521674633026123,0,0.5035400390625,1.190185546875
0.3699999,9.715670585632324,0.14365209639072418,-1.280897855758667,0.4730224609375,-0.4425048828125,1.40380859375
0.3899999,9.730035781860352,0.13407529890537262,-1.292868971824646,-0.6256103515625,0.54931640625,0.9307861328125
0.40999990000000003,9.742006301879883,0.0933738648891449,-1.3215993642807007,-0.30517578125,0.701904296875,1.03759765625
0.4299999,9.739612579345703,0.05506663769483566,-1.3263877630233765,0.0152587890625,0.54931640625,-0.030517578125
0.4499999,9.732429504394531,0.0071826050989329815,-1.3239935636520386,-0.5340576171875,1.4801025390625,-0.1220703125
0.4699999,9.72285270690918,-0.002394201699644327,-1.3239935636520386,0.244140625,0.579833984375,-0.0457763671875
0.4899999,9.715670585632324,0.009576806798577309,-1.3000515699386597,-0.762939453125,1.46484375,-0.2288818359375
0.5099999,9.715670585632324,0.016759412363171577,-1.314416766166687,1.8157958984375,-0.335693359375,1.3885498046875
0.5299999,9.727641105651855,0.040701430290937424,-1.314416766166687,1.40380859375,0.335693359375,0.2288818359375
0.5499999,9.742006301879883,0.0454898327589035,-1.3287819623947144,0.0762939453125,2.1514892578125,-0.6561279296875
0.5699999,9.763554573059082,0.05267243832349777,-1.359906554222107,1.4190673828125,0.7171630859375,0.2899169921875
0.5899998999999999,9.765948295593262,0.07182604819536209,-1.3503297567367554,0.6561279296875,2.13623046875,-0.030517578125
0.6099998999999999,9.765948295593262,0.08140286058187485,-1.3503297567367554,0.9765625,1.6021728515625,0.732421875
0.6299999,9.749189376831055,0.09576806426048279,-1.3263877630233765,1.1444091796875,0.4119873046875,0.5035400390625
0.6499999,9.727641105651855,0.09576806426048279,-1.3000515699386597,-0.1373291015625,1.3275146484375,0.091552734375
0.6699999,9.6989107131958,0.0933738648891449,-1.2737152576446533,-0.42724609375,1.220703125,-0.1983642578125
0.6899999,9.667786598205566,0.08140286058187485,-1.2497732639312744,0.54931640625,0.8697509765625,0.1373291015625
0.7099999,9.639056205749512,0.06464344263076782,-1.2258312702178955,1.0528564453125,-0.0152587890625,-0.1373291015625
0.7299998999999999,9.627084732055664,0.035913024097681046,-1.2234370708465576,0.701904296875,-0.67138671875,-0.3662109375
0.7499998999999999,9.636661529541016,0.019153613597154617,-1.259350061416626,0.6561279296875,-1.007080078125,-1.434326171875
0.7699999,9.66539192199707,0.026336219161748886,-1.2832920551300049,-1.46484375,1.800537109375,-2.01416015625
0.7899999,9.703699111938477,0.06224924325942993,-1.314416766166687,-1.678466796875,1.5716552734375,-0.9613037109375
0.8099999,9.739612579345703,0.10773907601833344,-1.316810965538025,0.3814697265625,-0.823974609375,0.6103515625
0.8299999,9.770736694335938,0.14604631066322327,-1.3096283674240112,-1.0528564453125,-0.67138671875,0.42724609375
0.8499998999999999,9.792284965515137,0.15322890877723694,-1.316810965538025,-2.3040771484375,-0.2899169921875,0.274658203125
0.8699998999999999,9.80904483795166,0.13407529890537262,-1.3455413579940796,-1.1138916015625,0.2899169921875,0.518798828125
0.8899999,9.813833236694336,0.10534487664699554,-1.3670891523361206,-0.1068115234375,1.77001953125,-0.396728515625
0.9099999,9.80904483795166,0.07422025501728058,-1.381454348564148,0.4119873046875,1.9989013671875,-0.1983642578125
0.9299999,9.794678688049316,0.05506663769483566,-1.37906014919281,0.579833984375,0.946044921875,-0.1678466796875
0.9499999,9.773131370544434,0.05746084079146385,-1.3503297567367554,-0.457763671875,1.800537109375,-0.4119873046875
0.9699998999999999,9.75397777557373,0.07182604819536209,-1.3431471586227417,-0.5340576171875,1.1749267578125,-0.06103515625
0.9899998999999999,9.739612579345703,0.0933738648891449,-1.3335703611373901,-0.6866455078125,1.52587890625,0.54931640625
1.0099999,9.725247383117676,0.1149216815829277,-1.338358759880066,-1.129150390625,2.1820068359375,0.79345703125
1.0299999,9.710882186889648,0.10055647045373917,-1.3455413579940796,-0.0152587890625,1.3580322265625,1.6326904296875
1.0499999,9.68933391571045,0.07661445438861847,-1.338358759880066,0.579833984375,1.190185546875,1.0833740234375
1.0699999,9.672574996948242,0.026336219161748886,-1.3287819623947144,0.0457763671875,1.0833740234375,-0.0152587890625
1.0899999,9.658209800720215,-0.016759412363171577,-1.316810965538025,0.3204345703125,0.9307861328125,-0.6256103515625
1.1099999,9.653421401977539,-0.014365210197865963,-1.3072341680526733,-0.030517578125,1.0986328125,-1.64794921875
1.1299999,9.66299819946289,0.016759412363171577,-1.3072341680526733,0.152587890625,0.762939453125,-0.6103515625
1.1499999,9.682151794433594,0.08140286058187485,-1.314416766166687,0.2593994140625,0.1678466796875,0.8087158203125
1.1699998999999999,9.696516990661621,0.12449848651885986,-1.3239935636520386,0.42724609375,0.6866455078125,1.0986328125
1.1899998999999999,9.691728591918945,0.12689268589019775,-1.338358759880066,0.152587890625,0.5950927734375,0.91552734375
1.2099999,9.670180320739746,0.10295066982507706,-1.338358759880066,-0.8544921875,0.8697509765625,-1.251220703125
1.2299999,9.636661529541016,0.05985504388809204,-1.3263877630233765,-0.3509521484375,0.06103515625,-1.4495849609375
1.2499999,9.617507934570312,0.05027823522686958,-1.3072341680526733,0.030517578125,-1.28173828125,-1.2054443359375
1.2699999,9.627084732055664,0.05027823522686958,-1.3120225667953491,0.579833984375,-2.0599365234375,-0.152587890625
1.2899999,9.670180320739746,0.06703764945268631,-1.335964560508728,0.2288818359375,-0.9002685546875,-0.091552734375
1.3099999,9.730035781860352,0.09576806426048279,-1.3838485479354858,-0.3509521484375,-0.274658203125,-1.129150390625
1.3299999,9.792284965515137,0.11252748221158981,-1.436521053314209,-0.1220703125,0,-0.1068115234375
1.3499999,9.837775230407715,0.14365209639072418,-1.455674648284912,-1.5869140625,1.1444091796875,-0.335693359375
1.3699999,9.859322547912598,0.16519992053508759,-1.4532804489135742,-2.1820068359375,1.4190673828125,-0.2288818359375
1.3899999,9.861717224121094,0.16759411990642548,-1.4245500564575195,0.396728515625,1.1444091796875,0.5645751953125
1.4099999,9.849745750427246,0.15083470940589905,-1.4053963422775269,0.946044921875,0.7171630859375,1.2359619140625
1.4299998999999999,9.823410034179688,0.12928688526153564,-1.3742717504501343,-1.0223388671875,2.471923828125,-0.1983642578125
1.4499999,9.78989028930664,0.09816227108240128,-1.3623007535934448,-1.6021728515625,2.7313232421875,-0.030517578125
1.4699999,9.75397777557373,0.06703764945268631,-1.3646949529647827,0.823974609375,0.518798828125,1.2359619140625
1.4899999,9.72285270690918,0.05267243832349777,-1.3551181554794312,-1.0528564453125,2.5634765625,-0.1373291015625
1.5099999,9.696516990661621,0.047884032130241394,-1.3646949529647827,-1.556396484375,2.0294189453125,-0.30517578125
1.5299999,9.677363395690918,0.0454898327589035,-1.3623007535934448,0.152587890625,0.762939453125,1.0986328125
1.5499999,9.66299819946289,0.05267243832349777,-1.359906554222107,0.5645751953125,1.251220703125,1.220703125
1.5699999,9.653421401977539,0.08140286058187485,-1.3263877630233765,-0.823974609375,1.953125,0
1.5899999,9.655815124511719,0.08140286058187485,-1.3239935636520386,0.5035400390625,-0.30517578125,2.166748046875
1.6099999,9.658209800720215,0.0933738648891449,-1.3096283674240112,0.79345703125,-0.6561279296875,2.3956298828125
1.6299999,9.66299819946289,0.090979665517807,-1.3072341680526733,-1.007080078125,1.190185546875,0.885009765625
1.6499999,9.667786598205566,0.06464344263076782,-1.3215993642807007,-0.8697509765625,-0.244140625,1.0833740234375
1.6699999,9.674968719482422,0.033518824726343155,-1.3263877630233765,-0.3662109375,-0.274658203125,1.3275146484375
1.6899998999999999,9.68694019317627,0.019153613597154617,-1.3407529592514038,-0.2288818359375,-0.2288818359375,0.06103515625
1.7099999,9.710882186889648,0.011971008032560349,-1.359906554222107,0.1220703125,0.152587890625,0.213623046875
1.7299999,9.734824180603027,0.035913024097681046,-1.3766659498214722,-0.4730224609375,0.579833984375,0.3509521484375
1.7499999,9.761159896850586,0.05985504388809204,-1.3934253454208374,-0.4119873046875,0.213623046875,1.40380859375
1.7699999,9.77791976928711,0.0694318488240242,-1.4077905416488647,-0.3509521484375,0.5340576171875,1.5716552734375
1.7899999,9.782708168029785,0.06464344263076782,-1.4077905416488647,-0.48828125,1.251220703125,0.8544921875
1.8099999,9.773131370544434,0.038307227194309235,-1.4053963422775269,0.0152587890625,1.6021728515625,0.6103515625
1.8299999,9.751583099365234,0.026336219161748886,-1.3862427473068237,0.06103515625,0.9002685546875,0.5950927734375
1.8499999,9.72285270690918,0.002394201699644327,-1.3479355573654175,-0.79345703125,1.1444091796875,1.251220703125
1.8699999,9.706093788146973,-0.023942016065120697,-1.3527239561080933,1.64794921875,-0.5340576171875,1.89208984375
1.8899999,9.701305389404297,-0.05027823522686958,-1.3623007535934448,0.2899169921875,0.518798828125,-0.2593994140625
1.9099999,9.708487510681152,-0.0694318488240242,-1.3934253454208374,-2.7313232421875,2.8533935546875,-1.6632080078125
1.9299998999999999,9.72285270690918,-0.06703764945268631,-1.4173674583435059,-2.593994140625,2.2125244140625,-0.823974609375
1.9499999,9.739612579345703,-0.05267243832349777,-1.41257905960083,-2.7008056640625,0.7781982421875,-0.0457763671875
1.9699999,9.746794700622559,-0.028730420395731926,-1.3934253454208374,-2.716064453125,-0.1983642578125,-0.42724609375
1.9899999,9.749189376831055,-0.014365210197865963,-1.3694833517074585,-1.708984375,0.4730224609375,-0.3814697265625
2.0099999,9.749189376831055,-0.0071826050989329815,-1.3670891523361206,0.8544921875,0.2593994140625,0.3204345703125
2.0299999,9.744400978088379,0.019153613597154617,-1.357512354850769,-0.1220703125,1.190185546875,-0.2593994140625
2.0499999,9.742006301879883,0.026336219161748886,-1.3646949529647827,0.762939453125,0.5645751953125,0.8087158203125
2.0699999,9.734824180603027,0.040701430290937424,-1.3670891523361206,1.312255859375,0.42724609375,0.701904296875
2.0899999,9.72285270690918,0.033518824726343155,-1.3694833517074585,0.3662109375,1.007080078125,0.1678466796875
2.1099999,9.708487510681152,0.031124621629714966,-1.3694833517074585,0.1068115234375,0.9002685546875,-0.0457763671875
2.1299999,9.696516990661621,0.016759412363171577,-1.3718775510787964,1.2359619140625,0.6561279296875,0.4425048828125
2.1499999,9.682151794433594,0.014365210197865963,-1.3718775510787964,1.9073486328125,0.274658203125,0.7781982421875
2.1699999,9.674968719482422,-0.004788403399288654,-1.37906014919281,1.15966796875,-0.18310546875,1.3275146484375
2.1899999,9.667786598205566,-0.011971008032560349,-1.3838485479354858,1.0986328125,-0.518798828125,0.54931640625
2.2099999,9.667786598205566,-0.031124621629714966,-1.3958195447921753,1.068115234375,-0.946044921875,1.3580322265625
2.2299999,9.672574996948242,-0.05746084079146385,-1.4197616577148438,2.5482177734375,-1.46484375,2.197265625
2.2499999,9.679757118225098,-0.05506663769483566,-1.4269442558288574,0.79345703125,0.9307861328125,-0.3509521484375
2.2699999,9.694122314453125,-0.06464344263076782,-1.4437036514282227,0.091552734375,0.7476806640625,-0.42724609375
2.2899999,9.706093788146973,-0.05746084079146385,-1.4460978507995605,0.0457763671875,0.335693359375,-0.2899169921875
2.3099999,9.718064308166504,-0.028730420395731926,-1.4317326545715332,-0.9918212890625,1.52587890625,-1.251220703125
2.3299999,9.727641105651855,-0.026336219161748886,-1.436521053314209,0.579833984375,0.5950927734375,-0.0457763671875
2.3499999,9.732429504394531,-0.014365210197865963,-1.434126853942871,1.373291015625,0.5035400390625,-0.2288818359375
2.3699999,9.737217903137207,-0.031124621629714966,-1.434126853942871,0.701904296875,1.4801025390625,-0.6256103515625
2.3899999,9.737217903137207,-0.023942016065120697,-1.4389152526855469,-0.3662109375,1.0528564453125,-1.64794921875
2.4099999,9.742006301879883,-0.023942016065120697,-1.4413094520568848,0.8087158203125,0.4425048828125,-0.4425048828125
2.4299999,9.744400978088379,-0.002394201699644327,-1.4508862495422363,0.732421875,1.0528564453125,-0.0762939453125
2.4499999,9.746794700622559,0.026336219161748886,-1.4508862495422363,-0.67138671875,2.2735595703125,-1.03759765625
2.4699999,9.744400978088379,0.035913024097681046,-1.4484920501708984,-0.457763671875,2.044677734375,-0.4425048828125
2.4899999,9.730035781860352,0.05267243832349777,-1.4293384552001953,-0.4119873046875,1.2969970703125,-0.3662109375
2.5099999,9.710882186889648,0.038307227194309235,-1.4053963422775269,0.5950927734375,1.5869140625,0.4425048828125
2.5299999,9.694122314453125,0.026336219161748886,-1.3982137441635132,1.1444091796875,0.579833984375,0.2288818359375
2.5499999,9.68694019317627,0.002394201699644327,-1.3958195447921753,-0.18310546875,1.0223388671875,-0.732421875
2.5699999,9.68933391571045,-0.0071826050989329815,-1.4053963422775269,-0.1373291015625,1.2359619140625,-0.48828125
2.5899999,9.6989107131958,-0.002394201699644327,-1.4293384552001953,1.03759765625,0.48828125,0.2288818359375
2.6099999,9.710882186889648,0.014365210197865963,-1.4317326545715332,-0.4425048828125,1.861572265625,0.0152587890625
2.6299999,9.715670585632324,0.026336219161748886,-1.4460978507995605,-0.0762939453125,0.885009765625,0.274658203125
2.6499999,9.715670585632324,0.033518824726343155,-1.4413094520568848,-0.06103515625,0.7171630859375,0.0152587890625
2.6699999,9.706093788146973,0.035913024097681046,-1.4460978507995605,0.2899169921875,0.8697509765625,0.0152587890625
2.6899999,9.696516990661621,0.026336219161748886,-1.4389152526855469,0.2899169921875,1.6326904296875,0.3814697265625
2.7099999,9.691728591918945,0.009576806798577309,-1.4508862495422363,0.701904296875,0.7171630859375,0.5340576171875
2.7299999,9.691728591918945,-0.002394201699644327,-1.4508862495422363,0.18310546875,1.434326171875,-0.4425048828125
2.7499999,9.701305389404297,-0.021547814831137657,-1.460463047027588,-0.244140625,1.6937255859375,-0.3204345703125
2.7699999,9.713275909423828,0,-1.45806884765625,-0.30517578125,1.251220703125,-0.6256103515625
2.7899999,9.727641105651855,0.016759412363171577,-1.45806884765625,-0.30517578125,1.220703125,0.5035400390625
2.8099999,9.734824180603027,0.035913024097681046,-1.45806884765625,0.30517578125,1.251220703125,1.4190673828125
2.8299999,9.732429504394531,0.040701430290937424,-1.4460978507995605,-0.335693359375,2.8228759765625,0.3509521484375
2.8499999,9.720458984375,0.028730420395731926,-1.434126853942871,-0.1678466796875,1.953125,-0.3509521484375
2.8699999,9.706093788146973,0.002394201699644327,-1.414973258972168,0.5950927734375,1.190185546875,0.4730224609375
2.8899999,9.68933391571045,-0.009576806798577309,-1.4053963422775269,0.30517578125,0.5645751953125,0.6256103515625
2.9099999,9.682151794433594,-0.026336219161748886,-1.3934253454208374,-0.3662109375,1.7852783203125,0.2899169921875
2.9299999,9.684545516967773,-0.026336219161748886,-1.4053963422775269,0.579833984375,1.0986328125,0.1983642578125
2.9499999,9.691728591918945,-0.021547814831137657,-1.4077905416488647,-0.3662109375,1.2664794921875,0.3814697265625
2.9699999,9.701305389404297,-0.0071826050989329815,-1.4197616577148438,-1.3427734375,1.7547607421875,0.396728515625
2.9899999,9.706093788146973,0.0071826050989329815,-1.41257905960083,-1.77001953125,2.3956298828125,0.091552734375
3.0099999,9.706093788146973,0.021547814831137657,-1.3982137441635132,-1.6632080078125,1.89208984375,0.3509521484375
3.0299999,9.696516990661621,0.014365210197865963,-1.3718775510787964,-0.6256103515625,0.3814697265625,1.2054443359375
3.0499999,9.68933391571045,-0.0071826050989329815,-1.357512354850769,-1.0986328125,-0.1220703125,1.251220703125
3.0699999,9.684545516967773,-0.05027823522686958,-1.359906554222107,-0.6103515625,0.48828125,0.18310546875
3.0899999,9.694122314453125,-0.08140286058187485,-1.381454348564148,0.396728515625,0.7781982421875,-0.54931640625
3.1099999,9.710882186889648,-0.10055647045373917,-1.4053963422775269,0.5645751953125,0.9002685546875,-0.1678466796875
3.1299999,9.727641105651855,-0.09576806426048279,-1.4245500564575195,0,0.6256103515625,0.823974609375
3.1499999,9.746794700622559,-0.08379705995321274,-1.4437036514282227,-0.335693359375,0.5950927734375,0.18310546875
3.1699999,9.751583099365234,-0.06224924325942993,-1.4413094520568848,-1.28173828125,1.9989013671875,-0.579833984375
3.1899999,9.75637149810791,-0.05027823522686958,-1.455674648284912,0.732421875,0.885009765625,0.2593994140625
3.2099999,9.746794700622559,-0.0454898327589035,-1.4460978507995605,1.007080078125,1.129150390625,1.0223388671875
3.2299999,9.737217903137207,-0.047884032130241394,-1.4437036514282227,-0.18310546875,1.8310546875,0.1068115234375
3.2499999,9.72285270690918,-0.05746084079146385,-1.4460978507995605,-0.54931640625,1.373291015625,-0.9765625
3.2699999,9.710882186889648,-0.05267243832349777,-1.4317326545715332,-1.28173828125,1.9683837890625,-0.6256103515625
3.2899999,9.703699111938477,-0.033518824726343155,-1.414973258972168,0.42724609375,1.5869140625,0.9002685546875
3.3099999,9.696516990661621,-0.016759412363171577,-1.3958195447921753,1.8463134765625,0.6256103515625,1.77001953125
3.3299999000000002,9.694122314453125,-0.004788403399288654,-1.3766659498214722,0.79345703125,0.91552734375,0.7171630859375
3.3499999,9.694122314453125,-0.011971008032560349,-1.37906014919281,0.06103515625,0.9918212890625,0.3509521484375
3.3699999,9.696516990661621,-0.016759412363171577,-1.3934253454208374,-0.3509521484375,1.1444091796875,0.396728515625
3.3899999,9.691728591918945,-0.009576806798577309,-1.3910311460494995,-1.0223388671875,1.9683837890625,0.396728515625
3.4099999,9.68933391571045,-0.026336219161748886,-1.3982137441635132,1.03759765625,0.79345703125,1.6326904296875
3.4299999,9.684545516967773,-0.040701430290937424,-1.403002142906189,1.5869140625,-0.3814697265625,1.220703125
3.4499999,9.68694019317627,-0.07182604819536209,-1.4101848602294922,-0.6256103515625,1.434326171875,-0.4730224609375
3.4699999,9.694122314453125,-0.08858546614646912,-1.4317326545715332,-0.5645751953125,0.9613037109375,-0.732421875
3.4899999,9.710882186889648,-0.08140286058187485,-1.4389152526855469,0.152587890625,1.03759765625,0.0152587890625
3.5099999,9.727641105651855,-0.05506663769483566,-1.434126853942871,0.2288818359375,1.3275146484375,-0.0152587890625
3.5299999,9.742006301879883,-0.026336219161748886,-1.4269442558288574,-0.244140625,1.0223388671875,0.2899169921875
3.5499999,9.746794700622559,-0.002394201699644327,-1.4101848602294922,-0.7171630859375,1.4190673828125,-0.1373291015625
3.5699999,9.742006301879883,0.004788403399288654,-1.4053963422775269,-0.1220703125,1.0833740234375,0.5340576171875
3.5899999,9.730035781860352,-0.0071826050989329815,-1.3982137441635132,-0.152587890625,1.312255859375,0.4730224609375
3.6099999,9.713275909423828,-0.014365210197865963,-1.3958195447921753,-0.5340576171875,1.3580322265625,-0.1373291015625
3.6299999,9.703699111938477,-0.06224924325942993,-1.3982137441635132,0.0457763671875,0.8697509765625,0.885009765625
3.6499999,9.696516990661621,-0.08858546614646912,-1.4053963422775269,-0.274658203125,0.8087158203125,-0.244140625
3.6699999,9.694122314453125,-0.12449848651885986,-1.4077905416488647,-0.9002685546875,1.46484375,-1.40380859375
3.6899999,9.694122314453125,-0.12210428714752197,-1.403002142906189,0.2593994140625,0.9002685546875,-0.762939453125
3.7099999,9.6989107131958,-0.11013327538967133,-1.403002142906189,1.739501953125,0.48828125,0.2899169921875
3.7299999,9.706093788146973,-0.0694318488240242,-1.400607943534851,0.79345703125,1.0223388671875,0.30517578125
3.7499999,9.718064308166504,-0.035913024097681046,-1.4053963422775269,-0.91552734375,1.434326171875,-0.579833984375
3.7699999,9.72285270690918,-0.009576806798577309,-1.4197616577148438,0.06103515625,0.579833984375,0.0762939453125
3.7899999,9.718064308166504,0.004788403399288654,-1.4053963422775269,-0.48828125,1.5716552734375,0.732421875
3.8099999,9.708487510681152,-0.004788403399288654,-1.4077905416488647,0.3662109375,0.7781982421875,1.068115234375
3.8299999000000002,9.694122314453125,-0.019153613597154617,-1.3982137441635132,0.8544921875,0,0.4119873046875
3.8499999,9.68933391571045,-0.05746084079146385,-1.403002142906189,-0.091552734375,0.1220703125,0.3204345703125
3.8699999,9.694122314453125,-0.08379705995321274,-1.414973258972168,-0.42724609375,0.06103515625,0.1220703125
3.8899999,9.706093788146973,-0.09816227108240128,-1.434126853942871,-0.3509521484375,0.6256103515625,-0.5035400390625
3.9099999,9.720458984375,-0.0933738648891449,-1.4389152526855469,0.152587890625,1.40380859375,-0.518798828125
3.9299999,9.730035781860352,-0.08379705995321274,-1.4484920501708984,1.251220703125,0.7781982421875,0.8544921875
3.9499999,9.734824180603027,-0.0694318488240242,-1.4484920501708984,0.7781982421875,0.3509521484375,0.79345703125
3.9699999,9.734824180603027,-0.05506663769483566,-1.4532804489135742,-0.91552734375,1.0223388671875,-0.42724609375
3.9899999,9.725247383117676,-0.06224924325942993,-1.4532804489135742,-0.5340576171875,1.2969970703125,0.6561279296875
4.0099999,9.713275909423828,-0.0694318488240242,-1.4508862495422363,0.9765625,1.4190673828125,0.7781982421875
4.029999900000001,9.6989107131958,-0.08140286058187485,-1.436521053314209,0.8392333984375,0.762939453125,0.18310546875
4.0499999,9.68933391571045,-0.10055647045373917,-1.4245500564575195,-0.640869140625,0.5340576171875,0.030517578125
4.069999900000001,9.684545516967773,-0.10295066982507706,-1.4221558570861816,-0.3509521484375,0.4119873046875,-0.4730224609375
4.0899999000000005,9.694122314453125,-0.10534487664699554,-1.4317326545715332,-0.091552734375,1.6326904296875,-0.18310546875
4.1099999,9.706093788146973,-0.08858546614646912,-1.4389152526855469,-0.7781982421875,1.6937255859375,-0.457763671875
4.1299999000000005,9.720458984375,-0.07900865375995636,-1.4460978507995605,-0.8697509765625,0.91552734375,0.274658203125
4.1499999,9.730035781860352,-0.07182604819536209,-1.4532804489135742,0,-0.06103515625,0.7476806640625
4.1699999000000005,9.737217903137207,-0.07900865375995636,-1.4484920501708984,-0.5645751953125,1.220703125,0.0152587890625
4.1899999,9.734824180603027,-0.09576806426048279,-1.4484920501708984,-0.2593994140625,1.129150390625,-0.6103515625
4.209999900000001,9.730035781860352,-0.10773907601833344,-1.4484920501708984,0.823974609375,0.4119873046875,-0.6256103515625
4.2299999,9.727641105651855,-0.10055647045373917,-1.4532804489135742,0.1373291015625,0.9613037109375,-1.129150390625
4.249999900000001,9.72285270690918,-0.0454898327589035,-1.4460978507995605,-1.617431640625,2.01416015625,-1.5411376953125
4.2699999,9.72285270690918,0,-1.4317326545715332,-0.54931640625,2.166748046875,0.9765625
4.289999900000001,9.718064308166504,0.038307227194309235,-1.4245500564575195,1.5716552734375,0,2.227783203125
4.3099999,9.710882186889648,0.026336219161748886,-1.4245500564575195,-0.0457763671875,0.5645751953125,0.946044921875
4.329999900000001,9.706093788146973,-0.011971008032560349,-1.4389152526855469,-1.1749267578125,1.89208984375,-0.54931640625
4.3499999,9.6989107131958,-0.06224924325942993,-1.45806884765625,-0.3509521484375,1.9989013671875,0.1068115234375
4.369999900000001,9.696516990661621,-0.11013327538967133,-1.4724340438842773,1.03759765625,1.1749267578125,1.007080078125
4.3899999,9.696516990661621,-0.13168109953403473,-1.4676456451416016,1.0833740234375,1.251220703125,-0.335693359375
4.409999900000001,9.703699111938477,-0.15562310814857483,-1.479616641998291,0.640869140625,1.1138916015625,-0.5340576171875
4.4299999,9.72285270690918,-0.14365209639072418,-1.4891934394836426,-0.0152587890625,2.0751953125,-0.8392333984375
4.449999900000001,9.742006301879883,-0.11013327538967133,-1.4915876388549805,-0.67138671875,3.173828125,-0.3662109375
4.4699999,9.75637149810791,-0.0694318488240242,-1.4915876388549805,0.823974609375,1.800537109375,0.946044921875
4.489999900000001,9.761159896850586,-0.033518824726343155,-1.4676456451416016,0.823974609375,2.8228759765625,0.8544921875
4.5099999,9.75397777557373,-0.016759412363171577,-1.436521053314209,0.5340576171875,3.0670166015625,0.457763671875
4.529999900000001,9.739612579345703,-0.026336219161748886,-1.4245500564575195,0.7476806640625,1.7547607421875,0.8697509765625
4.5499999,9.720458984375,-0.038307227194309235,-1.4053963422775269,-0.0762939453125,2.13623046875,0.3204345703125
4.569999900000001,9.703699111938477,-0.06464344263076782,-1.403002142906189,-0.1983642578125,2.960205078125,0.244140625
4.5899999000000005,9.696516990661621,-0.0933738648891449,-1.434126853942871,1.9989013671875,0.9613037109375,0.79345703125
4.609999900000001,9.6989107131958,-0.1149216815829277,-1.4508862495422363,1.7242431640625,2.7313232421875,-0.6256103515625
4.6299999000000005,9.703699111938477,-0.12928688526153564,-1.479616641998291,0.946044921875,3.6163330078125,-1.4495849609375
4.6499999,9.701305389404297,-0.14604631066322327,-1.4460978507995605,1.739501953125,3.7078857421875,-0.762939453125
4.6699999000000005,9.708487510681152,-0.1173158809542656,-1.414973258972168,2.5634765625,1.2969970703125,-1.2054443359375
4.6899999,9.701305389404297,-0.08140286058187485,-1.3335703611373901,2.7923583984375,1.2664794921875,-0.8392333984375
4.709999900000001,9.706093788146973,-0.031124621629714966,-1.259350061416626,-1.2664794921875,4.058837890625,0.5645751953125
4.7299999,9.703699111938477,0.009576806798577309,-1.213860273361206,0.823974609375,0.1220703125,1.007080078125
4.749999900000001,9.696516990661621,0.0071826050989329815,-1.1803414821624756,-0.1678466796875,0.67138671875,1.7242431640625
4.7699999,9.679757118225098,-0.028730420395731926,-1.1755530834197998,-0.8697509765625,1.2359619140625,0.48828125
4.789999900000001,9.66299819946289,-0.10055647045373917,-1.2066776752471924,0.79345703125,0.640869140625,0.885009765625
4.8099999,9.641449928283691,-0.17477671802043915,-1.2473790645599365,1.1749267578125,0.030517578125,0.2899169921875
4.829999900000001,9.627084732055664,-0.2298433631658554,-1.292868971824646,-0.2899169921875,0.823974609375,-1.0986328125
4.8499999,9.615114212036133,-0.24181437492370605,-1.3192051649093628,-0.5950927734375,0.762939453125,-1.739501953125
4.869999900000001,9.619902610778809,-0.2106897532939911,-1.3455413579940796,0.91552734375,-1.03759765625,-0.6561279296875
4.8899999,9.634267807006836,-0.15562310814857483,-1.357512354850769,1.373291015625,-1.556396484375,0.2288818359375
4.909999900000001,9.660603523254395,-0.0933738648891449,-1.381454348564148,0.4425048828125,-0.5035400390625,0.244140625
4.9299999,9.694122314453125,-0.05985504388809204,-1.4077905416488647,-0.3509521484375,-0.091552734375,-0.1983642578125
4.949999900000001,9.730035781860352,-0.0454898327589035,-1.434126853942871,0.0457763671875,-0.1373291015625,0.06103515625
4.9699999,9.758766174316406,-0.040701430290937424,-1.4484920501708984,1.2664794921875,-0.457763671875,-0.4119873046875
4.989999900000001,9.780313491821289,-0.019153613597154617,-1.45806884765625,0.518798828125,0.6866455078125,-0.518798828125
5.0099999,9.785101890563965,-0.0071826050989329815,-1.4532804489135742,-0.335693359375,1.03759765625,0.6866455078125
5.029999900000001,9.775525093078613,0.009576806798577309,-1.4437036514282227,-0.518798828125,0.762939453125,1.129150390625
5.0499999,9.746794700622559,0.009576806798577309,-1.4173674583435059,-0.30517578125,0.244140625,-0.152587890625
5.069999900000001,9.715670585632324,-0.026336219161748886,-1.3934253454208374,0.2899169921875,0.2899169921875,0.640869140625
5.0899999000000005,9.68933391571045,-0.05027823522686958,-1.381454348564148,0.152587890625,-0.244140625,-0.0457763671875
5.109999900000001,9.679757118225098,-0.08619125932455063,-1.381454348564148,-0.701904296875,0.0457763671875,-0.2899169921875
5.1299999000000005,9.684545516967773,-0.10773907601833344,-1.3982137441635132,-1.0986328125,0.091552734375,-0.213623046875
5.1499999,9.691728591918945,-0.10534487664699554,-1.403002142906189,-1.1444091796875,1.15966796875,-0.701904296875
5.1699999000000005,9.691728591918945,-0.10773907601833344,-1.3910311460494995,-0.0457763671875,0.3204345703125,0.701904296875
5.1899999,9.682151794433594,-0.10773907601833344,-1.359906554222107,0.8087158203125,-0.9613037109375,1.40380859375
5.209999900000001,9.660603523254395,-0.13407529890537262,-1.3096283674240112,-0.2288818359375,-0.91552734375,0.244140625
5.2299999,9.639056205749512,-0.17477671802043915,-1.2689268589019775,-0.6561279296875,-1.312255859375,-0.3509521484375
5.249999900000001,9.619902610778809,-0.21787235140800476,-1.237802267074585,-0.1220703125,-1.983642578125,-0.457763671875
5.2699999,9.615114212036133,-0.24420857429504395,-1.1971008777618408,0.0152587890625,-1.617431640625,-0.7476806640625
5.289999900000001,9.627084732055664,-0.2298433631658554,-1.1324573755264282,-0.823974609375,-1.0833740234375,-2.0904541015625
5.3099999,9.682151794433594,-0.16519992053508759,-0.9959878921508789,-1.2664794921875,-1.5716552734375,-1.0833740234375
5.329999900000001,9.773131370544434,-0.028730420395731926,-0.7254431247711182,2.01416015625,-1.129150390625,0.9307861328125
5.3499999,9.926360130310059,0.004788403399288654,-0.3064578175544739,1.3580322265625,-0.946044921875,5.9814453125
5.369999900000001,10.065223693847656,0.038307227194309235,0.35913026332855225,-8.697509765625,2.3956298828125,0.8697509765625
5.3899999,10.20648193359375,-0.2059013396501541,1.1563993692398071,-6.103515625,-1.4801025390625,-0.244140625
5.409999900000001,10.271124839782715,-0.5506663918495178,2.032677173614502,-5.157470703125,-2.4871826171875,-11.04736328125
5.4299999,10.412383079528809,-0.7637503147125244,2.9472622871398926,-10.0860595703125,10.3302001953125,-28.3203125
5.449999900000001,10.63743782043457,-0.706289529800415,3.6990416049957275,-11.8560791015625,6.317138671875,-29.8919677734375
5.4699999,11.02051067352295,-0.4165911078453064,4.479551315307617,-19.0582275390625,4.4708251953125,-13.0615234375
5.489999900000001,11.432312965393066,-0.19871874153614044,4.9368438720703125,-13.275146484375,-16.9219970703125,-3.5552978515625
5.5099999,11.688492774963379,-0.33039984107017517,5.418078422546387,-33.538818359375,-2.5177001953125,-24.6124267578125
5.529999900000001,11.695674896240234,-0.545877993106842,5.473145008087158,-39.764404296875,-5.401611328125,-46.7681884765625
5.5499999,11.276689529418945,-0.6584054827690125,5.339069843292236,-13.5498046875,-25.5126953125,-35.247802734375
5.569999900000001,10.60152530670166,-0.24181437492370605,4.745307922363281,10.5438232421875,-29.4189453125,0.6866455078125
5.5899999000000005,9.761159896850586,0.706289529800415,3.5625722408294678,25.4364013671875,-44.6319580078125,20.1873779296875
5.609999900000001,8.841787338256836,2.3989901542663574,1.5466543436050415,37.7960205078125,-51.1474609375,36.6668701171875
5.6299999000000005,8.068459510803223,2.8658595085144043,-1.6328455209732056,-10.5438232421875,-54.13818359375,77.056884765625
5.6499999,7.259219646453857,2.9927520751953125,-5.135562419891357,-177.1087646484375,-12.8021240234375,-34.1339111328125
5.6699999000000005,6.466738700866699,2.5977089405059814,-8.38688850402832,-212.554931640625,16.2506103515625,-172.1038818359375
5.6899999,6.074089527130127,2.0614075660705566,-10.769119262695312,-72.8302001953125,-42.5872802734375,-98.69384765625
5.709999900000001,6.519411087036133,2.8419175148010254,-11.947066307067871,8.5296630859375,-107.48291015625,-4.2724609375
5.7299999,8.279149055480957,4.134786128997803,-12.983756065368652,-23.8800048828125,-126.7547607421875,34.637451171875
5.749999900000001,10.594342231750488,4.290409564971924,-14.03959846496582,-13.641357421875,-62.713623046875,125.518798828125
5.7699999,12.069170951843262,2.583343744277954,-14.216769218444824,47.91259765625,70.098876953125,145.1263427734375
5.789999900000001,11.707646369934082,0.12689268589019775,-12.708422660827637,65.4754638671875,133.9111328125,14.2669677734375
5.8099999,9.50498104095459,-1.941697597503662,-9.217676162719727,42.0989990234375,61.5234375,-74.64599609375
5.829999900000001,6.813898086547852,-1.946485996246338,-4.6255974769592285,7.9345703125,-23.3154296875,-43.1671142578125
5.8499999,5.118803024291992,-0.023942016065120697,-0.9840168952941895,-12.26806640625,-68.450927734375,17.303466796875
5.869999900000001,4.991910457611084,1.9081788063049316,0.6272808313369751,-2.288818359375,-62.3779296875,69.5953369140625
5.8899999,5.95677375793457,2.5737667083740234,0.22266076505184174,10.07080078125,-27.0843505859375,65.9027099609375
5.909999900000001,7.232883453369141,1.9249382019042969,-1.0845733880996704,5.096435546875,-0.9613037109375,8.1024169921875
5.9299999,8.279149055480957,0.751779317855835,-2.4803929328918457,-2.3040771484375,-1.556396484375,-34.1339111328125
5.949999900000001,8.980650901794434,-0.047884032130241394,-3.3255462646484375,-8.1634521484375,-6.9427490234375,-28.961181640625
5.9699999,9.399636268615723,-0.07422025501728058,-3.646369218826294,-8.3465576171875,-3.875732421875,-9.1552734375
5.989999900000001,9.691728591918945,0.27054479718208313,-3.713406801223755,-6.591796875,-0.8697509765625,0.6866455078125
6.0099999,9.880870819091797,0.629675030708313,-3.6080620288848877,-4.1351318359375,1.007080078125,-1.7242431640625
6.029999900000001,10.012551307678223,0.7565677165985107,-3.536235809326172,-0.701904296875,2.86865234375,-3.3111572265625
6.0499999,10.065223693847656,0.6967126727104187,-3.4404678344726562,-3.997802734375,10.55908203125,-5.4779052734375
6.069999900000001,9.998186111450195,0.5363011956214905,-3.3039982318878174,-7.14111328125,14.007568359375,-11.7034912109375
6.0899999000000005,9.816226959228516,0.3878606855869293,-3.136404275894165,-5.828857421875,7.8582763671875,-17.7001953125
6.109999900000001,9.600749015808105,0.4118026793003082,-2.892195701599121,-3.143310546875,6.378173828125,-19.3328857421875
6.1299999000000005,9.44991397857666,0.5722141861915588,-2.693476915359497,-1.2359619140625,4.486083984375,-9.94873046875
6.149999900000001,9.44991397857666,0.8259995579719543,-2.583343744277954,-1.800537109375,1.1749267578125,1.0223388671875
6.1699999000000005,9.545681953430176,0.9600749015808105,-2.6001031398773193,-1.708984375,-0.7476806640625,5.0201416015625
6.1899999,9.677363395690918,0.8954314589500427,-2.7102363109588623,0.06103515625,1.983642578125,2.197265625
6.209999900000001,9.775525093078613,0.7182605266571045,-2.9089550971984863,6.103515625,5.767822265625,-2.7618408203125
6.2299999,9.775525093078613,0.5123591423034668,-3.021482467651367,10.2996826171875,12.8173828125,-1.6021728515625
6.249999900000001,9.691728591918945,0.44771572947502136,-3.043030261993408,8.1634521484375,13.3056640625,-0.8087158203125
6.2699999,9.536105155944824,0.4572925269603729,-2.9496564865112305,6.3629150390625,6.5460205078125,-0.3662109375
6.289999900000001,9.339780807495117,0.5099649429321289,-2.7772738933563232,3.448486328125,6.40869140625,-1.2969970703125
6.3099999,9.155426979064941,0.5746083855628967,-2.63362193107605,1.1444091796875,5.6610107421875,-5.157470703125
6.329999900000001,9.011775016784668,0.6584054827690125,-2.5450363159179688,0.42724609375,2.044677734375,-6.3934326171875
6.3499999,8.913613319396973,0.7374141216278076,-2.4851813316345215,-0.701904296875,1.3580322265625,-3.662109375
6.369999900000001,8.863334655761719,0.8307880163192749,-2.434903144836426,-3.173828125,0.91552734375,-3.2806396484375
6.3899999,8.882488250732422,0.8810662031173706,-2.4660277366638184,-2.7008056640625,-5.37109375,-3.5400390625
6.409999900000001,8.944737434387207,0.8786720037460327,-2.5043349266052246,-1.7852783203125,-5.0048828125,-2.3956298828125
6.4299999,9.059659004211426,0.8140285611152649,-2.6216509342193604,-1.983642578125,-2.1209716796875,-1.5869140625
6.449999900000001,9.198522567749023,0.7158663272857666,-2.762908697128296,-0.8392333984375,-1.9378662109375,-2.899169921875
6.4699999,9.32541561126709,0.6344634294509888,-2.8419175148010254,-0.640869140625,0.244140625,-6.439208984375
6.489999900000001,9.423578262329102,0.6177040338516235,-2.9041666984558105,-0.1678466796875,-1.800537109375,-6.40869140625
6.5099999,9.48343276977539,0.667982280254364,-2.8826189041137695,-1.5869140625,-0.91552734375,-3.0975341796875
6.529999900000001,9.497797966003418,0.7422025203704834,-2.849100112915039,-3.9215087890625,-0.1220703125,-1.52587890625
6.5499999,9.493009567260742,0.7781155705451965,-2.827552318572998,-4.638671875,-0.4730224609375,-2.410888671875
6.569999900000001,9.481039047241211,0.7781155705451965,-2.8419175148010254,-2.3345947265625,0.396728515625,-3.662109375
6.5899999000000005,9.464279174804688,0.7086837291717529,-2.889801502227783,2.716064453125,3.082275390625,-1.0528564453125
6.609999900000001,9.461885452270508,0.6584054827690125,-2.9759926795959473,2.4871826171875,6.988525390625,-1.6326904296875
6.6299999000000005,9.457097053527832,0.6272808313369751,-3.0358476638793945,1.2969970703125,10.101318359375,-3.509521484375
6.649999900000001,9.433155059814453,0.6009446382522583,-3.0406360626220703,2.471923828125,11.6424560546875,-1.9683837890625
6.6699999000000005,9.39245319366455,0.6440402865409851,-2.9975404739379883,2.6092529296875,10.467529296875,-3.3416748046875
6.6899999,9.339780807495117,0.6871358752250671,-2.913743495941162,2.4566650390625,8.7432861328125,-3.11279296875
6.709999900000001,9.282320022583008,0.7350199222564697,-2.7772738933563232,2.99072265625,10.3302001953125,-1.556396484375
6.7299999,9.253589630126953,0.790086567401886,-2.7030537128448486,4.3792724609375,5.06591796875,-2.777099609375
6.749999900000001,9.260771751403809,0.8547300100326538,-2.5977089405059814,2.5177001953125,4.852294921875,-4.08935546875
6.7699999,9.287108421325684,0.933738648891449,-2.564189910888672,3.265380859375,3.173828125,-1.6326904296875
6.789999900000001,9.327810287475586,0.9888052940368652,-2.540247917175293,4.5013427734375,1.4190673828125,1.8463134765625
6.8099999,9.363722801208496,1.015141487121582,-2.557007312774658,4.3792724609375,-0.0762939453125,0.2593994140625
6.829999900000001,9.39245319366455,0.9648633003234863,-2.5905263423919678,2.1209716796875,1.220703125,-2.6397705078125
6.8499999,9.409213066101074,0.933738648891449,-2.6360161304473877,1.4801025390625,1.4495849609375,-5.615234375
6.869999900000001,9.421183586120605,0.912190854549408,-2.6599581241607666,2.3956298828125,2.197265625,-3.9825439453125
6.8899999,9.421183586120605,0.9624691009521484,-2.676717519760132,1.922607421875,0.3814697265625,-2.9296875
6.909999900000001,9.41639518737793,1.039083480834961,-2.6575639247894287,-0.06103515625,-0.3204345703125,-2.5634765625
6.9299999,9.406818389892578,1.113303780555725,-2.6408045291900635,-0.2899169921875,-0.885009765625,-1.1444091796875
6.949999900000001,9.399636268615723,1.1563993692398071,-2.631227731704712,0.4730224609375,-2.166748046875,0.030517578125
6.9699999,9.394847869873047,1.158793568611145,-2.647987127304077,0.3509521484375,-3.0517578125,0.0762939453125
6.989999900000001,9.385271072387695,1.1037269830703735,-2.6839001178741455,0,-1.6326904296875,-0.762939453125
7.0099999,9.363722801208496,1.0342950820922852,-2.7030537128448486,-1.5106201171875,1.220703125,-3.2501220703125
7.029999900000001,9.32541561126709,0.9744400978088379,-2.7246015071868896,-1.5411376953125,-0.3204345703125,-5.4931640625
7.0499999,9.282320022583008,0.9481038451194763,-2.7006595134735107,-1.1749267578125,-1.983642578125,-5.43212890625
7.069999900000001,9.251194953918457,0.993593692779541,-2.695871114730835,-1.3275146484375,-3.0517578125,-5.31005859375
7.0899999000000005,9.253589630126953,1.0630255937576294,-2.669534921646118,-2.777099609375,-0.7171630859375,-4.1351318359375
7.109999900000001,9.29189682006836,1.1324573755264282,-2.695871114730835,-2.86865234375,-1.5869140625,-2.5787353515625
7.1299999000000005,9.35893440246582,1.1563993692398071,-2.7222073078155518,-1.800537109375,-2.1514892578125,-1.7852783203125
7.149999900000001,9.440337181091309,1.1324573755264282,-2.779668092727661,-0.48828125,-0.9918212890625,-2.3193359375
7.1699999000000005,9.509769439697266,1.091755986213684,-2.849100112915039,0.6103515625,0.3662109375,-3.23486328125
7.1899999,9.552865028381348,1.0678139925003052,-2.8802247047424316,-0.3509521484375,3.7689208984375,-2.716064453125
7.209999900000001,9.560047149658203,1.0773907899856567,-2.8778305053710938,-0.5035400390625,2.197265625,-1.64794921875
7.2299999,9.5408935546875,1.1085153818130493,-2.8347349166870117,0.6561279296875,0.5645751953125,-0.091552734375
7.249999900000001,9.502586364746094,1.1276689767837524,-2.7892448902130127,1.6021728515625,-0.7476806640625,0.518798828125
7.2699999,9.469067573547363,1.1228805780410767,-2.7676970958709717,0.8087158203125,0.7171630859375,1.556396484375
7.289999900000001,9.440337181091309,1.0869675874710083,-2.7940332889556885,1.2664794921875,1.5869140625,2.1820068359375
7.3099999,9.411606788635254,1.048660397529602,-2.8131868839263916,2.0751953125,2.3651123046875,1.89208984375
7.329999900000001,9.378087997436523,1.0199298858642578,-2.8107926845550537,1.52587890625,3.8909912109375,2.4566650390625
7.3499999,9.330204010009766,1.0055646896362305,-2.82515811920166,3.753662109375,-1.220703125,5.18798828125
7.369999900000001,9.279925346374512,0.9457096457481384,-2.7940332889556885,5.340576171875,1.0223388671875,7.8887939453125
7.3899999,9.222464561462402,0.9313444495201111,-2.7772738933563232,4.1351318359375,3.3721923828125,2.50244140625
7.409999900000001,9.181763648986816,0.8619126081466675,-2.7533318996429443,5.5694580078125,1.2969970703125,2.9144287109375
7.4299999,9.169792175292969,0.8547300100326538,-2.741360902786255,5.859375,0.1373291015625,3.41796875
7.449999900000001,9.17936897277832,0.8834604024887085,-2.7030537128448486,5.096435546875,1.77001953125,1.89208984375
7.4699999,9.217676162719727,0.9050082564353943,-2.717418909072876,5.5694580078125,0.9002685546875,3.7689208984375
7.489999900000001,9.258378028869629,0.950498104095459,-2.698265314102173,3.387451171875,1.89208984375,1.9989013671875
7.5099999,9.296685218811035,0.950498104095459,-2.6886885166168213,3.2501220703125,0.7476806640625,0.9613037109375
7.529999900000001,9.32302188873291,0.950498104095459,-2.691082715988159,3.692626953125,-1.2969970703125,0.396728515625
7.5499999,9.354146003723145,0.9457096457481384,-2.691082715988159,2.2125244140625,-0.8544921875,-1.068115234375
7.569999900000001,9.39245319366455,0.9552865028381348,-2.719813108444214,-0.42724609375,0.5035400390625,-1.800537109375
7.5899999000000005,9.433155059814453,0.9744400978088379,-2.7557260990142822,0.4425048828125,-0.762939453125,-0.0152587890625
7.609999900000001,9.476250648498535,0.9792284965515137,-2.8227639198303223,2.3651123046875,-1.15966796875,1.9378662109375
7.6299999000000005,9.497797966003418,0.9576807022094727,-2.851494312286377,3.23486328125,1.6937255859375,2.1514892578125
7.649999900000001,9.50498104095459,0.9361328482627869,-2.9041666984558105,2.471923828125,0.4730224609375,0.48828125
7.6699999000000005,9.48343276977539,0.8906430602073669,-2.892195701599121,1.129150390625,1.0528564453125,0.7171630859375
7.6899999,9.433155059814453,0.8547300100326538,-2.8826189041137695,1.3275146484375,-0.4730224609375,0.9613037109375
7.709999900000001,9.368511199951172,0.8020575642585754,-2.8610711097717285,0.8087158203125,-0.579833984375,-1.1749267578125
7.7299999,9.287108421325684,0.7541735172271729,-2.832340717315674,0.2899169921875,0.3204345703125,-4.0435791015625
7.749999900000001,9.2033109664917,0.7230489253997803,-2.7964274883270264,-0.1068115234375,0.8697509765625,-5.828857421875
7.7699999,9.136273384094238,0.7326257228851318,-2.7509377002716064,-1.251220703125,-1.220703125,-7.2174072265625
7.789999900000001,9.10993766784668,0.8020575642585754,-2.715024709701538,-3.173828125,-2.471923828125,-8.97216796875
7.8099999,9.126696586608887,0.9026140570640564,-2.719813108444214,-2.410888671875,-3.631591796875,-7.476806640625
7.829999900000001,9.188945770263672,1.0223240852355957,-2.7557260990142822,-0.6256103515625,-2.6092529296875,-4.21142578125
7.8499999,9.284713745117188,1.091755986213684,-2.8562827110290527,1.4495849609375,-3.204345703125,-1.03759765625
7.869999900000001,9.368511199951172,1.1204863786697388,-2.937685489654541,2.13623046875,-0.4119873046875,-1.708984375
7.8899999,9.421183586120605,1.1061211824417114,-2.999934673309326,3.72314453125,0.0457763671875,-2.3345947265625
7.909999900000001,9.437943458557129,1.05105459690094,-3.043030261993408,5.9967041015625,-2.6702880859375,-0.152587890625
7.9299999,9.406818389892578,1.0199298858642578,-3.028665065765381,5.4168701171875,-1.3885498046875,-0.732421875
7.949999900000001,9.361329078674316,1.01753568649292,-3.00711727142334,2.685546875,1.312255859375,-3.5247802734375
7.9699999,9.311050415039062,1.0271124839782715,-2.9544448852539062,3.936767578125,-0.701904296875,-0.4730224609375
7.989999900000001,9.284713745117188,1.05105459690094,-2.9472622871398926,7.14111328125,-4.9896240234375,3.4332275390625
8.0099999,9.296685218811035,1.072602391242981,-2.96162748336792,7.62939453125,-3.936767578125,3.7689208984375
8.0299999,9.327810287475586,1.0342950820922852,-3.043030261993408,6.5765380859375,0.091552734375,3.509521484375
8.049999900000001,9.370905876159668,0.9864110946655273,-3.1076738834381104,5.4473876953125,3.448486328125,1.2054443359375
8.069999900000001,9.394847869873047,0.9433154463768005,-3.181894063949585,5.8441162109375,-0.30517578125,-0.4119873046875
8.0899999,9.385271072387695,0.9193734526634216,-3.1747114658355713,5.9661865234375,-1.0986328125,0.9918212890625
8.1099999,9.349357604980469,0.9481038451194763,-3.157952070236206,4.4708251953125,-1.800537109375,0.67138671875
8.129999900000001,9.299078941345215,0.9864110946655273,-3.07415509223938,2.7313232421875,-4.608154296875,0.9765625
8.149999900000001,9.232041358947754,1.0295066833496094,-3.069366693496704,4.058837890625,-14.9993896484375,-0.4730224609375
8.1699999,9.121908187866211,1.091755986213684,-3.0621838569641113,-3.1280517578125,-14.3890380859375,-4.1656494140625
8.1899999,8.987833023071289,1.1659762859344482,-3.203441858291626,-7.568359375,-12.3748779296875,-2.2125244140625
8.2099999,8.80587387084961,1.235408067703247,-3.361459255218506,-5.37109375,-9.3841552734375,5.6610107421875
8.229999900000001,8.5903959274292,1.235408067703247,-3.464409828186035,0.3662109375,-4.5928955078125,12.3443603515625
8.2499999,8.398859977722168,1.094150185585022,-3.60566782951355,-1.4190673828125,-11.41357421875,5.67626953125
8.2699999,8.24084186553955,0.9002198576927185,-3.689464807510376,-12.87841796875,-7.476806640625,-10.1318359375
8.2899999,8.154650688171387,0.7038952708244324,-3.7229835987091064,-12.8021240234375,5.7220458984375,-15.6707763671875
8.309999900000001,8.142680168151855,0.6057330369949341,-3.751713991165161,4.69970703125,1.3580322265625,-6.317138671875
8.3299999,8.200140953063965,0.6512228846549988,-3.6559460163116455,13.3514404296875,-3.692626953125,-4.5318603515625
8.3499999,8.300697326660156,0.8667010068893433,-3.5482068061828613,5.18798828125,-3.47900390625,-11.383056640625
8.3699999,8.44195556640625,1.1300631761550903,-3.404554843902588,0.2288818359375,1.922607421875,-6.866455078125
8.389999900000001,8.592789649963379,1.359906554222107,-3.3207578659057617,8.1329345703125,-0.7171630859375,5.2337646484375
8.4099999,8.731653213500977,1.4867992401123047,-3.248931646347046,12.75634765625,-6.8359375,7.720947265625
8.4299999,8.829815864562988,1.436521053314209,-3.2178070545196533,9.3536376953125,-8.758544921875,3.997802734375
8.4499999,8.913613319396973,1.292868971824646,-3.201047658920288,3.814697265625,-10.4827880859375,1.2664794921875
8.469999900000001,9.002198219299316,1.139639973640442,-3.220201253890991,-2.044677734375,-17.08984375,1.9683837890625
8.4899999,9.148244857788086,0.9624691009521484,-3.3279404640197754,-0.06103515625,-23.92578125,6.0882568359375
8.5099999,9.361329078674316,0.8307880163192749,-3.5625722408294678,9.1094970703125,-24.47509765625,7.8887939453125
8.5299999,9.617507934570312,0.8331822156906128,-3.9432501792907715,12.4359130859375,-17.303466796875,3.0670166015625
8.549999900000001,9.847352027893066,1.0031704902648926,-4.388571739196777,11.199951171875,-14.312744140625,6.439208984375
8.569999900000001,10.012551307678223,1.2689268589019775,-4.845864295959473,7.0953369140625,-15.5181884765625,19.561767578125
8.5899999,10.053253173828125,1.4748282432556152,-5.224148273468018,2.6092529296875,-8.941650390625,28.350830078125
8.6099999,9.988609313964844,1.4197616577148438,-5.57370138168335,2.0904541015625,1.739501953125,27.3590087890625
8.629999900000001,9.86650562286377,1.1300631761550903,-5.813121795654297,3.662109375,11.90185546875,19.256591796875
8.649999900000001,9.68694019317627,0.6967126727104187,-5.8203043937683105,9.552001953125,25.93994140625,18.524169921875
8.6699999,9.512163162231445,0.17238251864910126,-5.568912982940674,18.1121826171875,32.40966796875,25.2532958984375
8.6899999,9.368511199951172,-0.26336219906806946,-5.1810526847839355,18.0511474609375,27.6031494140625,12.481689453125
8.709999900000001,9.294290542602539,-0.5027823448181152,-4.704606533050537,5.06591796875,31.341552734375,-10.1776123046875
8.729999900000001,9.258378028869629,-0.47165772318840027,-4.185064792633057,0.885009765625,43.6553955078125,-11.16943359375
8.7499999,9.220070838928223,-0.05506663769483566,-3.0621838569641113,14.7247314453125,35.8123779296875,11.627197265625
8.7699999,9.220070838928223,-0.05506663769483566,-3.0621838569641113,14.7247314453125,35.8123779296875,11.627197265625
8.7899999,9.093177795410156,0.09576806426048279,-2.013523578643799,9.3841552734375,25.4364013671875,-15.716552734375
8.809999900000001,9.081207275390625,0.21547815203666687,-1.6543933153152466,18.2952880859375,21.697998046875,-2.7923583984375
8.8299999,9.174580574035645,0.3758896589279175,-1.5322890281677246,30.21240234375,11.199951171875,17.76123046875
8.8499999,9.342175483703613,0.40462008118629456,-1.656787633895874,30.6243896484375,1.5106201171875,19.0582275390625
8.8699999,9.5624418258667,0.2825157940387726,-1.9488801956176758,11.962890625,14.2669677734375,-2.899169921875
8.889999900000001,9.732429504394531,0.13168109953403473,-2.279279947280884,-4.4708251953125,33.5693359375,-18.1427001953125
8.9099999,9.830592155456543,0.0454898327589035,-2.406172752380371,1.6326904296875,35.003662109375,-5.06591796875
8.9299999,9.823410034179688,0.07182604819536209,-2.3558945655822754,16.8914794921875,16.876220703125,8.026123046875
8.9499999,9.75637149810791,0.15801730751991272,-2.1092917919158936,7.3089599609375,15.2130126953125,0.152587890625
8.969999900000001,9.691728591918945,0.16998831927776337,-1.9369091987609863,-5.279541015625,20.294189453125,-8.8958740234375
8.9899999,9.660603523254395,0.24181437492370605,-1.7956513166427612,-4.8065185546875,21.9268798828125,-7.8582763671875
9.0099999,9.655815124511719,0.33279404044151306,-1.7286136150360107,2.685546875,18.3563232421875,1.129150390625
9.0299999,9.636661529541016,0.4429273009300232,-1.6639702320098877,4.0435791015625,17.0135498046875,6.9732666015625
9.049999900000001,9.600749015808105,0.4812345504760742,-1.5921441316604614,-0.518798828125,17.425537109375,6.6986083984375
9.069999900000001,9.552865028381348,0.40940847992897034,-1.6208745241165161,-3.84521484375,10.68115234375,2.532958984375
9.0899999,9.502586364746094,0.2537853717803955,-1.6400281190872192,-4.9591064453125,13.4429931640625,-0.2899169921875
9.1099999,9.445125579833984,0.08619125932455063,-1.6879122257232666,-0.579833984375,16.2200927734375,0.2288818359375
9.129999900000001,9.3828763961792,-0.040701430290937424,-1.6974890232086182,3.3416748046875,13.7481689453125,1.434326171875
9.149999900000001,9.313444137573242,-0.0694318488240242,-1.6950948238372803,5.340576171875,7.62939453125,0.2288818359375
9.1699999,9.244012832641602,-0.05506663769483566,-1.644816517829895,2.838134765625,6.9427490234375,0.885009765625
9.1899999,9.222464561462402,0.043095629662275314,-1.7286136150360107,-2.38037109375,3.47900390625,-1.40380859375
9.209999900000001,9.246406555175781,0.07900865375995636,-1.802833914756775,-9.8114013671875,6.866455078125,-2.5634765625
9.229999900000001,9.306262016296387,0.1388636976480484,-1.9345149993896484,-10.9100341796875,10.3607177734375,-4.5013427734375
9.2499999,9.394847869873047,0.1364694982767105,-2.008735179901123,-0.030517578125,6.4544677734375,-1.3427734375
9.2699999,9.47146224975586,0.16998831927776337,-1.9823989868164062,4.5928955078125,3.9215087890625,-0.4119873046875
9.2899999,9.545681953430176,0.18914192914962769,-1.9177556037902832,1.190185546875,1.8157958984375,-0.244140625
9.309999900000001,9.603142738342285,0.19393034279346466,-1.8100165128707886,-5.6304931640625,2.9449462890625,-2.655029296875
9.3299999,9.651026725769043,0.19393034279346466,-1.6974890232086182,-10.498046875,8.23974609375,-6.53076171875
9.3499999,9.679757118225098,0.18914192914962769,-1.5729905366897583,-7.14111328125,7.354736328125,-5.340576171875
9.3699999,9.703699111938477,0.24181437492370605,-1.4772224426269531,0.9918212890625,0.091552734375,-1.434326171875
9.389999900000001,9.72285270690918,0.304063618183136,-1.400607943534851,4.4097900390625,-1.7242431640625,3.631591796875
9.4099999,9.768342971801758,0.3878606855869293,-1.4628572463989258,2.593994140625,-2.0751953125,2.8228759765625
9.4299999,9.813833236694336,0.42616790533065796,-1.5729905366897583,-0.7781982421875,1.8157958984375,0.7781982421875
9.4499999,9.86650562286377,0.43335050344467163,-1.7477672100067139,0.213623046875,3.0517578125,2.655029296875
9.469999900000001,9.907206535339355,0.4189853072166443,-1.9081788063049316,4.302978515625,-0.091552734375,5.43212890625
9.4899999,9.923966407775879,0.37828385829925537,-2.0207061767578125,5.1727294921875,2.197265625,7.75146484375
9.5099999,9.909601211547852,0.26336219906806946,-2.0398597717285156,4.4403076171875,5.9356689453125,8.087158203125
9.5299999,9.883264541625977,0.1364694982767105,-2.013523578643799,4.94384765625,4.2724609375,3.8909912109375
9.549999900000001,9.852140426635742,0.011971008032560349,-1.9321208000183105,6.134033203125,2.6397705078125,1.89208984375
9.569999900000001,9.830592155456543,-0.040701430290937424,-1.8722656965255737,4.2266845703125,4.2572021484375,2.3651123046875
9.5899999,9.840168952941895,-0.0071826050989329815,-1.8315643072128296,-0.6561279296875,7.598876953125,2.38037109375
9.6099999,9.854534149169922,0.07422025501728058,-1.8794482946395874,-2.3193359375,6.561279296875,1.89208984375
9.629999900000001,9.864110946655273,0.15562310814857483,-1.8914192914962769,-2.2125244140625,9.6435546875,3.387451171875
9.649999900000001,9.852140426635742,0.19393034279346466,-1.9273324012756348,2.13623046875,9.2315673828125,5.889892578125
9.6699999,9.813833236694336,0.19393034279346466,-1.944091796875,5.2642822265625,7.14111328125,7.5225830078125
9.6899999,9.758766174316406,0.11013327538967133,-1.9153614044189453,3.72314453125,8.8348388671875,7.0343017578125
9.709999900000001,9.6989107131958,0.014365210197865963,-1.9105730056762695,-0.5950927734375,8.97216796875,2.5482177734375
9.729999900000001,9.646238327026367,-0.11252748221158981,-1.8555063009262085,-3.997802734375,11.5203857421875,0.2899169921875
9.7499999,9.607931137084961,-0.181959331035614,-1.7908629179000854,-3.7994384765625,12.2528076171875,-1.40380859375
9.7699999,9.560047149658203,-0.17477671802043915,-1.6735470294952393,0.9765625,9.765625,-0.4730224609375
9.7899999,9.526528358459473,-0.12689268589019775,-1.5514427423477173,3.60107421875,5.9661865234375,3.021240234375
9.809999900000001,9.466673851013184,-0.040701430290937424,-1.4197616577148438,3.2501220703125,3.7689208984375,3.3721923828125
9.8299999,9.387664794921875,0.0454898327589035,-1.2713210582733154,0.823974609375,5.157470703125,2.8228759765625
9.8499999,9.30386734008789,0.0933738648891449,-1.1659762859344482,1.3275146484375,-0.579833984375,5.3863525390625
9.8699999,9.224859237670898,0.1149216815829277,-1.0989385843276978,1.5106201171875,-5.523681640625,8.9111328125
9.889999900000001,9.181763648986816,0.035913024097681046,-1.072602391242981,2.86865234375,-5.2642822265625,11.5966796875
9.9099999,9.208099365234375,-0.07182604819536209,-1.139639973640442,4.5928955078125,-7.6446533203125,9.1400146484375
9.9299999,9.299078941345215,-0.22744916379451752,-1.2761094570159912,5.7830810546875,-11.2152099609375,6.28662109375
9.9499999,9.464279174804688,-0.38067805767059326,-1.4772224426269531,4.9285888671875,-9.1705322265625,7.6751708984375
9.969999900000001,9.651026725769043,-0.49320554733276367,-1.7310078144073486,2.62451171875,-6.16455078125,5.43212890625
9.9899999,9.828198432922363,-0.5650315880775452,-1.9177556037902832,0.7171630859375,0.335693359375,0.3814697265625
10.0099999,9.964667320251465,-0.5434837937355042,-2.0398597717285156,2.2430419921875,0.091552734375,-3.814697265625
10.0299999,10.043676376342773,-0.45489832758903503,-2.0422539710998535,3.173828125,-1.1749267578125,-3.2806396484375
10.049999900000001,10.079588890075684,-0.3064578175544739,-1.98958158493042,2.655029296875,-0.48828125,-0.762939453125
10.069999900000001,10.079588890075684,-0.1604115068912506,-1.9297266006469727,4.638671875,-0.5950927734375,1.6937255859375
10.0899999,10.046070098876953,-0.05985504388809204,-1.889025092124939,6.34765625,-1.0528564453125,3.2806396484375
10.1099999,9.967061996459961,-0.026336219161748886,-1.8124107122421265,4.791259765625,-0.18310546875,4.547119140625
10.129999900000001,9.84256362915039,-0.016759412363171577,-1.7166426181793213,0.946044921875,2.50244140625,2.4871826171875
10.149999900000001,9.720458984375,-0.07900865375995636,-1.5969325304031372,4.119873046875,1.8310546875,5.157470703125
10.1699999,9.615114212036133,-0.11013327538967133,-1.4987702369689941,6.8206787109375,-0.67138671875,4.69970703125
10.1899999,9.576807022094727,-0.181959331035614,-1.4772224426269531,8.209228515625,-2.227783203125,6.683349609375
10.209999900000001,9.583989143371582,-0.2537853717803955,-1.4987702369689941,4.5928955078125,1.434326171875,7.8125
10.229999900000001,9.619902610778809,-0.3423708379268646,-1.556231141090393,0.9002685546875,2.7618408203125,4.7454833984375
10.2499999,9.660603523254395,-0.44771572947502136,-1.601720929145813,1.46484375,1.6937255859375,1.3427734375
10.2699999,9.701305389404297,-0.507570743560791,-1.6280571222305298,1.708984375,1.52587890625,-1.251220703125
10.2899999,9.725247383117676,-0.5363011956214905,-1.6304513216018677,3.173828125,2.3193359375,0.701904296875
10.309999900000001,9.749189376831055,-0.5099649429321289,-1.644816517829895,3.204345703125,2.7618408203125,1.739501953125
10.3299999,9.742006301879883,-0.47405192255973816,-1.623268723487854,2.5634765625,2.9144287109375,0.1983642578125
10.3499999,9.727641105651855,-0.4692635238170624,-1.659181833267212,2.99072265625,1.007080078125,0.6561279296875
10.3699999,9.713275909423828,-0.4692635238170624,-1.6974890232086182,3.9825439453125,1.739501953125,-0.48828125
10.389999900000001,9.706093788146973,-0.4836287498474121,-1.766920804977417,5.0506591796875,5.645751953125,-1.220703125
10.4099999,9.696516990661621,-0.5051765441894531,-1.8315643072128296,7.1258544921875,4.547119140625,-0.6256103515625
10.4299999,9.677363395690918,-0.5147533416748047,-1.824381709098816,7.8125,4.8675537109375,-0.9918212890625
10.4499999,9.655815124511719,-0.5147533416748047,-1.8052281141281128,9.3994140625,2.685546875,-1.5869140625
10.469999900000001,9.641449928283691,-0.4572925269603729,-1.7405846118927002,9.9945068359375,1.3427734375,-2.3040771484375
10.4899999,9.653421401977539,-0.3758896589279175,-1.680729627609253,8.697509765625,0.3814697265625,1.0223388671875
10.5099999,9.68694019317627,-0.2801215946674347,-1.6639702320098877,7.232666015625,-1.52587890625,4.852294921875
10.5299999,9.732429504394531,-0.23942017555236816,-1.647210717201233,3.448486328125,1.5869140625,4.608154296875
10.549999900000001,9.770736694335938,-0.26096799969673157,-1.6687586307525635,1.373291015625,4.7149658203125,1.8768310546875
10.569999900000001,9.78989028930664,-0.33997663855552673,-1.647210717201233,2.197265625,6.7138671875,1.1444091796875
10.5899999,9.77791976928711,-0.4381389021873474,-1.6089035272598267,3.173828125,5.584716796875,1.1749267578125
10.6099999,9.734824180603027,-0.5171475410461426,-1.501164436340332,-0.396728515625,7.5225830078125,-0.946044921875
10.629999900000001,9.677363395690918,-0.5793967843055725,-1.381454348564148,-1.1138916015625,8.9569091796875,-3.753662109375
10.649999900000001,9.612719535827637,-0.586579442024231,-1.259350061416626,5.2947998046875,6.34765625,-4.608154296875
10.6699999,9.569623947143555,-0.5219359993934631,-1.1779472827911377,9.4757080078125,3.3416748046875,-3.11279296875
10.6899999,9.548076629638672,-0.42616790533065796,-1.161187767982483,3.47900390625,1.220703125,0.457763671875
10.709999900000001,9.533711433410645,-0.31364041566848755,-1.170764684677124,-4.08935546875,3.2958984375,1.7852783203125
10.729999900000001,9.545681953430176,-0.24420857429504395,-1.2330138683319092,-3.8909912109375,2.838134765625,0.518798828125
10.7499999,9.555258750915527,-0.20111294090747833,-1.290474772453308,-0.274658203125,1.678466796875,-0.518798828125
10.7699999,9.57201862335205,-0.21547815203666687,-1.3479355573654175,-0.06103515625,3.997802734375,2.1209716796875
10.7899999,9.588777542114258,-0.23702596127986908,-1.4077905416488647,-2.6092529296875,3.4637451171875,2.3040771484375
10.809999900000001,9.600749015808105,-0.3016694188117981,-1.4772224426269531,-2.6702880859375,1.007080078125,2.50244140625
10.8299999,9.612719535827637,-0.3998316824436188,-1.5394717454910278,-0.3814697265625,0.67138671875,3.8604736328125
10.8499999,9.627084732055664,-0.5099649429321289,-1.6065093278884888,3.0364990234375,1.40380859375,3.84521484375
10.8699999,9.648633003234863,-0.5793967843055725,-1.6687586307525635,1.983642578125,2.3040771484375,0.7476806640625
10.889999900000001,9.670180320739746,-0.6320692300796509,-1.680729627609253,1.708984375,3.8909912109375,1.52587890625
10.9099999,9.68933391571045,-0.6368576288223267,-1.6855180263519287,2.5634765625,2.777099609375,3.2501220703125
10.9299999,9.696516990661621,-0.6344634294509888,-1.6328455209732056,2.25830078125,2.62451171875,2.8076171875
10.9499999,9.703699111938477,-0.6344634294509888,-1.5945383310317993,3.2958984375,1.9073486328125,2.7313232421875
10.969999900000001,9.708487510681152,-0.6536170840263367,-1.5418659448623657,3.4332275390625,1.9378662109375,1.8310546875
10.9899999,9.715670585632324,-0.6584054827690125,-1.4987702369689941,2.288818359375,3.5400390625,0.5645751953125
11.0099999,9.715670585632324,-0.6655880808830261,-1.4508862495422363,3.021240234375,3.5858154296875,0.06103515625
11.0299999,9.713275909423828,-0.667982280254364,-1.3862427473068237,3.3721923828125,4.4403076171875,-0.4119873046875
11.049999900000001,9.682151794433594,-0.6344634294509888,-1.280897855758667,2.899169921875,4.6234130859375,-2.0904541015625
11.069999900000001,9.643844604492188,-0.5913678407669067,-1.1061211824417114,0.3662109375,5.1422119140625,-2.01416015625
11.0899999,9.607931137084961,-0.5291185975074768,-0.9600749015808105,0.244140625,-1.46484375,-0.3814697265625
11.1099999,9.593565940856934,-0.47405192255973816,-0.8643068075180054,0.396728515625,-5.218505859375,0.1983642578125
11.129999900000001,9.612719535827637,-0.43095630407333374,-0.8906430602073669,-0.823974609375,-3.326416015625,-0.457763671875
11.149999900000001,9.667786598205566,-0.4165911078453064,-1.05105459690094,-0.5950927734375,-3.3111572265625,0.579833984375
11.1699999,9.737217903137207,-0.4405331015586853,-1.280897855758667,1.03759765625,-3.60107421875,3.8909912109375
11.1899999,9.80904483795166,-0.507570743560791,-1.522712230682373,2.044677734375,-2.4261474609375,4.1351318359375
11.209999900000001,9.871294021606445,-0.5937620401382446,-1.7549498081207275,2.74658203125,-1.2054443359375,1.52587890625
11.229999900000001,9.9000244140625,-0.6727706789970398,-1.8938134908676147,0.9002685546875,2.44140625,-0.9002685546875
11.2499999,9.890447616577148,-0.7134721279144287,-1.941697597503662,-0.6256103515625,4.5318603515625,-0.5645751953125
11.2699999,9.832986831665039,-0.6919242739677429,-1.8602946996688843,0.7476806640625,4.0740966796875,0.48828125
11.2899999,9.758766174316406,-0.6607996821403503,-1.723825216293335,2.50244140625,2.5177001953125,1.3885498046875
11.309999900000001,9.670180320739746,-0.6224924325942993,-1.5682021379470825,2.2430419921875,1.77001953125,0.5340576171875
11.3299999,9.605537414550781,-0.5817909836769104,-1.4484920501708984,0.335693359375,2.7618408203125,-0.67138671875
11.3499999,9.57201862335205,-0.5554547905921936,-1.3694833517074585,0.4425048828125,2.1209716796875,-0.0762939453125
11.3699999,9.567230224609375,-0.5099649429321289,-1.335964560508728,0.396728515625,1.129150390625,-0.518798828125
11.389999900000001,9.593565940856934,-0.47644615173339844,-1.3215993642807007,0.4425048828125,0.8697509765625,-0.1983642578125
11.4099999,9.643844604492188,-0.45489832758903503,-1.3455413579940796,0.9918212890625,0.5950927734375,1.617431640625
11.4299999,9.706093788146973,-0.4644751250743866,-1.3958195447921753,1.0833740234375,0.4119873046875,2.44140625
11.4499999,9.761159896850586,-0.49799394607543945,-1.4484920501708984,-0.0762939453125,1.89208984375,1.0223388671875
11.469999900000001,9.80904483795166,-0.5578489899635315,-1.4915876388549805,-1.15966796875,3.0670166015625,0.091552734375
11.4899999,9.837775230407715,-0.6129156351089478,-1.53707754611969,0.6103515625,1.190185546875,0.0152587890625
11.5099999,9.849745750427246,-0.6416460275650024,-1.5466543436050415,1.861572265625,3.1280517578125,0.0762939453125
11.5299999,9.840168952941895,-0.6560112833976746,-1.5466543436050415,1.0528564453125,4.7607421875,-0.42724609375
11.549999900000001,9.80904483795166,-0.646434485912323,-1.501164436340332,-1.1138916015625,5.9967041015625,-1.3427734375
11.569999900000001,9.746794700622559,-0.608127236366272,-1.41257905960083,-2.044677734375,4.82177734375,-3.326416015625
11.5899999,9.667786598205566,-0.5602431893348694,-1.2737152576446533,-2.7618408203125,4.2266845703125,-2.3345947265625
11.6099999,9.586383819580078,-0.507570743560791,-1.1468225717544556,-1.7852783203125,1.434326171875,-0.9307861328125
11.629999900000001,9.528923034667969,-0.4692635238170624,-1.0869675874710083,-0.5950927734375,-1.4495849609375,0.3204345703125
11.649999900000001,9.521739959716797,-0.47405192255973816,-1.1324573755264282,-0.030517578125,-1.9073486328125,1.220703125
11.6699999,9.564835548400879,-0.5051765441894531,-1.2665326595306396,-0.9002685546875,0.18310546875,0.8697509765625
11.6899999,9.636661529541016,-0.569819986820221,-1.4389152526855469,-0.457763671875,2.13623046875,1.068115234375
11.709999900000001,9.710882186889648,-0.6416460275650024,-1.5753847360610962,0.2899169921875,2.1209716796875,0.7781982421875
11.729999900000001,9.758766174316406,-0.6991068720817566,-1.6424223184585571,0.2899169921875,1.5106201171875,-1.007080078125
11.7499999,9.773131370544434,-0.727837324142456,-1.6184803247451782,-0.06103515625,2.716064453125,-1.708984375
11.7699999,9.758766174316406,-0.727837324142456,-1.5705963373184204,0.396728515625,1.64794921875,-0.946044921875
11.7899999,9.727641105651855,-0.6919242739677429,-1.4724340438842773,0.7171630859375,2.2125244140625,-0.7781982421875
11.809999900000001,9.691728591918945,-0.6344634294509888,-1.4221558570861816,0.9613037109375,0.7171630859375,-1.5869140625
11.8299999,9.658209800720215,-0.6033388376235962,-1.3527239561080933,0.6866455078125,1.5716552734375,-0.1373291015625
11.8499999,9.641449928283691,-0.5171475410461426,-1.3455413579940796,0.42724609375,0.8392333984375,-1.64794921875
11.8699999,9.636661529541016,-0.5123591423034668,-1.3311761617660522,0.946044921875,0.152587890625,1.4801025390625
11.889999900000001,9.641449928283691,-0.4908113479614258,-1.3479355573654175,0.762939453125,0.244140625,1.9683837890625
11.9099999,9.655815124511719,-0.49799394607543945,-1.3623007535934448,-0.5340576171875,1.1749267578125,-1.5106201171875
11.9299999,9.670180320739746,-0.5099649429321289,-1.3742717504501343,-2.5787353515625,1.5411376953125,-1.434326171875
11.9499999,9.684545516967773,-0.507570743560791,-1.3766659498214722,-2.3345947265625,0.2899169921875,0.8087158203125
11.969999900000001,9.696516990661621,-0.5099649429321289,-1.3886369466781616,-1.03759765625,-1.0833740234375,1.617431640625
11.9899999,9.701305389404297,-0.5339069962501526,-1.403002142906189,-1.3885498046875,-0.30517578125,0.8544921875
12.0099999,9.708487510681152,-0.586579442024231,-1.4484920501708984,-1.251220703125,0.06103515625,-0.18310546875
12.0299999,9.715670585632324,-0.629675030708313,-1.4963760375976562,-0.6866455078125,0.42724609375,-1.922607421875
12.049999900000001,9.725247383117676,-0.6536170840263367,-1.5394717454910278,-0.06103515625,1.220703125,-1.6937255859375
12.069999900000001,9.732429504394531,-0.6536170840263367,-1.5729905366897583,1.2664794921875,1.15966796875,-0.4119873046875
12.0899999,9.742006301879883,-0.6248866319656372,-1.5705963373184204,0.5645751953125,1.7852783203125,-0.640869140625
12.1099999,9.742006301879883,-0.5889736413955688,-1.556231141090393,-0.1678466796875,1.8463134765625,-1.2664794921875
12.129999900000001,9.734824180603027,-0.569819986820221,-1.5179238319396973,0.1220703125,2.044677734375,-0.0152587890625
12.149999900000001,9.725247383117676,-0.5506663918495178,-1.4891934394836426,0.5950927734375,1.46484375,-0.7171630859375
12.1699999,9.706093788146973,-0.5434837937355042,-1.4317326545715332,-0.3204345703125,3.0975341796875,-1.8310546875
12.1899999,9.684545516967773,-0.5339069962501526,-1.3934253454208374,-0.1373291015625,2.227783203125,-1.4190673828125
12.209999900000001,9.667786598205566,-0.5386953949928284,-1.3623007535934448,0.9765625,0.6561279296875,0.3204345703125
12.229999900000001,9.655815124511719,-0.5434837937355042,-1.3527239561080933,0.5035400390625,0.7476806640625,-0.48828125
12.2499999,9.653421401977539,-0.545877993106842,-1.3646949529647827,-0.3662109375,1.861572265625,-2.1820068359375
12.2699999,9.66299819946289,-0.5386953949928284,-1.3958195447921753,0.9002685546875,1.5411376953125,-0.946044921875
12.289999900000002,9.677363395690918,-0.5171475410461426,-1.4173674583435059,1.89208984375,1.15966796875,0.7476806640625
12.309999900000001,9.68694019317627,-0.49799394607543945,-1.4317326545715332,0.701904296875,1.7242431640625,0.946044921875
12.3299999,9.691728591918945,-0.49559974670410156,-1.4389152526855469,-0.9918212890625,1.953125,0.0762939453125
12.3499999,9.684545516967773,-0.5003881454467773,-1.4293384552001953,-2.2430419921875,2.13623046875,-0.8392333984375
12.3699999,9.677363395690918,-0.5051765441894531,-1.41257905960083,-1.4190673828125,1.4801025390625,-0.3662109375
12.389999900000001,9.66539192199707,-0.507570743560791,-1.3934253454208374,-0.030517578125,0.6103515625,1.129150390625
12.4099999,9.66299819946289,-0.5123591423034668,-1.3718775510787964,-0.3814697265625,1.312255859375,1.495361328125
12.4299999,9.667786598205566,-0.5315127968788147,-1.3718775510787964,-0.67138671875,0.732421875,-0.335693359375
12.4499999,9.677363395690918,-0.5530605912208557,-1.3766659498214722,-0.518798828125,0.7476806640625,-1.28173828125
12.469999900000001,9.68933391571045,-0.5506663918495178,-1.3934253454208374,-0.244140625,0.79345703125,-1.3275146484375
12.4899999,9.696516990661621,-0.5482721924781799,-1.4077905416488647,0.6256103515625,0.7171630859375,0.701904296875
12.5099999,9.6989107131958,-0.5267243981361389,-1.4173674583435059,1.2359619140625,0.5950927734375,0.732421875
12.5299999,9.696516990661621,-0.5171475410461426,-1.4173674583435059,0.3814697265625,0.91552734375,-0.6103515625
12.549999900000001,9.6989107131958,-0.5267243981361389,-1.414973258972168,-0.3509521484375,0.8544921875,0.1068115234375
12.569999900000001,9.6989107131958,-0.524330198764801,-1.4173674583435059,0.06103515625,0.244140625,-0.42724609375
12.5899999,9.703699111938477,-0.5195417404174805,-1.414973258972168,-0.518798828125,1.373291015625,-0.6561279296875
12.6099999,9.703699111938477,-0.507570743560791,-1.414973258972168,0.1983642578125,0.9002685546875,0.5340576171875
12.629999900000001,9.703699111938477,-0.5027823448181152,-1.4053963422775269,0.701904296875,0.335693359375,1.3427734375
12.649999900000001,9.703699111938477,-0.5123591423034668,-1.4077905416488647,0.6866455078125,-0.0152587890625,0.579833984375
12.6699999,9.701305389404297,-0.524330198764801,-1.41257905960083,0.2288818359375,0.762939453125,-0.762939453125
12.6899999,9.706093788146973,-0.5363011956214905,-1.4437036514282227,-0.5340576171875,1.068115234375,-0.9765625
12.709999900000001,9.703699111938477,-0.5051765441894531,-1.4532804489135742,-0.6256103515625,1.46484375,-0.6103515625
12.729999900000001,9.706093788146973,-0.49799394607543945,-1.4700398445129395,-0.1678466796875,1.1138916015625,1.800537109375
12.7499999,9.694122314453125,-0.47884035110473633,-1.4652514457702637,0.6561279296875,0.1373291015625,1.8157958984375
12.7699999,9.677363395690918,-0.4836287498474121,-1.4508862495422363,-1.3427734375,1.7547607421875,0.244140625
12.789999900000002,9.653421401977539,-0.5003881454467773,-1.4269442558288574,-1.4801025390625,0.9613037109375,0.3509521484375
12.809999900000001,9.634267807006836,-0.5171475410461426,-1.4245500564575195,0.06103515625,-0.701904296875,1.6937255859375
12.8299999,9.627084732055664,-0.5386953949928284,-1.4245500564575195,0.8697509765625,-0.640869140625,1.7242431640625
12.8499999,9.641449928283691,-0.5602431893348694,-1.4460978507995605,-0.54931640625,0.8544921875,0.42724609375
12.8699999,9.66299819946289,-0.5817909836769104,-1.4724340438842773,0.1983642578125,0.1373291015625,0.823974609375
12.889999900000001,9.68933391571045,-0.5961562395095825,-1.4844050407409668,-0.0152587890625,0.06103515625,0.732421875
12.9099999,9.710882186889648,-0.5913678407669067,-1.482010841369629,-1.6632080078125,1.2664794921875,-0.335693359375
12.9299999,9.725247383117676,-0.5793967843055725,-1.479616641998291,-1.03759765625,0.79345703125,0.244140625
12.9499999,9.734824180603027,-0.569819986820221,-1.482010841369629,-0.152587890625,0.3204345703125,1.5869140625
12.969999900000001,9.737217903137207,-0.5578489899635315,-1.479616641998291,-1.03759765625,1.2664794921875,0.640869140625
12.9899999,9.734824180603027,-0.5674257874488831,-1.482010841369629,-0.42724609375,0.7781982421875,0.3509521484375
13.0099999,9.727641105651855,-0.5961562395095825,-1.479616641998291,0.6256103515625,0.18310546875,0.9765625
13.0299999,9.713275909423828,-0.6224924325942993,-1.4700398445129395,1.3275146484375,0.1678466796875,0.091552734375
13.049999900000001,9.696516990661621,-0.6512228846549988,-1.4724340438842773,1.0223388671875,0.54931640625,-0.5340576171875
13.069999900000001,9.679757118225098,-0.6392518281936646,-1.45806884765625,-0.1983642578125,1.15966796875,-1.77001953125
13.0899999,9.670180320739746,-0.6153098344802856,-1.4532804489135742,-0.4425048828125,0.091552734375,-0.640869140625
13.1099999,9.660603523254395,-0.5746083855628967,-1.4413094520568848,0.1678466796875,-0.4119873046875,0.9307861328125
13.129999900000001,9.66299819946289,-0.545877993106842,-1.4437036514282227,-0.244140625,0.640869140625,0.0152587890625
13.149999900000001,9.658209800720215,-0.5410895943641663,-1.4389152526855469,-0.5950927734375,1.7547607421875,-0.5035400390625
13.1699999,9.66539192199707,-0.5554547905921936,-1.455674648284912,-0.091552734375,0.5950927734375,-0.0152587890625
13.1899999,9.672574996948242,-0.5793967843055725,-1.460463047027588,0.7171630859375,-0.213623046875,-0.213623046875
13.209999900000001,9.684545516967773,-0.5961562395095825,-1.482010841369629,0.2593994140625,0.640869140625,-0.6256103515625
13.229999900000001,9.703699111938477,-0.6033388376235962,-1.5131354331970215,0,0.9613037109375,-0.823974609375
13.2499999,9.718064308166504,-0.5985504388809204,-1.534683346748352,0.701904296875,1.5106201171875,0.518798828125
13.2699999,9.732429504394531,-0.5650315880775452,-1.5490485429763794,-0.4119873046875,1.7242431640625,-0.3814697265625
13.289999900000002,9.734824180603027,-0.5434837937355042,-1.5490485429763794,-0.8392333984375,2.0904541015625,0.030517578125
13.309999900000001,9.730035781860352,-0.5267243981361389,-1.5322890281677246,-1.007080078125,2.62451171875,0.7476806640625
13.3299999,9.713275909423828,-0.5123591423034668,-1.4939818382263184,-1.6632080078125,2.471923828125,-0.1373291015625
13.3499999,9.68933391571045,-0.5291185975074768,-1.4437036514282227,-0.2899169921875,1.617431640625,1.0833740234375
13.3699999,9.66299819946289,-0.545877993106842,-1.4053963422775269,0.5645751953125,-0.0762939453125,0.8544921875
13.389999900000001,9.646238327026367,-0.569819986820221,-1.3670891523361206,-0.518798828125,1.2359619140625,-0.3204345703125
13.4099999,9.643844604492188,-0.5817909836769104,-1.37906014919281,-0.4119873046875,0.457763671875,-0.4730224609375
13.4299999,9.655815124511719,-0.586579442024231,-1.4077905416488647,-0.5035400390625,0.06103515625,0.335693359375
13.4499999,9.679757118225098,-0.586579442024231,-1.4508862495422363,-0.762939453125,1.1444091796875,0.54931640625
13.469999900000001,9.706093788146973,-0.5889736413955688,-1.4939818382263184,0.0152587890625,1.77001953125,0.18310546875
13.4899999,9.72285270690918,-0.5937620401382446,-1.5155296325683594,0.5950927734375,1.6632080078125,-0.213623046875
13.5099999,9.730035781860352,-0.5937620401382446,-1.5059528350830078,0.0152587890625,1.922607421875,-0.48828125
13.5299999,9.727641105651855,-0.5841852426528931,-1.5059528350830078,-0.1220703125,0.640869140625,-0.0457763671875
13.549999900000001,9.718064308166504,-0.5793967843055725,-1.4748282432556152,-0.2593994140625,1.9683837890625,0.5340576171875
13.569999900000001,9.708487510681152,-0.5746083855628967,-1.479616641998291,0.244140625,1.434326171875,0.1068115234375
13.5899999,9.696516990661621,-0.5746083855628967,-1.45806884765625,0.42724609375,2.044677734375,-0.244140625
13.6099999,9.694122314453125,-0.586579442024231,-1.4772224426269531,1.0223388671875,0.762939453125,0.1678466796875
13.629999900000001,9.68933391571045,-0.586579442024231,-1.4724340438842773,0.2899169921875,2.0751953125,-0.3204345703125
13.649999900000001,9.68933391571045,-0.5889736413955688,-1.4963760375976562,0.4730224609375,2.4871826171875,-0.9002685546875
13.6699999,9.684545516967773,-0.5793967843055725,-1.4963760375976562,0.6561279296875,2.6397705078125,-1.1444091796875
13.6899999,9.677363395690918,-0.5626373887062073,-1.4987702369689941,0.9765625,1.800537109375,-0.18310546875
13.709999900000001,9.672574996948242,-0.5506663918495178,-1.4987702369689941,1.46484375,1.2664794921875,0.7781982421875
13.729999900000001,9.66299819946289,-0.5386953949928284,-1.4963760375976562,0.5340576171875,2.349853515625,-0.2288818359375
13.7499999,9.66299819946289,-0.545877993106842,-1.4891934394836426,-0.396728515625,3.4637451171875,-1.068115234375
13.7699999,9.660603523254395,-0.5386953949928284,-1.4700398445129395,0.4119873046875,2.1820068359375,-1.129150390625
13.789999900000002,9.660603523254395,-0.5363011956214905,-1.434126853942871,1.0223388671875,1.4801025390625,0.42724609375
13.809999900000001,9.66539192199707,-0.5315127968788147,-1.400607943534851,0.9918212890625,0.8697509765625,1.1444091796875
13.8299999,9.672574996948242,-0.5363011956214905,-1.3838485479354858,0.5950927734375,1.0223388671875,0.8087158203125
13.8499999,9.679757118225098,-0.5530605912208557,-1.3694833517074585,0,1.9989013671875,-0.1678466796875
13.8699999,9.68933391571045,-0.5746083855628967,-1.3718775510787964,0,1.2054443359375,0.1678466796875
13.889999900000001,9.6989107131958,-0.5913678407669067,-1.3718775510787964,0.396728515625,1.007080078125,0.2899169921875
13.9099999,9.710882186889648,-0.6033388376235962,-1.3838485479354858,0.48828125,1.1444091796875,0.457763671875
13.9299999,9.718064308166504,-0.6033388376235962,-1.3886369466781616,-0.6256103515625,1.6937255859375,0.152587890625
13.9499999,9.720458984375,-0.5889736413955688,-1.3886369466781616,-1.3427734375,2.166748046875,-0.244140625
13.969999900000001,9.718064308166504,-0.5817909836769104,-1.3838485479354858,-0.030517578125,0.48828125,1.251220703125
13.9899999,9.713275909423828,-0.5793967843055725,-1.3886369466781616,0.396728515625,0.3509521484375,1.64794921875
14.0099999,9.710882186889648,-0.5913678407669067,-1.414973258972168,0.244140625,1.0528564453125,0.0152587890625
14.0299999,9.715670585632324,-0.608127236366272,-1.460463047027588,0.213623046875,2.166748046875,0.0762939453125
14.049999900000001,9.715670585632324,-0.6248866319656372,-1.4891934394836426,0.1220703125,2.7313232421875,0.7171630859375
14.069999900000001,9.708487510681152,-0.6200982332229614,-1.4867992401123047,0.7781982421875,2.44140625,0.701904296875
14.0899999,9.696516990661621,-0.6129156351089478,-1.460463047027588,1.1444091796875,1.2664794921875,0.091552734375
14.1099999,9.679757118225098,-0.5937620401382446,-1.4221558570861816,0.48828125,1.0986328125,0.396728515625
14.129999900000001,9.672574996948242,-0.569819986820221,-1.403002142906189,-0.152587890625,1.6632080078125,0.8392333984375
14.149999900000001,9.667786598205566,-0.5554547905921936,-1.4077905416488647,0.2593994140625,1.4801025390625,1.3885498046875
14.1699999,9.667786598205566,-0.5650315880775452,-1.4197616577148438,-0.06103515625,2.13623046875,1.434326171875
14.1899999,9.66539192199707,-0.5841852426528931,-1.4389152526855469,0.06103515625,1.77001953125,-0.152587890625
14.209999900000001,9.660603523254395,-0.6105214357376099,-1.4317326545715332,0.30517578125,2.0599365234375,-0.457763671875
14.229999900000001,9.655815124511719,-0.6224924325942993,-1.4317326545715332,1.373291015625,0.4730224609375,0.457763671875
14.2499999,9.660603523254395,-0.629675030708313,-1.4221558570861816,1.3885498046875,0.79345703125,1.0833740234375
14.2699999,9.670180320739746,-0.6177040338516235,-1.4101848602294922,0.1678466796875,1.617431640625,-0.4119873046875
14.289999900000002,9.682151794433594,-0.6057330369949341,-1.400607943534851,-0.244140625,1.434326171875,-1.03759765625
14.309999900000001,9.694122314453125,-0.5793967843055725,-1.3862427473068237,-0.3204345703125,1.2359619140625,-0.5035400390625
14.3299999,9.703699111938477,-0.5578489899635315,-1.3718775510787964,0.091552734375,0.9918212890625,0.91552734375
14.3499999,9.710882186889648,-0.5530605912208557,-1.3718775510787964,-0.0457763671875,0.732421875,1.434326171875
14.3699999,9.713275909423828,-0.5626373887062073,-1.3646949529647827,-0.48828125,1.7547607421875,-0.2593994140625
14.389999900000001,9.713275909423828,-0.5841852426528931,-1.3670891523361206,-0.6256103515625,1.2969970703125,-0.396728515625
14.4099999,9.713275909423828,-0.608127236366272,-1.3623007535934448,-0.0152587890625,0.640869140625,0.54931640625
14.4299999,9.715670585632324,-0.6129156351089478,-1.3646949529647827,-0.0457763671875,1.4190673828125,0.1220703125
14.4499999,9.715670585632324,-0.6224924325942993,-1.381454348564148,-0.1678466796875,1.5411376953125,0.4119873046875
14.469999900000001,9.720458984375,-0.629675030708313,-1.4077905416488647,-0.0457763671875,2.471923828125,0.5950927734375
14.4899999,9.713275909423828,-0.6392518281936646,-1.403002142906189,0.3204345703125,2.9144287109375,0.4730224609375
14.5099999,9.708487510681152,-0.646434485912323,-1.4077905416488647,-0.152587890625,1.40380859375,-0.54931640625
14.5299999,9.701305389404297,-0.6536170840263367,-1.3862427473068237,0.2288818359375,0.4730224609375,-0.0457763671875
14.549999900000001,9.694122314453125,-0.6416460275650024,-1.3766659498214722,-0.335693359375,1.556396484375,-0.274658203125
14.569999900000001,9.691728591918945,-0.6344634294509888,-1.359906554222107,-0.1068115234375,2.0599365234375,0.30517578125
14.5899999,9.68933391571045,-0.6200982332229614,-1.3718775510787964,1.28173828125,0.48828125,0.54931640625
14.6099999,9.68694019317627,-0.6129156351089478,-1.3646949529647827,0.48828125,1.15966796875,0.1068115234375
14.629999900000001,9.691728591918945,-0.6009446382522583,-1.3862427473068237,0.5035400390625,0.885009765625,0.30517578125
14.649999900000001,9.6989107131958,-0.6129156351089478,-1.3982137441635132,1.8310546875,0.6866455078125,1.6632080078125
14.6699999,9.706093788146973,-0.629675030708313,-1.41257905960083,1.7242431640625,1.2359619140625,1.251220703125
14.6899999,9.720458984375,-0.6560112833976746,-1.4077905416488647,0.7781982421875,1.9378662109375,-0.6561279296875
14.709999900000001,9.730035781860352,-0.6871358752250671,-1.3910311460494995,0.946044921875,1.7852783203125,-0.6561279296875
14.729999900000001,9.727641105651855,-0.7086837291717529,-1.3215993642807007,1.617431640625,2.685546875,0.1068115234375
14.7499999,9.725247383117676,-0.730231523513794,-1.2473790645599365,2.532958984375,1.6021728515625,-0.1220703125
14.7699999,9.701305389404297,-0.7589619159698486,-1.1516109704971313,2.960205078125,0.9613037109375,-0.5035400390625
14.789999900000002,9.655815124511719,-0.7948749661445618,-1.0606313943862915,3.204345703125,2.838134765625,-0.335693359375
14.809999900000001,9.641449928283691,-0.8690952062606812,-0.9576807022094727,5.06591796875,3.0059814453125,-1.3580322265625
14.8299999,9.600749015808105,-0.9217676520347595,-0.8762778043746948,7.14111328125,3.3416748046875,-3.692626953125
14.8499999,9.605537414550781,-0.9433154463768005,-0.7493851184844971,12.7105712890625,8.30078125,-5.3558349609375
14.8699999,9.59835433959961,-0.912190854549408,-0.5722141861915588,18.6309814453125,10.6658935546875,-2.593994140625
14.889999900000001,9.552865028381348,-0.9097966551780701,-0.05506663769483566,20.3857421875,1.28173828125,-0.2593994140625
14.9099999,9.581595420837402,-0.8834604024887085,0.19153612852096558,27.069091796875,-46.783447265625,-7.87353515625
14.9299999,9.66299819946289,-0.9097966551780701,0.3208230137825012,32.562255859375,-57.4188232421875,-11.383056640625
14.9499999,9.763554573059082,-1.0271124839782715,0.43095630407333374,4.8675537109375,-0.1068115234375,-14.34326171875
14.969999900000001,9.93593692779541,-0.9528923034667969,0.2825157940387726,-16.1285400390625,-8.0108642578125,-34.1644287109375
14.9899999,10.019734382629395,-0.7829039692878723,0.5363011956214905,-16.143798828125,-19.927978515625,-38.3148193359375
15.0099999,9.974244117736816,-0.3687070608139038,1.213860273361206,-26.092529296875,5.279541015625,-27.801513671875
15.0299999,9.818621635437012,0.14604631066322327,1.9297266006469727,-40.985107421875,-3.4942626953125,-19.3328857421875
15.049999900000001,9.526528358459473,0.507570743560791,2.693476915359497,-48.4161376953125,-9.4451904296875,-11.41357421875
15.069999900000001,9.205705642700195,0.7038952708244324,3.134010076522827,-54.6875,-4.2877197265625,-13.6566162109375
15.0899999,9.062053680419922,0.5793967843055725,3.2130186557769775,-52.734375,-1.15966796875,-10.7421875
15.1099999,9.2033109664917,0.4141969084739685,2.8203697204589844,-42.144775390625,-6.5460205078125,-5.31005859375
15.129999900000001,9.68694019317627,0.42377370595932007,2.3750481605529785,-46.112060546875,6.591796875,-6.9122314453125
15.149999900000001,10.311826705932617,0.5099649429321289,1.9512743949890137,-52.2613525390625,8.1787109375,4.791259765625
15.1699999,10.824186325073242,0.33518823981285095,1.7932571172714233,-60.7147216796875,-3.8909912109375,13.4124755859375
15.1899999,11.14500904083252,0.047884032130241394,1.5945383310317993,-72.052001953125,-21.8505859375,-21.5606689453125
15.209999900000001,11.26950740814209,-0.10534487664699554,1.1276689767837524,-41.2750244140625,-30.1971435546875,-41.9158935546875
15.229999900000001,11.544840812683105,0.05267243832349777,-0.23702596127986908,14.1448974609375,-27.03857421875,6.622314453125
15.2499999,11.595118522644043,0.7876923680305481,-2.1547815799713135,17.7154541015625,6.4544677734375,39.520263671875
15.2699999,11.762712478637695,1.6065093278884888,-3.9815573692321777,-53.131103515625,63.5986328125,19.6380615234375
15.289999900000002,11.496956825256348,2.6886885166168213,-5.671864032745361,-61.6302490234375,4.8980712890625,-7.2174072265625
15.309999900000001,10.747570991516113,3.0166940689086914,-5.932831764221191,-14.22119140625,-3.662109375,57.12890625
15.3299999,9.526528358459473,2.9712042808532715,-5.485116004943848,14.9688720703125,-42.2515869140625,98.907470703125
15.3499999,7.884106159210205,2.27209734916687,-4.788403511047363,-22.3846435546875,-108.856201171875,38.360595703125
15.3699999,6.14831018447876,1.2066776752471924,-3.9815573692321777,-105.1788330078125,-115.4022216796875,-63.5833740234375
15.389999900000001,5.171475887298584,0.6631938815116882,-4.656722068786621,-109.9853515625,-160.4766845703125,-107.1624755859375
15.4099999,5.896918773651123,1.2282254695892334,-6.349422931671143,-64.5751953125,-179.6417236328125,-61.7523193359375
15.4299999,8.291120529174805,1.7477672100067139,-10.539276123046875,-1.6937255859375,-179.9774169921875,47.2869873046875
15.4499999,10.735600471496582,1.194706678390503,-13.907917976379395,36.8804931640625,25.9246826171875,104.6905517578125
15.469999900000001,11.882423400878906,0.08619125932455063,-15.579070091247559,28.350830078125,186.859130859375,-5.92041015625
15.4899999,10.685321807861328,-1.4221558570861816,-13.848062515258789,20.9197998046875,118.1640625,-85.479736328125
15.5099999,7.9631147384643555,-1.4245500564575195,-9.244012832641602,12.5732421875,2.0599365234375,-62.3779296875
15.5299999,5.506663799285889,0.1388636976480484,-4.321534156799316,7.7056884765625,-53.1463623046875,-1.3275146484375
15.549999900000001,4.46518611907959,1.723825216293335,-1.194706678390503,8.8043212890625,-44.8150634765625,57.861328125
15.569999900000001,4.833893299102783,2.276885747909546,-0.2777273952960968,9.0484619140625,-11.1083984375,48.15673828125
15.5899999,5.889736175537109,1.6950948238372803,-0.8906430602073669,5.767822265625,5.37109375,-12.3748779296875
15.6099999,7.038952827453613,0.5482721924781799,-1.8387469053268433,-2.105712890625,5.035400390625,-39.794921875
15.629999900000001,7.979874134063721,-0.11013327538967133,-2.715024709701538,-7.9803466796875,-5.7373046875,-29.4036865234375
15.649999900000001,8.671798706054688,-0.16998831927776337,-3.246537446975708,-9.3841552734375,-11.0931396484375,-13.12255859375
15.6699999,9.153033256530762,0.12928688526153564,-3.6559460163116455,-7.3699951171875,-6.1798095703125,-9.9334716796875
15.6899999,9.457097053527832,0.33039984107017517,-3.9408559799194336,-1.7547607421875,-1.2054443359375,-9.6893310546875
15.709999900000001,9.5624418258667,0.4405331015586853,-4.137180328369141,4.8370361328125,0.3204345703125,-9.552001953125
15.729999900000001,9.497797966003418,0.4596867263317108,-4.170699596405029,5.3253173828125,1.8768310546875,-11.2152099609375
15.7499999,9.330204010009766,0.44771572947502136,-4.043806552886963,1.983642578125,5.5694580078125,-10.6353759765625
15.7699999,9.124302864074707,0.4620809257030487,-3.861847400665283,1.922607421875,-0.5340576171875,-12.1307373046875
15.789999900000002,8.956708908081055,0.507570743560791,-3.6296098232269287,1.495361328125,-0.732421875,-14.9383544921875
15.809999900000001,8.880094528198242,0.5746083855628967,-3.450044631958008,5.2642822265625,-2.0294189453125,-12.0697021484375
15.8299999,8.927978515625,0.727837324142456,-3.3734302520751953,4.1351318359375,-4.5928955078125,-10.4522705078125
15.8499999,9.062053680419922,0.9145850539207458,-3.35667085647583,-1.2664794921875,-4.7607421875,-10.7879638671875
15.869999900000002,9.27034854888916,1.1109095811843872,-3.4596214294433594,-3.5552978515625,-5.126953125,-7.26318359375
15.889999900000001,9.478644371032715,1.2282254695892334,-3.6320040225982666,-0.091552734375,-3.84521484375,-0.762939453125
15.9099999,9.63187313079834,1.2234370708465576,-3.825934410095215,0.6103515625,3.3416748046875,0.091552734375
15.9299999,9.682151794433594,1.1420341730117798,-3.974374771118164,-0.1220703125,7.781982421875,-4.94384765625
15.9499999,9.624691009521484,1.05105459690094,-4.02465295791626,-0.030517578125,8.30078125,-7.6751708984375
15.969999900000001,9.493009567260742,1.048660397529602,-3.952826976776123,-0.2899169921875,7.4310302734375,-5.889892578125
15.9899999,9.32541561126709,1.1180921792984009,-3.8786067962646484,0.4730224609375,2.0904541015625,-1.2969970703125
16.0099999,9.150638580322266,1.1851298809051514,-3.7900211811065674,-1.2969970703125,3.570556640625,0.54931640625
16.0299999,9.004592895507812,1.1635819673538208,-3.7900211811065674,-2.0751953125,6.3018798828125,-3.1585693359375
16.0499999,8.913613319396973,1.1252747774124146,-3.8163576126098633,-2.7618408203125,10.650634765625,-8.941650390625
16.0699999,8.856152534484863,1.115697979927063,-3.8307228088378906,-4.0740966796875,11.138916015625,-9.918212890625
16.089999900000002,8.827422142028809,1.161187767982483,-3.758896589279175,-5.767822265625,10.68115234375,-2.7008056640625
16.109999900000002,8.81784439086914,1.2042834758758545,-3.6774938106536865,-4.2572021484375,4.241943359375,1.800537109375
16.1299999,8.789113998413086,1.1755530834197998,-3.5003228187561035,-3.1280517578125,5.615234375,-0.335693359375
16.1499999,8.779537200927734,1.094150185585022,-3.3854012489318848,-0.42724609375,3.4637451171875,-4.058837890625
16.1699999,8.796297073364258,1.0007762908935547,-3.28963303565979,-0.7781982421875,0.67138671875,-3.8909912109375
16.1899999,8.83699893951416,0.9624691009521484,-3.220201253890991,-2.1209716796875,-0.0457763671875,-1.953125
16.2099999,8.920795440673828,0.9624691009521484,-3.246537446975708,0.1678466796875,-3.5247802734375,-0.42724609375
16.2299999,9.006986618041992,0.9720458984375,-3.2632968425750732,0.091552734375,-0.9307861328125,-1.52587890625
16.249999900000002,9.08838939666748,0.9840168952941895,-3.3470940589904785,-1.312255859375,0.54931640625,-3.1280517578125
16.269999900000002,9.148244857788086,1.0007762908935547,-3.426102638244629,-0.79345703125,-0.701904296875,-2.532958984375
16.2899999,9.186552047729492,1.0582371950149536,-3.5266590118408203,0.0152587890625,0.1983642578125,-2.6397705078125
16.3099999,9.20091724395752,1.1037269830703735,-3.6104562282562256,1.1444091796875,2.593994140625,-0.54931640625
16.3299999,9.191340446472168,1.139639973640442,-3.6535518169403076,0.030517578125,5.67626953125,0.54931640625
16.3499999,9.150638580322266,1.1851298809051514,-3.6535518169403076,-0.3509521484375,2.7618408203125,-1.9378662109375
16.3699999,9.095572471618652,1.1875240802764893,-3.622427225112915,-0.8392333984375,-0.030517578125,-1.5869140625
16.3899999,9.040505409240723,1.1755530834197998,-3.5889084339141846,-0.1373291015625,0.3662109375,0.152587890625
16.4099999,9.009381294250488,1.1635819673538208,-3.5865142345428467,1.556396484375,1.4495849609375,-0.8697509765625
16.429999900000002,9.016563415527344,1.1755530834197998,-3.624821424484253,3.6773681640625,0.0762939453125,-1.3275146484375
16.4499999,9.026140213012695,1.216254472732544,-3.6320040225982666,4.119873046875,1.129150390625,2.1514892578125
16.4699999,9.045293807983398,1.2880805730819702,-3.6128504276275635,1.861572265625,3.3111572265625,5.4779052734375
16.4899999,9.066842079162598,1.2976573705673218,-3.581725835800171,2.4871826171875,-1.3885498046875,7.9498291015625
16.5099999,9.0859956741333,1.2330138683319092,-3.536235809326172,4.5623779296875,-2.8839111328125,5.950927734375
16.5299999,9.10993766784668,1.1204863786697388,-3.5242648124694824,5.67626953125,-1.739501953125,1.7547607421875
16.5499999,9.141061782836914,1.0295066833496094,-3.5482068061828613,3.6773681640625,-0.213623046875,0.42724609375
16.5699999,9.153033256530762,1.0271124839782715,-3.557783842086792,2.9144287109375,1.4495849609375,1.129150390625
16.589999900000002,9.150638580322266,1.0821791887283325,-3.579331636428833,4.2572021484375,-2.13623046875,4.669189453125
16.609999900000002,9.124302864074707,1.115697979927063,-3.5865142345428467,5.3558349609375,-2.9144287109375,6.9732666015625
16.6299999,9.08838939666748,1.0845733880996704,-3.60566782951355,4.8065185546875,-0.579833984375,3.9215087890625
16.6499999,9.059659004211426,0.9911994934082031,-3.641580820083618,3.9215087890625,0.9307861328125,-0.7781982421875
16.6699999,9.035717010498047,0.9313444495201111,-3.6559460163116455,1.4801025390625,1.953125,-4.7607421875
16.6899999,9.014169692993164,0.9457096457481384,-3.6367924213409424,-1.2359619140625,2.410888671875,-3.6163330078125
16.7099999,8.999804496765137,1.0223240852355957,-3.598485231399536,-1.861572265625,0.457763671875,0.0152587890625
16.7299999,8.987833023071289,1.1085153818130493,-3.552995204925537,0.42724609375,-0.7781982421875,2.3193359375
16.749999900000002,8.990227699279785,1.1252747774124146,-3.531447410583496,1.9073486328125,-1.2054443359375,2.0599365234375
16.769999900000002,9.016563415527344,1.1252747774124146,-3.56017804145813,1.8310546875,-1.983642578125,-0.2288818359375
16.7899999,9.05247688293457,1.0749965906143188,-3.6080620288848877,2.01416015625,-0.7781982421875,1.2359619140625
16.8099999,9.08838939666748,1.0462661981582642,-3.6583402156829834,0.8087158203125,1.708984375,1.9378662109375
16.8299999,9.11233139038086,1.0414776802062988,-3.7014358043670654,0.213623046875,0.8087158203125,0.0457763671875
16.8499999,9.119514465332031,1.0342950820922852,-3.706224203109741,0.396728515625,1.251220703125,1.6326904296875
16.8699999,9.11233139038086,1.0007762908935547,-3.7014358043670654,1.708984375,0.5645751953125,3.6163330078125
16.8899999,9.105149269104004,0.9864110946655273,-3.6798880100250244,1.617431640625,0.54931640625,1.15966796875
16.9099999,9.093177795410156,0.9385270476341248,-3.6535518169403076,0.8697509765625,0.48828125,-0.396728515625
16.929999900000002,9.0859956741333,0.9002198576927185,-3.641580820083618,0.3662109375,0.6256103515625,0.3509521484375
16.9499999,9.083600997924805,0.8978256583213806,-3.641580820083618,-0.9613037109375,0.8087158203125,-0.732421875
16.9699999,9.069235801696777,0.8834604024887085,-3.646369218826294,-2.4261474609375,3.1890869140625,-1.7852783203125
16.9899999,9.042900085449219,0.8595184087753296,-3.6535518169403076,-1.5106201171875,3.021240234375,-1.922607421875
17.0099999,9.002198219299316,0.8571242094039917,-3.6296098232269287,-1.373291015625,2.8533935546875,-4.5013427734375
17.0299999,8.956708908081055,0.8978256583213806,-3.576937437057495,-1.800537109375,2.1514892578125,-4.94384765625
17.0499999,8.93037223815918,0.9576807022094727,-3.5218706130981445,-3.11279296875,1.129150390625,-1.9073486328125
17.0699999,8.9064302444458,1.0462661981582642,-3.469198226928711,-2.9144287109375,-0.640869140625,0.2288818359375
17.089999900000002,8.923190116882324,1.0558429956436157,-3.490746021270752,0.79345703125,-3.173828125,2.7313232421875
17.109999900000002,8.949525833129883,1.0079588890075684,-3.5458126068115234,1.861572265625,-2.8228759765625,0.8392333984375
17.1299999,8.980650901794434,0.933738648891449,-3.627215623855591,0.91552734375,-0.885009765625,-0.9918212890625
17.1499999,9.02135181427002,0.8810662031173706,-3.711012601852417,0.3509521484375,-0.396728515625,-0.6866455078125
17.1699999,9.047688484191895,0.8786720037460327,-3.7636849880218506,0.1220703125,-0.79345703125,0.701904296875
17.1899999,9.07641887664795,0.8834604024887085,-3.801992416381836,-0.1983642578125,-0.3204345703125,1.9683837890625
17.2099999,9.097966194152832,0.8978256583213806,-3.825934410095215,0.9765625,0.152587890625,0.6866455078125
17.2299999,9.121908187866211,0.8667010068893433,-3.8355112075805664,2.1514892578125,1.3275146484375,0.0152587890625
17.249999900000002,9.153033256530762,0.8331822156906128,-3.8594532012939453,0.9765625,0.823974609375,-2.44140625
17.269999900000002,9.174580574035645,0.8164227604866028,-3.866635799407959,-2.0751953125,3.7994384765625,-5.7830810546875
17.2899999,9.20091724395752,0.8547300100326538,-3.8786067962646484,-3.3111572265625,6.4849853515625,-5.55419921875
17.3099999,9.193734169006348,0.9193734526634216,-3.84269380569458,-3.9520263671875,8.880615234375,-2.7923583984375
17.3299999,9.172186851501465,0.9983820915222168,-3.7708675861358643,-3.2501220703125,5.7525634765625,-0.4730224609375
17.3499999,9.14585018157959,1.0414776802062988,-3.711012601852417,-3.35693359375,2.593994140625,-1.922607421875
17.3699999,9.10993766784668,1.05105459690094,-3.60566782951355,-3.5552978515625,6.2103271484375,-3.4027099609375
17.3899999,9.100360870361328,1.039083480834961,-3.5889084339141846,-0.762939453125,4.45556640625,-0.640869140625
17.409999900000003,9.105149269104004,1.0271124839782715,-3.555389642715454,0.91552734375,1.983642578125,0.9002685546875
17.429999900000002,9.133879661560059,1.0271124839782715,-3.5936968326568604,2.1820068359375,0.4730224609375,0.79345703125
17.4499999,9.155426979064941,1.0103530883789062,-3.6391866207122803,2.6702880859375,2.01416015625,1.3580322265625
17.4699999,9.174580574035645,0.9816226959228516,-3.708618402481079,1.6632080078125,3.60107421875,1.4190673828125
17.4899999,9.160215377807617,0.9528923034667969,-3.7469255924224854,2.1514892578125,2.8228759765625,0.2899169921875
17.5099999,9.119514465332031,0.9600749015808105,-3.7253777980804443,2.8839111328125,2.4261474609375,-0.54931640625
17.5299999,9.071630477905273,0.9840168952941895,-3.691859006881714,3.90625,-0.1678466796875,1.220703125
17.5499999,9.026140213012695,1.0342950820922852,-3.6367924213409424,1.52587890625,0.7476806640625,2.4566650390625
17.5699999,8.99740982055664,1.0678139925003052,-3.6128504276275635,0.5950927734375,2.50244140625,1.708984375
17.589999900000002,8.98543930053711,1.05105459690094,-3.6080620288848877,0.732421875,3.7384033203125,0.1678466796875
17.609999900000002,8.98543930053711,1.0031704902648926,-3.600879430770874,0.091552734375,5.035400390625,-2.5177001953125
17.6299999,8.987833023071289,0.9600749015808105,-3.598485231399536,0.946044921875,3.23486328125,-4.608154296875
17.6499999,8.992621421813965,0.9433154463768005,-3.5889084339141846,0.823974609375,4.364013671875,-5.18798828125
17.6699999,8.990227699279785,0.9983820915222168,-3.5649664402008057,0.0457763671875,7.01904296875,-5.4931640625
17.6899999,8.983044624328613,1.0773907899856567,-3.531447410583496,0.91552734375,6.4544677734375,-3.5400390625
17.7099999,8.971074104309082,1.1468225717544556,-3.49314022064209,2.8228759765625,4.69970703125,-1.03759765625
17.7299999,8.96389102935791,1.194706678390503,-3.4620156288146973,2.3193359375,4.5623779296875,-2.7618408203125
17.749999900000002,8.956708908081055,1.2090718746185303,-3.445256233215332,1.4190673828125,5.7220458984375,-4.1351318359375
17.769999900000002,8.956708908081055,1.1971008777618408,-3.471592426300049,0.4730224609375,5.218505859375,-2.960205078125
17.7899999,8.942343711853027,1.158793568611145,-3.4572272300720215,0.579833984375,6.6680908203125,-1.953125
17.8099999,8.935160636901855,1.0989385843276978,-3.4548330307006836,2.0294189453125,3.9520263671875,-3.7689208984375
17.8299999,8.932766914367676,1.0654197931289673,-3.428496837615967,1.9989013671875,1.40380859375,-7.354736328125
17.8499999,8.944737434387207,1.05105459690094,-3.383007049560547,2.5634765625,1.3580322265625,-4.7607421875
17.8699999,8.959102630615234,1.0797849893569946,-3.332728862762451,5.1116943359375,-3.4027099609375,-0.152587890625
17.8899999,8.99740982055664,1.1228805780410767,-3.3039982318878174,8.6822509765625,-11.4898681640625,2.5634765625
17.909999900000003,9.016563415527344,1.1061211824417114,-3.2776620388031006,12.20703125,-16.5863037109375,6.5155029296875
17.929999900000002,9.040505409240723,1.048660397529602,-3.383007049560547,13.2598876953125,-21.331787109375,9.5672607421875
17.9499999,9.0859956741333,0.933738648891449,-3.5745432376861572,8.6822509765625,-15.2130126953125,10.3302001953125
17.9699999,9.097966194152832,0.8978256583213806,-3.7493197917938232,5.401611328125,-1.9073486328125,4.33349609375
17.9899999,9.124302864074707,0.8307880163192749,-3.9217023849487305,7.3699951171875,-1.3275146484375,7.537841796875
18.0099999,9.114726066589355,0.8523358106613159,-3.993528366088867,8.9111328125,-5.8441162109375,6.1492919921875
18.0299999,9.071630477905273,0.8930372595787048,-3.950432777404785,3.997802734375,4.21142578125,-2.2125244140625
18.0499999,9.016563415527344,0.9097966551780701,-3.890577793121338,3.448486328125,6.77490234375,-0.579833984375
18.0699999,8.947132110595703,0.9217676520347595,-3.797203779220581,3.4942626953125,4.5166015625,-0.274658203125
18.089999900000002,8.887276649475098,0.9361328482627869,-3.6846764087677,2.655029296875,4.6234130859375,-3.0517578125
18.109999900000002,8.858546257019043,0.933738648891449,-3.584120035171509,0.4730224609375,5.3558349609375,-3.997802734375
18.1299999,8.865729331970215,0.9624691009521484,-3.5242648124694824,-1.0528564453125,2.25830078125,-4.0130615234375
18.1499999,8.89685344696045,1.0007762908935547,-3.4979286193847656,-0.6866455078125,1.6632080078125,-2.349853515625
18.1699999,8.947132110595703,1.05105459690094,-3.5003228187561035,-0.8392333984375,2.1820068359375,-1.739501953125
18.1899999,9.011775016784668,1.05105459690094,-3.5865142345428467,0.6866455078125,0.06103515625,0.06103515625
18.2099999,9.071630477905273,0.9959878921508789,-3.687070608139038,1.312255859375,1.2054443359375,-0.8087158203125
18.2299999,9.14345645904541,0.9289502501487732,-3.8379054069519043,0.4119873046875,5.767822265625,-5.5694580078125
18.249999900000002,9.20091724395752,0.8738836050033569,-3.971980571746826,0.91552734375,7.232666015625,-6.744384765625
18.269999900000002,9.246406555175781,0.8571242094039917,-4.05817174911499,2.471923828125,9.7808837890625,-2.5482177734375
18.2899999,9.282320022583008,0.8738836050033569,-4.101267337799072,3.35693359375,9.429931640625,-1.5716552734375
18.3099999,9.287108421325684,0.8906430602073669,-4.02465295791626,2.5177001953125,11.260986328125,-3.021240234375
18.3299999,9.296685218811035,0.9145850539207458,-3.976768970489502,4.2572021484375,7.8125,-4.3182373046875
18.3499999,9.277531623840332,0.9576807022094727,-3.8331170082092285,3.265380859375,8.8653564453125,-3.11279296875
18.3699999,9.255983352661133,1.0247182846069336,-3.6990416049957275,-0.030517578125,11.8408203125,-2.74658203125
18.3899999,9.251194953918457,1.0821791887283325,-3.6152446269989014,1.9073486328125,8.270263671875,-1.15966796875
18.409999900000003,9.258378028869629,1.1228805780410767,-3.555389642715454,2.5634765625,9.3536376953125,-1.4495849609375
18.429999900000002,9.277531623840332,1.115697979927063,-3.5697548389434814,0.1373291015625,13.4429931640625,-1.6937255859375
18.4499999,9.287108421325684,1.0678139925003052,-3.600879430770874,-1.40380859375,14.5263671875,-1.3427734375
18.4699999,9.265560150146484,1.0582371950149536,-3.600879430770874,-3.2501220703125,15.533447265625,-4.3792724609375
18.4899999,9.210494041442871,1.0462661981582642,-3.5625722408294678,-1.7242431640625,16.11328125,-3.3721923828125
18.5099999,9.138668060302734,1.0462661981582642,-3.426102638244629,0.3204345703125,18.310546875,1.40380859375
18.5299999,9.081207275390625,1.0606313943862915,-3.3207578659057617,1.5411376953125,13.61083984375,0.6256103515625
18.5499999,9.035717010498047,1.094150185585022,-3.177105665206909,0.18310546875,13.7176513671875,-2.2735595703125
18.5699999,9.016563415527344,1.094150185585022,-3.0526070594787598,-0.1983642578125,14.9993896484375,1.0528564453125
18.589999900000002,9.026140213012695,1.1013327836990356,-2.999934673309326,0.7781982421875,11.1236572265625,3.326416015625
18.609999900000002,9.038111686706543,1.094150185585022,-2.8993782997131348,0.4730224609375,10.80322265625,1.0986328125
18.6299999,9.064447402954102,1.0223240852355957,-2.889801502227783,0.7476806640625,8.48388671875,-0.1068115234375
18.6499999,9.093177795410156,0.9624691009521484,-2.8586769104003906,0.6103515625,8.8958740234375,-1.953125
18.6699999,9.114726066589355,0.9600749015808105,-2.8371291160583496,-0.8392333984375,10.7269287109375,-4.486083984375
18.6899999,9.148244857788086,0.9983820915222168,-2.8395233154296875,0.213623046875,7.6446533203125,-1.983642578125
18.7099999,9.186552047729492,1.0582371950149536,-2.82515811920166,0.335693359375,4.3792724609375,1.678466796875
18.7299999,9.23682975769043,1.115697979927063,-2.8586769104003906,0.3509521484375,5.2490234375,0.9918212890625
18.749999900000002,9.294290542602539,1.0989385843276978,-2.8874073028564453,1.4190673828125,6.2103271484375,0.8392333984375
18.769999900000002,9.344569206237793,1.0462661981582642,-2.9472622871398926,1.5106201171875,6.53076171875,-0.1068115234375
18.7899999,9.368511199951172,1.0055646896362305,-2.9472622871398926,0.91552734375,8.23974609375,-2.4566650390625
18.8099999,9.378087997436523,0.993593692779541,-2.964021682739258,1.007080078125,5.8746337890625,-1.8463134765625
18.8299999,9.361329078674316,1.0223240852355957,-2.911349296569824,-0.091552734375,6.378173828125,-0.6561279296875
18.8499999,9.344569206237793,1.048660397529602,-2.8850131034851074,1.4495849609375,4.1046142578125,0.8087158203125
18.8699999,9.32302188873291,1.070208191871643,-2.8395233154296875,4.5013427734375,2.288818359375,0.7476806640625
18.8899999,9.313444137573242,1.036689281463623,-2.8562827110290527,5.096435546875,2.1209716796875,0.67138671875
18.909999900000003,9.327810287475586,0.9792284965515137,-2.87064790725708,3.3721923828125,4.5928955078125,0.3509521484375
18.929999900000002,9.344569206237793,0.9768342971801758,-2.911349296569824,0.3814697265625,6.6070556640625,-3.23486328125
18.9499999,9.368511199951172,0.9888052940368652,-2.920926094055176,2.25830078125,4.5623779296875,-0.5950927734375
18.9699999,9.373299598693848,1.0319008827209473,-2.8658595085144043,3.47900390625,6.0577392578125,3.2958984375
18.9899999,9.35654067993164,1.0654197931289673,-2.8419175148010254,5.615234375,1.1444091796875,2.99072265625
19.0099999,9.330204010009766,1.036689281463623,-2.7557260990142822,4.2266845703125,3.7994384765625,1.0986328125
19.0299999,9.296685218811035,1.0199298858642578,-2.7293899059295654,1.28173828125,4.2266845703125,-2.685546875
19.0499999,9.265560150146484,1.0079588890075684,-2.6815059185028076,-0.7171630859375,4.0283203125,-2.74658203125
19.0699999,9.224859237670898,1.0438719987869263,-2.6599581241607666,0.152587890625,2.0599365234375,-1.64794921875
19.089999900000002,9.184157371520996,1.0821791887283325,-2.647987127304077,2.044677734375,1.6937255859375,0.7781982421875
19.109999900000002,9.14585018157959,1.0630255937576294,-2.6623523235321045,3.5247802734375,0.6561279296875,2.3193359375
19.1299999,9.117119789123535,1.0247182846069336,-2.6623523235321045,0.8087158203125,2.1514892578125,-1.556396484375
19.1499999,9.124302864074707,0.9600749015808105,-2.7246015071868896,1.3580322265625,-2.105712890625,-4.058837890625
19.1699999,9.157821655273438,0.9217676520347595,-2.75812029838562,1.312255859375,-0.0457763671875,-3.23486328125
19.1899999,9.217676162719727,0.9457096457481384,-2.8419175148010254,0.457763671875,1.8310546875,-3.3721923828125
19.2099999,9.287108421325684,0.9672574996948242,-2.920926094055176,1.922607421875,1.1138916015625,-1.3275146484375
19.2299999,9.363722801208496,0.9983820915222168,-3.0190882682800293,2.7923583984375,1.068115234375,-1.5411376953125
19.249999900000002,9.433155059814453,1.015141487121582,-3.1076738834381104,2.0599365234375,2.2735595703125,-3.692626953125
19.269999900000002,9.48343276977539,1.0007762908935547,-3.155557870864868,-0.3204345703125,6.9427490234375,-3.9520263671875
19.2899999,9.514557838439941,0.9720458984375,-3.1483752727508545,1.15966796875,6.5155029296875,-3.5400390625
19.3099999,9.509769439697266,0.9672574996948242,-3.07415509223938,2.9754638671875,5.7373046875,-4.974365234375
19.3299999,9.473855972290039,1.015141487121582,-2.9328970909118652,-0.30517578125,7.415771484375,-7.0343017578125
19.3499999,9.428366661071777,1.0893617868423462,-2.760514497756958,-0.8697509765625,5.3558349609375,-2.593994140625
19.3699999,9.390059471130371,1.216254472732544,-2.6647465229034424,1.0223388671875,-1.77001953125,1.46484375
19.3899999,9.366117477416992,1.2832920551300049,-2.580949544906616,-0.244140625,-1.007080078125,2.38037109375
19.409999900000003,9.363722801208496,1.3263877630233765,-2.6144683361053467,-1.52587890625,0.8697509765625,0.701904296875
19.429999900000002,9.368511199951172,1.280897855758667,-2.7054479122161865,-1.312255859375,-0.9613037109375,3.326416015625
19.4499999,9.397241592407227,1.194706678390503,-2.8562827110290527,0.6561279296875,0.5645751953125,4.69970703125
19.4699999,9.41400146484375,1.1444283723831177,-2.9903578758239746,-0.0762939453125,6.3323974609375,1.129150390625
19.4899999,9.440337181091309,1.1085153818130493,-3.1196448802948,1.1749267578125,6.7596435546875,2.716064453125
19.5099999,9.457097053527832,1.1109095811843872,-3.1866824626922607,2.899169921875,6.28662109375,7.4462890625
19.5299999,9.452308654785156,1.1228805780410767,-3.136404275894165,2.4261474609375,8.8348388671875,6.8206787109375
19.5499999,9.437943458557129,1.0869675874710083,-3.0789434909820557,4.3487548828125,7.7362060546875,4.2266845703125
19.5699999,9.428366661071777,1.0438719987869263,-2.9328970909118652,5.523681640625,8.5906982421875,3.3416748046875
19.589999900000002,9.435548782348633,1.015141487121582,-2.849100112915039,5.37109375,5.859375,3.7689208984375
19.609999900000002,9.459490776062012,1.039083480834961,-2.741360902786255,4.058837890625,7.354736328125,3.997802734375
19.6299999,9.502586364746094,1.0630255937576294,-2.674323320388794,3.0670166015625,10.0555419921875,6.1492919921875
19.6499999,9.543288230895996,1.0773907899856567,-2.58813214302063,3.4942626953125,9.765625,6.6986083984375
19.6699999,9.57441234588623,1.0199298858642578,-2.4803929328918457,2.7618408203125,11.0626220703125,5.9356689453125
19.6899999,9.591172218322754,0.933738648891449,-2.3558945655822754,2.532958984375,11.138916015625,3.662109375
19.7099999,9.612719535827637,0.8930372595787048,-2.276885747909546,1.89208984375,8.9874267578125,-0.2288818359375
19.7299999,9.641449928283691,0.8738836050033569,-2.2385785579681396,1.3580322265625,9.2926025390625,2.0294189453125
19.749999900000002,9.655815124511719,0.9169792532920837,-2.2146365642547607,1.6937255859375,11.6119384765625,5.0811767578125
19.769999900000002,9.670180320739746,0.9552865028381348,-2.2577321529388428,2.25830078125,7.598876953125,4.82177734375
19.7899999,9.639056205749512,0.9385270476341248,-2.233790159225464,2.2735595703125,7.904052734375,4.5166015625
19.8099999,9.576807022094727,0.8930372595787048,-2.2002713680267334,1.5716552734375,9.7198486328125,3.326416015625
19.8299999,9.495404243469238,0.8092401623725891,-2.1715409755706787,2.9449462890625,5.37109375,3.3111572265625
19.8499999,9.41400146484375,0.7733271718025208,-2.118868589401245,1.1138916015625,5.706787109375,1.953125
19.8699999,9.361329078674316,0.7182605266571045,-2.1523873805999756,-0.6256103515625,5.4168701171875,1.8157958984375
19.8899999,9.334992408752441,0.7038952708244324,-2.1811177730560303,-2.4871826171875,9.3231201171875,0.30517578125
19.909999900000003,9.334992408752441,0.7110779285430908,-2.233790159225464,-0.6866455078125,8.5296630859375,-1.068115234375
19.929999900000002,9.346963882446289,0.7086837291717529,-2.2409727573394775,0.9765625,5.4931640625,1.03759765625
19.9499999,9.368511199951172,0.7134721279144287,-2.2409727573394775,0.8544921875,3.326416015625,2.2125244140625
19.9699999,9.409213066101074,0.6991068720817566,-2.207453966140747,0.6256103515625,5.126953125,1.0986328125
19.9899999,9.459490776062012,0.6991068720817566,-2.229001760482788,-0.579833984375,5.9967041015625,-2.44140625
20.0099999,9.512163162231445,0.7134721279144287,-2.190694570541382,-2.2430419921875,9.0789794921875,-2.0751953125
20.0299999,9.552865028381348,0.7781155705451965,-2.169146776199341,-0.8697509765625,5.9356689453125,0.5645751953125
20.0499999,9.586383819580078,0.8307880163192749,-2.1380221843719482,-1.1138916015625,2.6092529296875,3.0059814453125
20.0699999,9.617507934570312,0.8451532125473022,-2.118868589401245,1.220703125,2.2735595703125,4.0435791015625
20.089999900000002,9.660603523254395,0.7972691655158997,-2.1978771686553955,5.584716796875,2.5634765625,3.4637451171875
20.109999900000002,9.694122314453125,0.727837324142456,-2.279279947280884,5.67626953125,7.0648193359375,1.312255859375
20.1299999,9.713275909423828,0.6440402865409851,-2.3558945655822754,2.349853515625,9.765625,0.823974609375
20.1499999,9.701305389404297,0.5722141861915588,-2.3702597618103027,1.4495849609375,8.544921875,0.9918212890625
20.1699999,9.66299819946289,0.5339069962501526,-2.276885747909546,0.6561279296875,9.521484375,-1.52587890625
20.1899999,9.612719535827637,0.5410895943641663,-2.1332337856292725,1.1138916015625,7.32421875,-3.875732421875
20.2099999,9.567230224609375,0.6153098344802856,-1.9919757843017578,2.960205078125,3.4942626953125,-1.3275146484375
20.2299999,9.526528358459473,0.6847416758537292,-1.8411411046981812,2.3956298828125,3.11279296875,2.349853515625
20.249999900000002,9.50498104095459,0.7493851184844971,-1.7693150043487549,2.6702880859375,1.2969970703125,1.922607421875
20.269999900000002,9.500192642211914,0.7613561153411865,-1.7381904125213623,4.425048828125,-0.9918212890625,-0.1220703125
20.2899999,9.514557838439941,0.751779317855835,-1.7693150043487549,4.547119140625,0.030517578125,0.457763671875
20.3099999,9.543288230895996,0.7805097699165344,-1.8626888990402222,1.068115234375,-0.06103515625,0.762939453125
20.3299999,9.576807022094727,0.8140285611152649,-1.968033790588379,-1.556396484375,2.0904541015625,2.5787353515625
20.3499999,9.610325813293457,0.8451532125473022,-2.094926595687866,0.5950927734375,2.899169921875,6.256103515625
20.3699999,9.622296333312988,0.7661445140838623,-2.1499931812286377,3.5552978515625,6.0882568359375,7.9803466796875
20.3899999,9.615114212036133,0.6943184733390808,-2.1763293743133545,3.082275390625,7.110595703125,3.173828125
20.409999900000003,9.59596061706543,0.5961562395095825,-2.140416383743286,2.0751953125,5.7373046875,1.15966796875
20.429999900000002,9.57441234588623,0.586579442024231,-2.0614075660705566,1.9989013671875,6.072998046875,3.8909912109375
20.4499999,9.5624418258667,0.629675030708313,-1.987187385559082,3.326416015625,3.3111572265625,8.60595703125
20.4699999,9.57201862335205,0.6440402865409851,-1.9632453918457031,4.8065185546875,0.396728515625,11.16943359375
20.4899999,9.586383819580078,0.6248866319656372,-1.9560627937316895,4.5013427734375,5.0506591796875,7.4005126953125
20.5099999,9.581595420837402,0.545877993106842,-1.9823989868164062,5.67626953125,5.8135986328125,5.1727294921875
20.5299999,9.555258750915527,0.4381389021873474,-2.027888774871826,5.5084228515625,3.2958984375,4.974365234375
20.5499999,9.495404243469238,0.31364041566848755,-2.0877439975738525,5.4168701171875,0.9307861328125,2.99072265625
