# Time (seconds),Accel_X,Accel_Y,Accel_Z,Gyro_X,Gyro_Y,Gyro_Z
0.0099999,2.2601263523101807,5.219359874725342,7.843404769897461,168.609619140625,132.2479248046875,-145.355224609375
0.029999900000000003,1.403002142906189,6.825869083404541,7.908048152923584,156.0211181640625,122.1771240234375,-133.6517333984375
0.0499999,-1.0893617868423462,10.304644584655762,8.346187591552734,6.0272216796875,59.8907470703125,-85.6781005859375
0.0699999,-2.1332337856292725,11.355698585510254,8.336610794067383,41.0003662109375,-11.6729736328125,10.467529296875
0.08999990000000001,-2.9448680877685547,11.767500877380371,7.908048152923584,16.2811279296875,-43.8232421875,-17.7001953125
0.10999990000000001,-3.2154128551483154,11.166556358337402,6.979097843170166,-51.6815185546875,-43.548583984375,-32.4249267578125
0.1299999,-3.2106244564056396,10.093954086303711,5.736507415771484,-84.7320556640625,-34.0576171875,-14.58740234375
0.14999990000000002,-3.1747114658355713,8.99740982055664,4.599261283874512,-65.460205078125,-7.4005126953125,-12.664794921875
0.1699999,-2.762908697128296,7.898471355438232,4.041412353515625,-82.611083984375,-6.1492919921875,-3.4942626953125
0.1899999,-2.255337953567505,6.8593878746032715,4.091690540313721,-105.1177978515625,-35.1409912109375,9.8724365234375
0.20999990000000002,-1.944091796875,6.447585105895996,4.537012100219727,-54.0618896484375,-48.2025146484375,-33.355712890625
0.2299999,-1.5466543436050415,6.138733386993408,5.178658485412598,-16.4642333984375,-57.586669921875,-14.3280029296875
0.2499999,-1.4532804489135742,6.2201361656188965,5.638344764709473,-47.454833984375,-69.3359375,36.163330078125
0.2699999,-1.37906014919281,6.48828649520874,5.91128396987915,-47.149658203125,-67.3980712890625,25.238037109375
0.28999990000000003,-1.2856862545013428,6.615179061889648,6.143521785736084,-38.5589599609375,-74.6002197265625,29.388427734375
0.3099999,-1.2713210582733154,6.919242858886719,6.5696892738342285,-31.2652587890625,-102.020263671875,41.748046875
0.3299999,-1.1204863786697388,6.84981107711792,7.182605266571045,-71.83837890625,-180.7708740234375,85.174560546875
0.34999990000000003,-0.9265560507774353,6.835445880889893,7.642292022705078,-49.896240234375,-248.5198974609375,66.253662109375
0.3699999,-0.5147533416748047,6.593631267547607,7.630321025848389,9.4146728515625,-237.6251220703125,30.2734375
0.3899999,0.47165772318840027,6.09324312210083,7.228095054626465,9.7198486328125,-216.949462890625,48.8128662109375
0.40999990000000003,1.4173674583435059,5.626373767852783,6.856993675231934,-34.393310546875,-221.5118408203125,55.6640625
0.4299999,1.9991583824157715,5.729324817657471,7.187393665313721,-74.6612548828125,-225.4486083984375,-8.4381103515625
0.4499999,2.585737943649292,5.494692802429199,7.673416614532471,-22.2015380859375,-310.760498046875,33.2183837890625
0.4699999,2.7437551021575928,5.5114521980285645,7.759607791900635,104.3853759765625,-412.567138671875,86.5631103515625
0.4899999,2.674323320388794,5.224148273468018,6.7277069091796875,65.582275390625,-405.548095703125,49.62158203125
0.5099999,3.2106244564056396,4.9152960777282715,4.467580318450928,53.16162109375,-273.345947265625,5.55419921875
0.5299999,3.756502389907837,4.632780075073242,2.1547815799713135,2.3193359375,-200.8209228515625,26.6265869140625
0.5499999,4.572925090789795,4.513070106506348,0.8044517636299133,-63.995361328125,-215.33203125,71.807861328125
0.5699999,5.25527286529541,4.558559894561768,0.7469909191131592,-90.88134765625,-281.4178466796875,38.848876953125
0.5899998999999999,5.427655220031738,4.5394062995910645,1.37906014919281,-53.22265625,-380.4168701171875,3.814697265625
0.6099998999999999,5.0900726318359375,4.558559894561768,1.900996208190918,-51.20849609375,-476.98974609375,19.989013671875
0.6299999,4.474762916564941,4.704606533050537,1.292868971824646,-63.7359619140625,-500,27.7557373046875
0.6499999,3.8786067962646484,5.0254292488098145,-0.7445967197418213,-42.6025390625,-465.0115966796875,8.0718994140625
0.6699999,3.7397429943084717,5.643133640289307,-3.93367338180542,-75.3936767578125,-334.014892578125,15.6097412109375
0.6899999,3.9600095748901367,6.473921298980713,-7.285555839538574,-249.114990234375,-192.413330078125,91.5985107421875
0.7099999,4.527435302734375,7.378929615020752,-9.856928825378418,-421.0052490234375,-86.3800048828125,176.9561767578125
0.7299998999999999,5.427655220031738,7.975085735321045,-10.833763122558594,-500,-40.802001953125,223.1292724609375
0.7499998999999999,6.54574728012085,7.9631147384643555,-10.247182846069336,-500,-94.146728515625,235.992431640625
0.7699999,7.587224960327148,7.156269073486328,-8.389283180236816,-500,-191.009521484375,259.9029541015625
0.7899999,8.671798706054688,5.513846397399902,-5.940014362335205,-500,-221.37451171875,285.0494384765625
0.8099999,9.66539192199707,3.0190882682800293,-3.507505416870117,-500,-239.6087646484375,227.3406982421875
0.8299999,10.326191902160645,0.43095630407333374,-1.6424223184585571,-500,-242.279052734375,49.0875244140625
0.8499998999999999,10.577583312988281,-1.436521053314209,-0.7182605266571045,-500,-202.239990234375,-78.8116455078125
0.8699998999999999,10.441113471984863,-1.9297266006469727,-0.5961562395095825,-500,-111.9842529296875,-57.8460693359375
0.8899999,9.9000244140625,-0.9816226959228516,-0.8762778043746948,-500,-35.94970703125,7.7056884765625
0.9099999,9.409213066101074,0.6727706789970398,-1.0271124839782715,-500,-27.5421142578125,39.6881103515625
0.9299999,9.205705642700195,2.161964178085327,-0.8690952062606812,-377.960205078125,-50.9490966796875,33.416748046875
0.9499999,9.373299598693848,3.2178070545196533,-0.5267243981361389,-223.419189453125,-18.096923828125,-19.1192626953125
0.9699998999999999,9.514557838439941,3.773261785507202,-0.181959331035614,-111.87744140625,56.7474365234375,-105.9722900390625
0.9899998999999999,9.440337181091309,4.0533833503723145,-0.15083470940589905,38.51318359375,114.532470703125,-147.674560546875
1.0099999,8.772355079650879,4.043806552886963,0.22744916379451752,-5.615234375,128.082275390625,-124.1912841796875
1.0299999,8.195352554321289,4.252102375030518,0.6823474764823914,-91.3543701171875,78.3538818359375,-91.9342041015625
1.0499999,7.3454108238220215,4.611232280731201,1.6927006244659424,-66.6351318359375,27.3895263671875,-87.5244140625
1.0699999,6.993463039398193,5.193023681640625,2.7940332889556885,29.754638671875,-31.219482421875,-60.821533203125
1.0899999,6.7061591148376465,5.456385612487793,3.134010076522827,131.53076171875,-160.58349609375,25.543212890625
1.1099999,6.617573261260986,5.073313236236572,2.322375535964966,94.3450927734375,-211.9903564453125,32.1807861328125
1.1299999,6.562506675720215,3.97916316986084,0.3734954595565796,-95.245361328125,-132.62939453125,-60.72998046875
1.1499999,6.742072105407715,3.0406360626220703,-2.0159177780151367,-213.0126953125,-0.396728515625,-142.547607421875
1.1699998999999999,6.964732646942139,2.9161376953125,-3.7205893993377686,-310.882568359375,57.7239990234375,-148.5595703125
1.1899998999999999,6.9455790519714355,3.646369218826294,-4.010287761688232,-277.4505615234375,106.2164306640625,-86.5478515625
1.2099999,7.041347026824951,4.69024133682251,-2.8347349166870117,-149.200439453125,111.0382080078125,-10.650634765625
1.2299999,7.072471618652344,5.501875400543213,-0.586579442024231,-121.490478515625,12.542724609375,-29.11376953125
1.2499999,7.2568254470825195,5.829881191253662,1.8579005002975464,-119.7052001953125,-53.6041259765625,-104.522705078125
1.2699999,7.4986395835876465,5.841852188110352,3.8594532012939453,-134.4451904296875,-98.175048828125,-146.881103515625
1.2899999,7.546523571014404,5.870582580566406,5.011064052581787,-172.6837158203125,-112.6708984375,-159.1033935546875
1.3099999,7.359776020050049,6.069301128387451,5.252878665924072,-142.2271728515625,-107.208251953125,-160.2325439453125
1.3299999,6.785167694091797,6.294356346130371,4.788403511047363,-28.411865234375,-91.400146484375,-157.4249267578125
1.3499999,6.361393928527832,6.742072105407715,3.670311212539673,63.96484375,-77.9876708984375,-136.8255615234375
1.3699999,5.920860767364502,7.264008045196533,2.2170307636260986,26.6876220703125,-34.3780517578125,-122.86376953125
1.3899999,5.822698593139648,7.728483200073242,1.0749965906143188,-147.2320556640625,14.2974853515625,-130.2947998046875
1.4099999,5.705382823944092,8.1139497756958,0.3687070608139038,-97.4884033203125,73.05908203125,-162.3992919921875
1.4299998999999999,5.434837818145752,8.470685958862305,0.3256114423274994,26.6571044921875,79.2999267578125,-176.3458251953125
1.4499999,4.862623691558838,8.829815864562988,0.586579442024231,70.281982421875,61.8133544921875,-152.16064453125
1.4699999,4.141968727111816,9.390059471130371,0.8475474119186401,27.2216796875,76.72119140625,-124.4964599609375
1.4899999,3.361459255218506,9.931148529052734,1.158793568611145,-57.403564453125,151.30615234375,-102.508544921875
1.5099999,2.8227639198303223,10.381258964538574,1.7142484188079834,-172.18017578125,127.7313232421875,-96.4508056640625
1.5299999,2.363077163696289,10.699687004089355,2.470816135406494,-150.7568359375,42.4041748046875,-111.4959716796875
1.5499999,1.9105730056762695,10.802638053894043,3.3303346633911133,-77.69775390625,16.05224609375,-68.6187744140625
1.5699999,1.6950948238372803,10.759542465209961,4.2329487800598145,-88.043212890625,35.614013671875,30.5633544921875
1.5899999,1.5107412338256836,10.500968933105469,4.884171485900879,-96.771240234375,22.979736328125,79.0252685546875
1.6099999,1.7334020137786865,9.880870819091797,5.427655220031738,-46.32568359375,0.91552734375,89.4775390625
1.6299999,2.3942017555236816,8.951920509338379,5.710171222686768,-54.6875,-9.5672607421875,76.2939453125
1.6499999,3.19865345954895,7.864952564239502,5.928043365478516,-159.60693359375,-12.5885009765625,8.60595703125
1.6699999,3.914519786834717,6.88332986831665,5.990292549133301,-173.4771728515625,-18.61572265625,-65.887451171875
1.6899998999999999,4.304774761199951,6.098031520843506,6.256049156188965,-142.9901123046875,-17.02880859375,-83.5418701171875
1.7099999,4.14915132522583,5.413290023803711,6.703764915466309,-119.20166015625,14.801025390625,-64.697265625
1.7299999,3.354276657104492,4.879383087158203,7.036558628082275,-20.599365234375,41.5191650390625,-67.7947998046875
1.7499999,3.047818660736084,4.309563159942627,7.326257228851318,52.0782470703125,45.7763671875,-83.2061767578125
1.7699999,2.2864625453948975,3.9863457679748535,7.101202011108398,180.389404296875,101.776123046875,-113.250732421875
1.7899999,2.075772762298584,4.1611223220825195,7.060500621795654,64.1326904296875,115.6005859375,-167.2515869140625
1.8099999,1.6639702320098877,4.90571928024292,7.108384609222412,-97.8240966796875,59.814453125,-171.173095703125
1.8299999,1.0965443849563599,6.165069580078125,7.326257228851318,-57.769775390625,-43.51806640625,-110.65673828125
1.8499999,0.5961562395095825,7.627926826477051,7.647080421447754,-80.8563232421875,-127.227783203125,-55.694580078125
1.8699999,0.30885201692581177,8.89685344696045,7.951143741607666,-45.0592041015625,-54.7027587890625,-17.4713134765625
1.8899999,0.2082955539226532,9.38048267364502,8.066065788269043,80.474853515625,20.355224609375,47.66845703125
1.9099999,0.44771572947502136,9.006986618041992,7.939172744750977,128.0670166015625,-53.7261962890625,110.7940673828125
1.9299998999999999,0.8403648138046265,7.920019149780273,7.493851184844971,-21.17919921875,-100.6927490234375,50.4608154296875
1.9499999,1.1851298809051514,6.586448669433594,6.646304130554199,-103.2867431640625,-37.9791259765625,-55.8929443359375
1.9699999,1.5275006294250488,5.506663799285889,5.640739440917969,-67.7032470703125,14.1448974609375,-80.535888671875
1.9899999,1.766920804977417,4.989516258239746,4.922478675842285,-36.7889404296875,30.2276611328125,-81.7718505859375
2.0099999,1.8100165128707886,4.69024133682251,4.9799394607543945,-31.2652587890625,67.1844482421875,-87.2802734375
2.0299999,1.9081788063049316,4.534617900848389,5.499481201171875,77.3468017578125,98.8616943359375,-73.79150390625
2.0499999,1.3335703611373901,6.155492782592773,6.6630635261535645,98.419189453125,71.2432861328125,-111.114501953125
2.0699999,0.8307880163192749,6.931213855743408,7.3023152351379395,-31.005859375,-51.6510009765625,-71.7620849609375
2.0899999,-0.1867477297782898,8.561665534973145,7.829039573669434,-230.4840087890625,-108.062744140625,-12.5274658203125
2.1099999,-0.9720458984375,8.975862503051758,7.493851184844971,-154.7698974609375,-39.9932861328125,-20.56884765625
2.1299999,-1.192312479019165,8.24084186553955,7.206547260284424,-112.4725341796875,37.4908447265625,33.7371826171875
2.1499999,-1.091755986213684,6.811503887176514,7.264008045196533,-290.4205322265625,47.91259765625,-30.3192138671875
2.1699999,-0.5219359993934631,5.427655220031738,7.826645374298096,-157.2723388671875,79.6051025390625,-30.3497314453125
2.1899999,-0.40701428055763245,4.405331134796143,8.920795440673828,-39.61181640625,70.5108642578125,-22.4151611328125
2.2099999,-0.7182605266571045,3.818751811981201,10.467450141906738,-194.27490234375,-5.5389404296875,-64.4683837890625
2.2299999,-1.3623007535934448,3.8810009956359863,11.133037567138672,55.908203125,2.8533935546875,49.560546875
2.2499999,-1.6400281190872192,3.976768970489502,11.168951034545898,226.959228515625,10.6964111328125,190.185546875
2.2699999,-1.113303780555725,3.950432777404785,10.577583312988281,-86.4715576171875,-97.3968505859375,78.704833984375
2.2899999,0.33997663855552673,3.600879430770874,9.68694019317627,-109.0240478515625,-39.36767578125,27.923583984375
2.3099999,1.6687586307525635,3.383007049560547,9.050082206726074,85.662841796875,53.6041259765625,-0.335693359375
2.3299999,2.7676970958709717,3.0406360626220703,9.533711433410645,75.3173828125,46.7376708984375,-7.904052734375
2.3499999,3.045424461364746,2.980781078338623,9.720458984375,36.2701416015625,-2.410888671875,2.50244140625
2.3699999,2.8371291160583496,2.978386878967285,9.548076629638672,101.6693115234375,-24.7802734375,-7.6751708984375
2.3899999,2.5785553455352783,2.698265314102173,9.564835548400879,-31.341552734375,-20.32470703125,-4.45556640625
2.4099999,2.3487119674682617,2.4205379486083984,9.287108421325684,-42.1905517578125,-41.1224365234375,-1.6021728515625
2.4299999,2.346317768096924,2.3127987384796143,8.956708908081055,134.21630859375,-35.675048828125,-26.6265869140625
2.4499999,2.470816135406494,2.3798365592956543,8.650250434875488,139.1754150390625,-14.862060546875,-38.4674072265625
2.4699999,2.631227731704712,2.806004285812378,8.238448143005371,-36.2396240234375,-1.4801025390625,-65.2618408203125
2.4899999,2.6360161304473877,3.423708438873291,8.015787124633789,-96.3134765625,5.645751953125,-71.563720703125
2.5099999,2.2697031497955322,4.170699596405029,8.406042098999023,-70.80078125,3.3416748046875,-58.563232421875
2.5299999,1.6903064250946045,4.8267107009887695,9.636661529541016,-27.8167724609375,1.8463134765625,-32.3333740234375
2.5499999,1.1444283723831177,5.288791656494141,10.553641319274902,36.6363525390625,-19.6990966796875,4.1961669921875
2.5699999,0.811634361743927,5.4252610206604,10.922348022460938,19.1192626953125,-36.4837646484375,8.48388671875
2.5899999,0.5674257874488831,5.339069843292236,10.94150161743164,-40.557861328125,-17.63916015625,-25.238037109375
2.6099999,0.47405192255973816,5.085284233093262,10.599130630493164,9.2620849609375,-14.7857666015625,-20.56884765625
2.6299999,0.4141969084739685,5.008669853210449,10.211270332336426,92.6361083984375,-51.849365234375,15.045166015625
2.6499999,0.507570743560791,4.7620673179626465,9.677363395690918,71.8841552734375,-65.826416015625,37.78076171875
2.6699999,0.5770025849342346,4.707000732421875,9.23682975769043,1.4801025390625,-30.8685302734375,-0.1678466796875
2.6899999,0.8403648138046265,4.529829502105713,8.674192428588867,51.483154296875,-32.53173828125,-3.0059814453125
2.7099999,0.9481038451194763,4.551377296447754,8.327033042907715,50.9490966796875,-62.3321533203125,12.6953125
2.7299999,0.7781155705451965,4.836287498474121,8.075642585754395,-42.0684814453125,-67.7032470703125,-4.2877197265625
2.7499999,0.6320692300796509,5.171475887298584,7.790732383728027,-94.4976806640625,-52.67333984375,19.53125
2.7699999,0.4141969084739685,5.2049946784973145,7.6351094245910645,-58.837890625,-59.600830078125,62.286376953125
2.7899999,0.5554547905921936,4.8602294921875,7.261613845825195,126.15966796875,-58.319091796875,48.5992431640625
2.8099999,0.7398083209991455,4.302380561828613,6.950367450714111,251.8157958984375,21.5301513671875,-32.318115234375
2.8299999,1.192312479019165,4.458003520965576,7.000645637512207,268.585205078125,71.5789794921875,-58.7921142578125
2.8499999,1.3503297567367554,4.941632270812988,7.189787864685059,133.697509765625,-43.5638427734375,-15.3656005859375
2.8699999,1.5873557329177856,5.8873419761657715,7.122750282287598,32.623291015625,-230.3619384765625,72.235107421875
2.8899999,1.5083470344543457,6.92881965637207,7.0341644287109375,-57.1746826171875,-214.66064453125,43.2586669921875
2.9099999,1.86508309841156,7.067683219909668,5.7125654220581055,21.4080810546875,-84.6405029296875,26.092529296875
2.9299999,2.212242364883423,6.952761650085449,4.256890773773193,7.2479248046875,16.9219970703125,57.9986572265625
2.9499999,2.7700912952423096,6.392518520355225,3.0621838569641113,-61.920166015625,35.4156494140625,44.7235107421875
2.9699999,3.2848446369171143,5.772420406341553,3.098097085952759,-41.8853759765625,82.0159912109375,-1.6937255859375
2.9899999,3.56017804145813,5.688623428344727,3.9240965843200684,37.65869140625,86.3800048828125,-67.19970703125
3.0099999,3.667917013168335,5.724536418914795,5.571307182312012,-54.01611328125,11.0626220703125,-19.744873046875
3.0299999,3.5721490383148193,6.234501361846924,7.1921820640563965,-90.88134765625,-23.7579345703125,6.28662109375
3.0499999,3.3279404640197754,6.746860504150391,8.461109161376953,-66.5740966796875,-25.8636474609375,-28.9764404296875
3.0699999,3.1435868740081787,6.919242858886719,9.232041358947754,-60.48583984375,-86.12060546875,-28.564453125
3.0899999,2.87064790725708,7.177816867828369,9.296685218811035,85.906982421875,-78.460693359375,-26.031494140625
3.1099999,2.7269957065582275,7.287950038909912,8.743624687194824,135.2691650390625,-3.143310546875,-15.899658203125
3.1299999,2.7126305103302,7.395689010620117,7.7213006019592285,51.727294921875,-8.880615234375,-6.3934326171875
3.1499999,2.868253707885742,7.424419403076172,6.2632317543029785,-4.5928955078125,-26.702880859375,-2.5634765625
3.1699999,3.160346269607544,7.357381820678711,4.8602294921875,-110.015869140625,-8.9569091796875,3.6163330078125
3.1899999,3.4548330307006836,7.139509677886963,4.570530891418457,-287.17041015625,11.5814208984375,26.519775390625
3.2099999,3.627215623855591,6.689399719238281,4.8602294921875,-244.1864013671875,-38.543701171875,37.1246337890625
3.2299999,3.8379054069519043,5.643133640289307,5.928043365478516,-39.825439453125,-51.910400390625,39.5050048828125
3.2499999,3.6774938106536865,5.240907669067383,7.6351094245910645,64.4989013671875,-10.19287109375,-33.2489013671875
3.2699999,3.6343982219696045,4.613626480102539,8.300697326660156,-124.5880126953125,-148.040771484375,5.279541015625
3.2899999,3.5218706130981445,4.49870491027832,8.595184326171875,-162.6129150390625,-178.03955078125,90.39306640625
3.3099999,3.663128614425659,4.326322555541992,8.11634349822998,-84.7930908203125,-45.684814453125,73.394775390625
3.3299999000000002,3.928884983062744,4.108449935913086,7.074865818023682,-42.7398681640625,27.130126953125,31.18896484375
3.3499999,4.264073371887207,3.5458126068115234,6.62236213684082,-150.7568359375,52.79541015625,38.8641357421875
3.3699999,4.644751071929932,2.956839084625244,6.512228488922119,-144.1650390625,54.6875,57.952880859375
3.3899999,4.759673118591309,2.403778553009033,7.003039836883545,-55.5267333984375,-14.4195556640625,8.087158203125
3.4099999,4.924872875213623,1.8746598958969116,7.85537576675415,-20.56884765625,-30.76171875,-22.88818359375
3.4299999,4.829104900360107,1.6950948238372803,8.980650901794434,-9.46044921875,3.8604736328125,-8.026123046875
3.4499999,4.280832767486572,1.9847931861877441,9.99100399017334,117.523193359375,64.1021728515625,-18.402099609375
3.4699999,3.8953661918640137,2.427720546722412,10.642226219177246,244.6136474609375,118.0572509765625,53.8482666015625
3.4899999,3.5266590118408203,3.1747114658355713,9.976638793945312,281.6619873046875,115.753173828125,62.6068115234375
3.5099999,3.1890766620635986,4.168305397033691,8.841787338256836,-42.0074462890625,3.5552978515625,-20.4315185546875
3.5299999,3.3686418533325195,4.7189717292785645,7.5848307609558105,-360.0311279296875,-74.4171142578125,-19.9127197265625
3.5499999,3.4117374420166016,4.898536682128906,7.1251444816589355,-228.94287109375,-94.78759765625,19.3023681640625
3.5699999,3.361459255218506,4.771644115447998,7.807491779327393,37.353515625,8.8958740234375,-32.928466796875
3.5899999,3.3446998596191406,4.022258758544922,8.4108304977417,57.830810546875,10.162353515625,-46.0205078125
3.6099999,3.3231520652770996,3.687070608139038,8.556877136230469,-60.028076171875,55.419921875,-70.404052734375
3.6299999,3.3470940589904785,3.5745432376861572,8.192957878112793,-51.81884765625,116.180419921875,-47.7752685546875
3.6499999,3.442862033843994,3.3854012489318848,8.066065788269043,-43.4722900390625,123.779296875,29.5257568359375
3.6699999,3.354276657104492,3.3877954483032227,8.180987358093262,14.862060546875,135.223388671875,-8.9263916015625
3.6899999,3.272873640060425,3.248931646347046,8.609549522399902,81.4666748046875,145.8740234375,-10.589599609375
3.7099999,2.8395233154296875,3.177105665206909,9.0859956741333,47.5616455078125,151.79443359375,-14.6942138671875
3.7299999,2.4205379486083984,3.1651346683502197,9.215282440185547,35.675048828125,132.8582763671875,-36.7279052734375
3.7499999,1.8770540952682495,3.1435868740081787,9.272743225097656,28.01513671875,78.0487060546875,-39.947509765625
3.7699999,1.3311761617660522,3.090914487838745,9.39245319366455,20.7061767578125,35.4461669921875,-35.5377197265625
3.7899999,0.9409212470054626,3.028665065765381,9.409213066101074,50.1556396484375,22.979736328125,-31.768798828125
3.8099999,0.7469909191131592,3.0310592651367188,9.318233489990234,34.1949462890625,38.5589599609375,-11.4593505859375
3.8299999000000002,0.6200982332229614,3.098097085952759,9.287108421325684,-24.6124267578125,32.257080078125,-17.8070068359375
3.8499999,0.608127236366272,3.2297780513763428,9.21288776397705,-10.1470947265625,7.6141357421875,-24.3072509765625
3.8699999,0.35434186458587646,3.5458126068115234,9.004592895507812,-27.5421142578125,-15.8843994140625,-28.13720703125
3.8899999,-0.0933738648891449,3.88818359375,8.678980827331543,-118.438720703125,35.7666015625,-8.544921875
3.9099999,-0.5027823448181152,4.019864559173584,8.310274124145508,-166.748046875,119.32373046875,38.1622314453125
3.9299999,-0.933738648891449,3.713406801223755,8.439560890197754,-162.384033203125,129.7149658203125,41.7938232421875
3.9499999,-1.1324573755264282,2.6360161304473877,8.29830265045166,145.5535888671875,117.2943115234375,4.5166015625
3.9699999,-1.4508862495422363,1.4724340438842773,8.678980827331543,402.6336669921875,211.639404296875,-83.2366943359375
3.9899999,-1.843535304069519,1.094150185585022,8.686163902282715,338.958740234375,292.724609375,-198.1201171875
4.0099999,-2.875436305999756,3.0382418632507324,8.547300338745117,289.764404296875,214.1876220703125,-111.5875244140625
4.029999900000001,-3.2297780513763428,4.383783340454102,8.164227485656738,158.111572265625,72.235107421875,236.4044189453125
4.0499999,-3.890577793121338,7.19936466217041,7.582436561584473,42.694091796875,55.8624267578125,130.3253173828125
4.069999900000001,-3.687070608139038,7.69735860824585,6.452373504638672,-13.5498046875,54.7332763671875,17.242431640625
4.0899999000000005,-3.399766445159912,7.47230339050293,5.588066577911377,-59.7686767578125,104.156494140625,8.7738037109375
4.1099999,-3.1052796840667725,6.763619899749756,4.9152960777282715,-58.837890625,132.7362060546875,-39.4744873046875
4.1299999000000005,-2.9472622871398926,5.920860767364502,4.76924991607666,-14.6026611328125,136.8408203125,-66.314697265625
4.1499999,-3.0382418632507324,5.197812080383301,5.188235282897949,-17.5933837890625,152.3284912109375,-73.5321044921875
4.1699999000000005,-3.485957622528076,4.742913722991943,5.559336185455322,-37.17041015625,116.8975830078125,-68.9544677734375
4.1899999,-4.5394062995910645,4.800374507904053,6.648698329925537,-9.0179443359375,90.9576416015625,-76.171875
4.209999900000001,-5.322310447692871,4.924872875213623,7.436390399932861,-2.349853515625,58.380126953125,-46.7376708984375
4.2299999,-6.009446144104004,5.035006046295166,8.425195693969727,-205.01708984375,-30.7769775390625,-110.53466796875
4.249999900000001,-6.124367713928223,4.965574264526367,8.633491516113281,-214.17236328125,-71.563720703125,-152.9693603515625
4.2699999,-5.674258232116699,4.400542736053467,8.427590370178223,-74.7222900390625,-34.36279296875,-104.095458984375
4.289999900000001,-5.027823448181152,3.9432501792907715,7.694964408874512,27.0233154296875,-1.434326171875,-79.9102783203125
4.3099999,-4.55616569519043,3.3231520652770996,6.959944248199463,53.9703369140625,-13.3819580078125,-41.50390625
4.329999900000001,-4.721365928649902,2.451662540435791,6.813898086547852,67.68798828125,-8.7738037109375,16.9219970703125
4.3499999,-5.276820659637451,1.8267759084701538,7.204153060913086,119.5831298828125,7.843017578125,20.8892822265625
4.369999900000001,-6.112396717071533,1.1971008777618408,7.627926826477051,35.552978515625,-55.3436279296875,-40.283203125
4.3899999,-6.742072105407715,1.1037269830703735,8.058882713317871,-14.801025390625,-70.0225830078125,-79.58984375
4.409999900000001,-6.847416877746582,1.702277421951294,8.111555099487305,47.271728515625,-26.1993408203125,-53.2989501953125
4.4299999,-6.763619899749756,2.274491548538208,7.850587368011475,20.7672119140625,-34.393310546875,-17.8985595703125
4.449999900000001,-6.746860504150391,2.8802247047424316,7.553706169128418,7.5836181640625,-32.501220703125,-32.2265625
4.4699999,-6.734889507293701,3.536235809326172,7.331045627593994,34.97314453125,24.96337890625,-14.739990234375
4.489999900000001,-6.605602264404297,3.6990416049957275,6.967126846313477,-38.9251708984375,36.285400390625,12.26806640625
4.5099999,-6.224924564361572,3.7876269817352295,7.094019412994385,-82.9010009765625,16.66259765625,13.6260986328125
4.529999900000001,-5.724536418914795,3.60566782951355,7.146692276000977,-55.60302734375,-19.3939208984375,2.8533935546875
4.5499999,-5.236119270324707,3.201047658920288,7.407660007476807,-61.9049072265625,-34.149169921875,15.13671875
4.569999900000001,-4.946420669555664,2.765302896499634,7.615955829620361,-56.732177734375,-5.462646484375,23.6358642578125
4.5899999000000005,-4.841075897216797,2.454056739807129,7.778761386871338,-34.7137451171875,7.3699951171875,23.37646484375
4.609999900000001,-5.011064052581787,2.2697031497955322,7.884106159210205,-56.2591552734375,-21.759033203125,15.9912109375
4.6299999000000005,-5.298368453979492,2.0015525817871094,8.068459510803223,-135.894775390625,-25.2532958984375,7.904052734375
4.6499999,-5.671864032745361,1.6711528301239014,8.24084186553955,-226.37939453125,-23.4527587890625,-17.4713134765625
4.6699999000000005,-5.762843608856201,1.0797849893569946,8.322244644165039,-321.59423828125,-58.5479736328125,-74.1729736328125
4.6899999,-5.626373767852783,0.35913026332855225,8.401253700256348,-373.5504150390625,-90.4693603515625,-165.496826171875
4.709999900000001,-5.295974254608154,-0.15562310814857483,8.2312650680542,-289.5355224609375,-69.732666015625,-117.218017578125
4.7299999,-4.831499099731445,-0.8978256583213806,8.22887134552002,-145.050048828125,3.814697265625,118.011474609375
4.749999900000001,-4.596867084503174,-1.4772224426269531,8.197746276855469,-98.6328125,-2.5634765625,133.5296630859375
4.7699999,-4.611232280731201,-2.2146365642547607,8.446743965148926,-124.1455078125,-21.575927734375,-49.1790771484375
4.789999900000001,-4.618414878845215,-3.1316158771514893,8.810662269592285,-118.072509765625,-15.350341796875,-74.8138427734375
4.8099999,-4.843470096588135,-3.6583402156829834,9.011775016784668,-92.0562744140625,-19.317626953125,-80.4443359375
4.829999900000001,-4.865017890930176,-4.137180328369141,9.038111686706543,-80.810546875,-22.3846435546875,-97.0458984375
4.8499999,-4.314351558685303,-4.01268196105957,8.588001251220703,-52.093505859375,-19.0582275390625,-35.1715087890625
4.869999900000001,-3.6798880100250244,-4.14915132522583,8.329427719116211,-66.8182373046875,-32.196044921875,-17.7001953125
4.8899999,-3.2393548488616943,-4.304774761199951,8.106766700744629,-8.392333984375,-17.730712890625,-58.013916015625
4.909999900000001,-3.138798475265503,-4.323928356170654,8.006210327148438,1.89208984375,-29.1748046875,-75.469970703125
4.9299999,-3.514688014984131,-4.757278919219971,8.252813339233398,-41.07666015625,-10.6964111328125,-100.5096435546875
4.949999900000001,-3.885789394378662,-4.929661273956299,8.293514251708984,-27.4200439453125,1.52587890625,-125.18310546875
4.9699999,-3.9647979736328125,-5.058948040008545,8.236053466796875,35.7208251953125,-22.125244140625,-55.2825927734375
4.989999900000001,-3.9815573692321777,-5.245696067810059,8.274360656738281,71.3958740234375,-17.27294921875,-26.214599609375
5.0099999,-3.9695863723754883,-5.319916248321533,8.276755332946777,6.3629150390625,-19.744873046875,-67.718505859375
5.029999900000001,-3.9432501792907715,-5.39174222946167,8.26478385925293,-61.0504150390625,-29.5867919921875,-86.1053466796875
5.0499999,-3.646369218826294,-5.456385612487793,8.305485725402832,-23.2391357421875,-40.3289794921875,-9.979248046875
5.069999900000001,-3.066972494125366,-5.57370138168335,8.085219383239746,3.0517578125,-57.67822265625,-9.0789794921875
5.0899999000000005,-2.3750481605529785,-5.446808815002441,7.886500358581543,-15.31982421875,-50.4608154296875,-36.773681640625
5.109999900000001,-1.9153614044189453,-5.216965675354004,7.65186882019043,9.124755859375,-51.81884765625,-7.2174072265625
5.1299999000000005,-1.6160861253738403,-4.891354084014893,7.565677165985107,14.739990234375,-40.863037109375,-9.8876953125
5.1499999,-1.5634137392044067,-4.596867084503174,7.644686222076416,5.1116943359375,-55.419921875,-17.608642578125
5.1699999000000005,-1.460463047027588,-4.764461517333984,7.711723804473877,28.99169921875,-63.3697509765625,-3.9825439453125
5.1899999,-1.3838485479354858,-4.9799394607543945,7.898471355438232,12.237548828125,-43.487548828125,-20.294189453125
5.209999900000001,-1.3479355573654175,-5.200206279754639,7.862558364868164,-24.2919921875,-44.769287109375,-12.8631591796875
5.2299999,-1.3862427473068237,-5.128379821777344,7.771578788757324,-35.82763671875,-26.55029296875,7.9345703125
5.249999900000001,-1.3670891523361206,-5.082890033721924,7.781155586242676,-14.22119140625,0.9765625,32.379150390625
5.2699999,-1.436521053314209,-5.044582843780518,7.888894557952881,-13.275146484375,16.0675048828125,11.1541748046875
5.289999900000001,-1.6065093278884888,-5.262455463409424,8.101978302001953,-10.4827880859375,11.7645263671875,-16.143798828125
5.3099999,-1.7142484188079834,-5.659893035888672,8.406042098999023,-9.246826171875,11.5203857421875,-3.1890869140625
5.329999900000001,-1.7980455160140991,-5.904101371765137,8.516175270080566,-10.284423828125,9.5367431640625,-3.7384033203125
5.3499999,-1.7070658206939697,-5.894524574279785,8.497021675109863,5.0201416015625,17.2119140625,1.8768310546875
5.369999900000001,-1.4772224426269531,-5.7772088050842285,8.40843677520752,28.3355712890625,28.7017822265625,31.18896484375
5.3899999,-1.2737152576446533,-5.537788391113281,8.324639320373535,31.1431884765625,29.4647216796875,20.965576171875
5.409999900000001,-1.139639973640442,-5.5760955810546875,8.494627952575684,19.012451171875,17.822265625,-19.7906494140625
5.4299999,-1.2473790645599365,-5.56173038482666,8.851364135742188,56.4117431640625,-3.875732421875,-52.1697998046875
5.449999900000001,-1.3287819623947144,-5.710171222686768,9.232041358947754,116.5008544921875,-32.958984375,-36.68212890625
5.4699999,-1.577778935432434,-5.616796970367432,9.62947940826416,80.535888671875,-55.4351806640625,-52.3681640625
5.489999900000001,-1.8387469053268433,-5.4013190269470215,9.813833236694336,59.5703125,-57.3883056640625,-64.8651123046875
5.5099999,-1.922544002532959,-5.099649429321289,9.926360130310059,51.3763427734375,-66.8487548828125,-43.9910888671875
5.529999900000001,-1.802833914756775,-4.5394062995910645,9.68933391571045,60.7147216796875,-80.108642578125,-26.42822265625
5.5499999,-1.479616641998291,-4.079719543457031,9.478644371032715,45.95947265625,-68.206787109375,-35.919189453125
5.569999900000001,-0.9768342971801758,-3.7158010005950928,9.284713745117188,29.78515625,-51.6510009765625,-53.6956787109375
5.5899999000000005,-0.4620809257030487,-3.3925838470458984,9.090784072875977,35.1409912109375,-83.5723876953125,-76.7822265625
5.609999900000001,-0.05267243832349777,-3.246537446975708,9.11233139038086,55.206298828125,-108.367919921875,-73.4100341796875
5.6299999000000005,0.1604115068912506,-2.9879636764526367,9.126696586608887,70.4193115234375,-104.6905517578125,-78.5064697265625
5.6499999,0.33997663855552673,-2.6862943172454834,9.100360870361328,89.141845703125,-81.1767578125,-43.1671142578125
5.6699999000000005,0.37828385829925537,-2.4205379486083984,9.184157371520996,79.4677734375,-76.9500732421875,2.13623046875
5.6899999,0.4620809257030487,-2.1571757793426514,9.296685218811035,50.84228515625,-83.3282470703125,-13.6566162109375
5.709999900000001,0.6847416758537292,-1.9153614044189453,9.349357604980469,30.3955078125,-81.695556640625,-25.421142578125
5.7299999,0.9409212470054626,-1.522712230682373,9.308655738830566,7.0953369140625,-86.9903564453125,10.345458984375
5.749999900000001,1.192312479019165,-1.0103530883789062,9.050082206726074,-11.444091796875,-76.416015625,36.0107421875
5.7699999,1.4101848602294922,-0.5793967843055725,8.999804496765137,4.9896240234375,-23.712158203125,36.956787109375
5.789999900000001,1.6280571222305298,-0.24660277366638184,8.89445972442627,83.648681640625,-12.51220703125,94.5587158203125
5.8099999,1.8842366933822632,-0.18914192914962769,8.779537200927734,173.980712890625,-21.4080810546875,170.7916259765625
5.829999900000001,2.1092917919158936,-0.4836287498474121,8.619126319885254,191.3604736328125,6.1492919921875,177.6275634765625
5.8499999,2.451662540435791,-0.8786720037460327,8.372523307800293,160.7513427734375,36.5142822265625,203.9031982421875
5.869999900000001,2.671929121017456,-1.3192051649093628,7.979874134063721,130.767822265625,6.8206787109375,211.5020751953125
5.8899999,2.9496564865112305,-1.479616641998291,7.680599212646484,95.3521728515625,15.289306640625,155.1666259765625
5.909999900000001,2.896984100341797,-1.3072341680526733,7.805097579956055,225.4180908203125,80.2764892578125,115.936279296875
5.9299999,2.6862943172454834,-0.7254431247711182,7.934384346008301,422.8363037109375,93.07861328125,167.877197265625
5.949999900000001,2.1811177730560303,0.26575639843940735,8.123526573181152,407.073974609375,77.69775390625,160.858154296875
5.9699999,1.6424223184585571,1.3910311460494995,8.051700592041016,300.6439208984375,136.41357421875,70.556640625
5.989999900000001,1.192312479019165,2.5043349266052246,7.661445617675781,180.816650390625,213.0279541015625,-40.7867431640625
6.0099999,0.912190854549408,3.509899616241455,7.352593421936035,124.725341796875,239.7308349609375,-107.1319580078125
6.029999900000001,0.3495534360408783,4.173093795776367,7.417236804962158,119.7357177734375,168.975830078125,-63.9801025390625
6.0499999,-0.3878606855869293,4.9368438720703125,8.178592681884766,182.708740234375,121.3836669921875,-63.4613037109375
6.069999900000001,-1.2880805730819702,5.729324817657471,8.822632789611816,-12.02392578125,52.24609375,-92.8802490234375
6.0899999000000005,-2.2697031497955322,6.691793918609619,9.133879661560059,-79.345703125,6.6680908203125,-69.793701171875
6.109999900000001,-3.028665065765381,7.546523571014404,9.478644371032715,-94.3603515625,56.1065673828125,-42.05322265625
6.1299999000000005,-3.3877954483032227,7.953537940979004,9.500192642211914,-97.5799560546875,32.65380859375,-1.556396484375
6.149999900000001,-3.5242648124694824,7.953537940979004,9.533711433410645,-62.5,-42.7398681640625,-9.063720703125
6.1699999000000005,-3.31118106842041,7.407660007476807,9.682151794433594,-77.8045654296875,-43.8079833984375,-9.002685546875
6.1899999,-2.8993782997131348,6.588842868804932,9.543288230895996,-95.733642578125,-34.1339111328125,-5.4473876953125
6.209999900000001,-2.4444799423217773,5.698200225830078,9.373299598693848,-84.716796875,-47.9736328125,-8.331298828125
6.2299999,-2.121262788772583,4.98472785949707,9.10993766784668,-55.35888671875,-62.01171875,-1.800537109375
6.249999900000001,-1.8602946996688843,4.484339714050293,8.935160636901855,-54.5196533203125,-40.4815673828125,23.2086181640625
6.2699999,-1.7046716213226318,4.23773717880249,8.901641845703125,-64.971923828125,-3.448486328125,37.90283203125
6.289999900000001,-1.4221558570861816,4.02465295791626,8.911218643188477,-44.158935546875,-1.6937255859375,34.5306396484375
6.3099999,-1.015141487121582,3.56017804145813,8.801085472106934,-14.1448974609375,-23.590087890625,36.590576171875
6.329999900000001,-0.6320692300796509,3.0550012588500977,8.40843677520752,-9.613037109375,18.8751220703125,10.55908203125
6.3499999,-0.49559974670410156,2.5977089405059814,8.092401504516602,-61.4776611328125,114.19677734375,-47.42431640625
6.369999900000001,-0.9217676520347595,2.3367409706115723,8.202534675598145,-122.2686767578125,149.6429443359375,-66.6046142578125
6.3899999,-1.8722656965255737,2.4468741416931152,8.564059257507324,-62.4847412109375,81.298828125,-13.97705078125
6.409999900000001,-2.849100112915039,2.5713725090026855,9.533711433410645,-53.77197265625,92.8802490234375,-1.0833740234375
6.4299999,-3.361459255218506,2.408566951751709,10.187328338623047,11.8560791015625,100.4180908203125,10.68115234375
6.449999900000001,-3.4955344200134277,2.10210919380188,10.070012092590332,91.5679931640625,24.5819091796875,-88.37890625
6.4699999,-3.162740468978882,1.678335428237915,9.708487510681152,-24.2919921875,-3.9825439453125,-134.185791015625
6.489999900000001,-3.0190882682800293,1.4173674583435059,9.260771751403809,-84.2742919921875,21.3470458984375,-93.414306640625
6.5099999,-3.141192674636841,1.3718775510787964,9.035717010498047,-65.155029296875,2.5787353515625,-52.0477294921875
6.529999900000001,-3.450044631958008,1.5921441316604614,9.495404243469238,-20.843505859375,-33.9813232421875,-32.0892333984375
6.5499999,-3.6343982219696045,1.7118542194366455,10.000580787658691,57.5714111328125,-48.2025146484375,1.983642578125
6.569999900000001,-3.670311212539673,1.5610195398330688,10.299856185913086,50.1861572265625,-61.5692138671875,5.9814453125
6.5899999000000005,-3.4332852363586426,1.5418659448623657,10.448296546936035,-10.986328125,-53.7109375,-43.1976318359375
6.609999900000001,-3.1220390796661377,1.37906014919281,10.06043529510498,-12.6800537109375,-87.9058837890625,-31.3568115234375
6.6299999000000005,-2.7533318996429443,1.41257905960083,9.607931137084961,-32.5469970703125,-124.4964599609375,-1.251220703125
6.649999900000001,-2.2577321529388428,1.2521674633026123,9.378087997436523,-52.154541015625,-91.8731689453125,39.97802734375
6.6699999000000005,-1.8124107122421265,1.1180921792984009,8.834604263305664,-11.3677978515625,-96.1456298828125,13.275146484375
6.6899999,-1.3096283674240112,0.7996633648872375,8.60236644744873,-13.3209228515625,-109.6649169921875,-34.454345703125
6.709999900000001,-0.9720458984375,0.646434485912323,8.53293514251709,-22.705078125,-45.928955078125,-20.965576171875
6.7299999,-0.8738836050033569,0.8236053586006165,8.379706382751465,-17.1051025390625,-32.9437255859375,1.6021728515625
6.749999900000001,-0.8978256583213806,0.9481038451194763,8.006210327148438,-43.731689453125,-22.52197265625,36.7584228515625
6.7699999,-0.7757213711738586,1.0558429956436157,8.540117263793945,-194.0460205078125,-24.871826171875,38.177490234375
6.789999900000001,-0.6607996821403503,1.0007762908935547,8.432378768920898,-16.3116455078125,6.622314453125,21.0418701171875
6.8099999,-0.31842881441116333,0.6919242739677429,8.848969459533691,-14.129638671875,-28.1829833984375,24.71923828125
6.829999900000001,-0.038307227194309235,0.31364041566848755,9.129091262817383,-62.3016357421875,-18.707275390625,10.986328125
6.8499999,0.06703764945268631,-0.07661445438861847,9.363722801208496,-68.54248046875,9.09423828125,-15.56396484375
6.869999900000001,0.002394201699644327,-0.47165772318840027,9.718064308166504,-57.8765869140625,-13.7481689453125,-20.93505859375
6.8899999,-0.2944868206977844,-0.6440402865409851,10.20887565612793,-24.1241455078125,-7.0953369140625,-0.9002685546875
6.909999900000001,-0.706289529800415,-0.6512228846549988,10.591948509216309,6.0272216796875,26.336669921875,16.815185546875
6.9299999,-1.0247182846069336,-0.5961562395095825,10.6925048828125,0.1068115234375,41.168212890625,14.22119140625
6.949999900000001,-1.1899182796478271,-0.6368576288223267,10.706870079040527,-8.0108642578125,47.454833984375,8.3465576171875
6.9699999,-1.170764684677124,-0.7996633648872375,10.577583312988281,-5.340576171875,32.562255859375,-6.9732666015625
6.989999900000001,-1.0295066833496094,-1.1827356815338135,10.251971244812012,-10.0860595703125,15.899658203125,-35.82763671875
7.0099999,-1.01753568649292,-1.3024457693099976,10.093954086303711,-2.6702880859375,44.0673828125,-64.4073486328125
7.029999900000001,-1.1037269830703735,-1.3287819623947144,9.672574996948242,10.3607177734375,42.633056640625,-70.49560546875
7.0499999,-1.3958195447921753,-1.1420341730117798,9.564835548400879,0.152587890625,37.689208984375,-45.4864501953125
7.069999900000001,-1.8195933103561401,-0.768538773059845,9.636661529541016,1.3427734375,60.6536865234375,-26.55029296875
7.0899999000000005,-2.2649147510528564,-0.4692635238170624,9.725247383117676,-6.591796875,53.1158447265625,-6.1187744140625
7.109999900000001,-2.5546131134033203,-0.2944868206977844,9.909601211547852,-13.153076171875,50.7049560546875,6.77490234375
7.1299999000000005,-2.8107926845550537,-0.06464344263076782,9.840168952941895,-23.9715576171875,38.14697265625,19.5159912109375
7.149999900000001,-2.82515811920166,-0.047884032130241394,9.643844604492188,-61.0504150390625,44.7540283203125,28.106689453125
7.1699999000000005,-2.8610711097717285,-0.05267243832349777,9.23443603515625,-66.2384033203125,59.8297119140625,76.3397216796875
7.1899999,-2.5043349266052246,-0.8595184087753296,9.579200744628906,-11.322021484375,77.4078369140625,121.826171875
7.209999900000001,-2.8610711097717285,-0.3423708379268646,9.062053680419922,142.4560546875,32.989501953125,23.223876953125
7.2299999,-3.162740468978882,-1.0438719987869263,9.399636268615723,160.21728515625,127.899169921875,272.3388671875
7.249999900000001,-3.469198226928711,-0.9074024558067322,9.588777542114258,-43.39599609375,133.7890625,308.7615966796875
7.2699999,-3.797203779220581,-1.1252747774124146,9.674968719482422,50.079345703125,-7.7056884765625,160.9954833984375
7.289999900000001,-3.663128614425659,-1.280897855758667,10.062829971313477,121.8109130859375,-87.0361328125,86.0443115234375
7.3099999,-3.4356794357299805,-0.8858546018600464,10.5344877243042,23.895263671875,-72.0062255859375,94.024658203125
7.329999900000001,-3.5936968326568604,0.08619125932455063,10.462661743164062,3.326416015625,-62.530517578125,121.734619140625
7.3499999,-4.206612586975098,0.9528923034667969,9.655815124511719,34.698486328125,17.4713134765625,-54.7943115234375
7.369999900000001,-3.6583402156829834,1.4963760375976562,10.414777755737305,-35.3546142578125,140.4876708984375,-17.51708984375
7.3899999,-4.015076160430908,1.1635819673538208,10.503362655639648,65.4144287109375,-77.484130859375,46.356201171875
7.409999900000001,-4.089296340942383,0.6751648783683777,10.577583312988281,216.064453125,-248.71826171875,-36.1328125
7.4299999,-3.2848446369171143,0.1628057211637497,11.714828491210938,-6.16455078125,-6.1492919921875,-83.2366943359375
7.449999900000001,-3.8283286094665527,-0.16519992053508759,10.429142951965332,202.3162841796875,-74.76806640625,-121.124267578125
7.4699999,-2.5450363159179688,0.6105214357376099,10.005369186401367,123.382568359375,-84.320068359375,-91.094970703125
7.489999900000001,-2.145204782485962,1.8555063009262085,8.951920509338379,-15.045166015625,-127.5787353515625,-79.6051025390625
7.5099999,-1.8100165128707886,3.3016040325164795,8.439560890197754,21.1639404296875,-135.345458984375,-37.04833984375
7.529999900000001,-1.7621324062347412,4.522646903991699,8.283937454223633,40.4815673828125,-34.5916748046875,27.618408203125
7.5499999,-2.1475989818573,5.0685248374938965,8.259995460510254,64.5751953125,-26.0467529296875,16.4337158203125
7.569999900000001,-2.097320795059204,4.90571928024292,8.537723541259766,14.434814453125,-30.70068359375,24.505615234375
7.5899999000000005,-1.8602946996688843,4.553771495819092,8.293514251708984,-39.7491455078125,-54.50439453125,24.0631103515625
7.609999900000001,-1.5705963373184204,4.206612586975098,8.49941635131836,-46.81396484375,-25.5279541015625,9.8876953125
7.6299999000000005,-1.1827356815338135,3.9600095748901367,8.564059257507324,-32.5927734375,-35.5682373046875,11.90185546875
7.649999900000001,-0.7015010714530945,3.73016619682312,9.02135181427002,-70.1751708984375,-76.6143798828125,26.397705078125
7.6699999000000005,-0.2059013396501541,3.246537446975708,9.564835548400879,-186.5692138671875,-103.02734375,34.1644287109375
7.6899999,0.36152446269989014,2.832340717315674,9.557653427124023,-253.997802734375,-124.0692138671875,-8.2855224609375
7.709999900000001,0.7852981686592102,2.1475989818573,9.667786598205566,-121.0784912109375,-67.07763671875,-26.824951171875
7.7299999,0.8858546018600464,1.45806884765625,9.794678688049316,-39.97802734375,-21.514892578125,3.9215087890625
7.749999900000001,0.811634361743927,0.9145850539207458,9.68694019317627,-111.3433837890625,-78.0792236328125,22.1405029296875
7.7699999,0.4668693244457245,0.47644615173339844,9.892841339111328,-142.1966552734375,-90.9271240234375,22.6898193359375
7.789999900000001,0.35434186458587646,0.035913024097681046,9.84256362915039,-28.38134765625,-21.05712890625,13.6260986328125
7.8099999,0.545877993106842,-0.3016694188117981,9.591172218322754,-4.791259765625,-5.218505859375,-11.0626220703125
7.829999900000001,0.8786720037460327,-0.4836287498474121,9.30386734008789,-82.8399658203125,-35.5682373046875,-6.9580078125
7.8499999,1.3694833517074585,-0.7086837291717529,9.07641887664795,-190.7196044921875,-39.9169921875,-2.3040771484375
7.869999900000001,1.867477297782898,-0.9002198576927185,8.69095230102539,-216.4459228515625,-43.9453125,-9.918212890625
7.8899999,2.0901381969451904,-0.9744400978088379,8.329427719116211,-46.2493896484375,27.099609375,18.00537109375
7.909999900000001,2.1715409755706787,-1.1563993692398071,8.269572257995605,49.0875244140625,85.0830078125,32.6690673828125
7.9299999,2.1140801906585693,-1.1971008777618408,8.274360656738281,35.5987548828125,59.0362548828125,23.712158203125
7.949999900000001,1.8698714971542358,-1.1899182796478271,8.614337921142578,16.3116455078125,20.4925537109375,24.0631103515625
7.9699999,1.4077905416488647,-1.2282254695892334,9.279925346374512,-7.6141357421875,21.78955078125,21.6217041015625
7.989999900000001,1.070208191871643,-1.3000515699386597,9.567230224609375,-4.5013427734375,40.2984619140625,35.3851318359375
8.0099999,0.7182605266571045,-1.3048399686813354,10.019734382629395,45.166015625,66.1773681640625,10.7269287109375
8.0299999,0.5051765441894531,-1.5179238319396973,10.44350814819336,-8.1939697265625,61.70654296875,13.1072998046875
8.049999900000001,0.28969839215278625,-1.5131354331970215,10.608707427978516,-28.13720703125,20.355224609375,12.847900390625
8.069999900000001,0.1149216815829277,-1.5945383310317993,10.78587818145752,-29.754638671875,27.679443359375,0.54931640625
8.0899999,-0.07900865375995636,-1.8794482946395874,11.051634788513184,-81.54296875,42.755126953125,-10.4827880859375
8.1099999,-0.272938996553421,-1.9057846069335938,10.697293281555176,-99.9755859375,0.885009765625,-23.8037109375
8.129999900000001,-0.3926490843296051,-1.9536685943603516,10.54645824432373,-74.1424560546875,6.9732666015625,-13.3514404296875
8.149999900000001,-0.3495534360408783,-2.2433669567108154,10.278307914733887,-22.2625732421875,13.214111328125,63.8427734375
8.1699999,-0.2968810200691223,-2.2457611560821533,9.873687744140625,-18.463134765625,-27.191162109375,33.2183837890625
8.1899999,0.002394201699644327,-2.7509377002716064,9.591172218322754,-2.2430419921875,-27.28271484375,3.326416015625
8.2099999,0.5746083855628967,-3.1651346683502197,9.114726066589355,29.2205810546875,-13.763427734375,4.486083984375
8.229999900000001,0.811634361743927,-3.4141316413879395,8.822632789611816,-5.7830810546875,-10.955810546875,-57.9681396484375
8.2499999,0.8786720037460327,-3.4548330307006836,8.676587104797363,-1.7852783203125,-9.1552734375,-43.9453125
8.2699999,0.6368576288223267,-3.24414324760437,8.65743350982666,46.7681884765625,-17.7001953125,12.0391845703125
8.2899999,0.1628057211637497,-2.87064790725708,8.927978515625,27.8472900390625,-1.46484375,24.6734619140625
8.309999900000001,-0.12210428714752197,-2.389413356781006,8.956708908081055,-23.4832763671875,-10.101318359375,1.800537109375
8.3299999,-0.11971008777618408,-1.9177556037902832,8.947132110595703,-1.3885498046875,18.1427001953125,20.81298828125
8.3499999,0.19871874153614044,-1.4460978507995605,9.114726066589355,-21.1334228515625,29.35791015625,22.39990234375
8.3699999,0.17477671802043915,-1.213860273361206,9.282320022583008,-94.573974609375,-33.2489013671875,34.8663330078125
8.389999900000001,0.4141969084739685,-1.5059528350830078,9.30386734008789,-60.089111328125,-44.0521240234375,98.32763671875
8.4099999,0.12928688526153564,-1.8914192914962769,9.59835433959961,-56.0302734375,38.177490234375,47.7447509765625
8.4299999,-0.37828385829925537,-2.4157495498657227,9.490615844726562,-31.25,37.109375,39.3218994140625
8.4499999,-0.3471592366695404,-3.5745432376861572,9.888052940368652,54.7943115234375,19.53125,139.22119140625
8.469999900000001,-0.47644615173339844,-3.931279182434082,9.947908401489258,17.6544189453125,-22.369384765625,59.1888427734375
8.4899999,-0.3232172429561615,-4.6255974769592285,10.342951774597168,-20.1568603515625,-47.332763671875,-20.32470703125
8.5099999,-0.10295066982507706,-4.436455726623535,10.17296314239502,-25.543212890625,-45.1812744140625,9.033203125
8.5299999,-0.0454898327589035,-4.091690540313721,10.050858497619629,-13.519287109375,-36.3006591796875,30.0445556640625
8.549999900000001,-0.3280056416988373,-3.536235809326172,10.038887977600098,-43.2586669921875,-29.876708984375,-20.32470703125
8.569999900000001,-0.49559974670410156,-2.9688100814819336,9.856928825378418,-26.79443359375,-46.2188720703125,-32.1197509765625
8.5899999,-0.7038952708244324,-2.58813214302063,9.62947940826416,7.4005126953125,-28.3050537109375,23.74267578125
8.6099999,-0.8523358106613159,-2.3511061668395996,9.536105155944824,0.0457763671875,10.7574462890625,57.2357177734375
8.629999900000001,-0.7565677165985107,-2.293645143508911,9.255983352661133,23.2086181640625,-0.8392333984375,65.3228759765625
8.649999900000001,-0.5099649429321289,-2.6168625354766846,9.160215377807617,43.45703125,-22.369384765625,74.371337890625
8.6699999,-0.21787235140800476,-3.028665065765381,9.141061782836914,30.029296875,-17.242431640625,66.71142578125
8.6899999,0.07661445438861847,-3.3901896476745605,9.174580574035645,29.449462890625,-0.5340576171875,53.4820556640625
8.709999900000001,0.3208230137825012,-3.627215623855591,9.26795482635498,40.8172607421875,-9.7808837890625,38.4674072265625
8.729999900000001,0.49559974670410156,-3.8810009956359863,9.583989143371582,55.2825927734375,-29.6173095703125,18.585205078125
8.7499999,0.6967126727104187,-3.8546648025512695,9.691728591918945,89.4622802734375,-38.0096435546875,16.7694091796875
8.7699999,1.2282254695892334,-3.2968156337738037,9.387664794921875,107.757568359375,3.11279296875,8.544921875
8.7899999,1.6136919260025024,-2.5953147411346436,8.760383605957031,78.18603515625,1.1138916015625,-17.6849365234375
8.809999900000001,2.142810583114624,-2.145204782485962,8.281543731689453,-11.566162109375,43.3807373046875,-104.4158935546875
8.8299999,1.886630892753601,-1.8579005002975464,8.31985092163086,-117.2637939453125,54.2144775390625,-191.741943359375
8.8499999,1.460463047027588,-1.9321208000183105,8.78432559967041,-157.65380859375,33.172607421875,-155.0750732421875
8.8699999,0.5578489899635315,-2.0853497982025146,9.560047149658203,-63.0035400390625,44.7540283203125,-34.9578857421875
8.889999900000001,-0.08379705995321274,-2.3750481605529785,10.237606048583984,11.4593505859375,58.6395263671875,9.1400146484375
8.9099999,-0.1867477297782898,-2.7437551021575928,10.376470565795898,-9.3994140625,-31.6619873046875,-68.66455078125
8.9299999,0.3256114423274994,-3.318363666534424,9.600749015808105,49.1180419921875,-81.5887451171875,-41.1529541015625
8.9499999,1.1324573755264282,-3.8307228088378906,8.2312650680542,58.77685546875,-12.054443359375,-45.867919921875
8.969999900000001,1.9823989868164062,-4.1874589920043945,6.605602264404297,-18.3258056640625,105.8197021484375,-15.289306640625
8.9899999,2.4684219360351562,-4.474762916564941,5.272032260894775,-98.0224609375,78.2012939453125,-37.994384765625
9.0099999,2.2218191623687744,-4.369418144226074,4.8722004890441895,-131.0272216796875,57.2662353515625,-116.88232421875
9.0299999,1.522712230682373,-4.1156325340271,5.25527286529541,-56.5948486328125,90.2252197265625,-93.3380126953125
9.049999900000001,0.7876923680305481,-3.7612907886505127,5.839457988739014,41.4581298828125,96.1456298828125,-5.7830810546875
9.069999900000001,-0.038307227194309235,-3.3231520652770996,6.521805286407471,7.537841796875,63.690185546875,-25.6805419921875
9.0899999,-0.7852981686592102,-3.246537446975708,7.489062786102295,-32.257080078125,99.7314453125,-48.9349365234375
9.1099999,-1.5083470344543457,-3.383007049560547,8.647856712341309,-37.200927734375,114.4561767578125,-45.3338623046875
9.129999900000001,-2.2649147510528564,-3.3949780464172363,9.986215591430664,-101.7913818359375,64.3463134765625,-83.1146240234375
9.149999900000001,-2.827552318572998,-3.5170822143554688,11.070788383483887,-11.90185546875,-2.3040771484375,-23.590087890625
9.1699999,-2.9305028915405273,-3.773261785507202,11.662156105041504,157.8216552734375,8.941650390625,46.630859375
9.1899999,-2.6623523235321045,-3.9911341667175293,11.51611042022705,115.0665283203125,15.3656005859375,14.495849609375
9.209999900000001,-2.1787235736846924,-4.381389141082764,11.109095573425293,48.797607421875,10.009765625,-16.143798828125
9.229999900000001,-1.821987509727478,-4.448426723480225,10.737994194030762,-8.7738037109375,10.040283203125,-55.084228515625
9.2499999,-1.5442601442337036,-4.4292731285095215,10.582371711730957,-123.8861083984375,0.732421875,-91.49169921875
9.2699999,-1.3670891523361206,-4.225766181945801,10.577583312988281,-210.8306884765625,-14.0838623046875,-114.8223876953125
9.2899999,-1.237802267074585,-4.098873138427734,10.63504409790039,-190.0787353515625,-17.2119140625,-101.1810302734375
9.309999900000001,-1.039083480834961,-4.151545524597168,10.584765434265137,-139.923095703125,-17.63916015625,-64.6514892578125
9.3299999,-0.7565677165985107,-4.434061527252197,10.168174743652344,-124.4049072265625,-37.7655029296875,-43.304443359375
9.3499999,-0.3663128614425659,-4.965574264526367,9.502586364746094,-99.18212890625,-21.728515625,-25.6500244140625
9.3699999,-0.07900865375995636,-5.403713226318359,8.734047889709473,-111.8621826171875,42.5262451171875,-33.905029296875
9.389999900000001,0.0694318488240242,-5.748478412628174,7.982268333435059,-147.7508544921875,67.2607421875,-61.03515625
9.4099999,0.0454898327589035,-5.9974751472473145,7.354987621307373,-194.305419921875,44.2352294921875,-88.43994140625
9.4299999,-0.19153612852096558,-6.157886981964111,7.01979923248291,-262.63427734375,36.163330078125,-132.659912109375
9.4499999,-0.4213795065879822,-6.390124320983887,6.806715488433838,-152.7099609375,84.0911865234375,-49.1180419921875
9.469999900000001,-0.8667010068893433,-6.789956092834473,7.122750282287598,-26.2908935546875,120.330810546875,26.4129638671875
9.4899999,-1.4077905416488647,-7.47230339050293,7.939172744750977,-29.1748046875,66.2994384765625,9.002685546875
9.5099999,-1.9177556037902832,-8.092401504516602,8.904036521911621,-98.724365234375,2.044677734375,-40.191650390625
9.5299999,-2.477998733520508,-8.621520042419434,9.703699111938477,-58.5784912109375,1.5411376953125,-15.106201171875
9.549999900000001,-2.695871114730835,-9.093177795410156,10.067618370056152,-5.889892578125,13.8092041015625,42.4041748046875
9.569999900000001,-2.8227639198303223,-9.117119789123535,9.8784761428833,-71.990966796875,-15.167236328125,11.810302734375
9.5899999,-2.765302896499634,-9.062053680419922,9.260771751403809,-114.6240234375,-63.9801025390625,-11.8865966796875
9.6099999,-2.607285737991333,-9.038111686706543,8.446743965148926,-70.7244873046875,-65.36865234375,9.4146728515625
9.629999900000001,-2.360682964324951,-9.0859956741333,7.486668586730957,-32.0892333984375,-62.1185302734375,6.591796875
9.649999900000001,-2.0925323963165283,-9.172186851501465,6.586448669433594,-6.4697265625,-87.799072265625,-10.0860595703125
9.6699999,-1.8722656965255737,-9.121908187866211,5.868188381195068,21.30126953125,-100.738525390625,-7.8125
9.6899999,-1.7094600200653076,-9.14585018157959,5.408501625061035,34.912109375,-86.7462158203125,-10.2691650390625
9.709999900000001,-1.4077905416488647,-8.899248123168945,4.920084476470947,1.2969970703125,-100.3570556640625,-42.41943359375
9.729999900000001,-1.0773907899856567,-8.56645393371582,4.441244125366211,16.90673828125,-101.531982421875,-39.8712158203125
9.7499999,-0.5722141861915588,-8.305485725402832,4.022258758544922,66.95556640625,-80.26123046875,4.0435791015625
9.7699999,-0.06224924325942993,-7.948749542236328,3.641580820083618,28.5186767578125,-88.592529296875,11.1846923828125
9.7899999,0.4884171485900879,-8.164227485656738,3.4380736351013184,-71.7926025390625,-108.428955078125,-8.4381103515625
9.809999900000001,0.9050082564353943,-8.29590892791748,3.3063924312591553,-56.9915771484375,-98.0224609375,-34.5458984375
9.8299999,1.1468225717544556,-8.628703117370605,3.2824504375457764,61.9049072265625,-99.9298095703125,6.9580078125
9.8499999,1.3766659498214722,-8.619126319885254,3.141192674636841,87.646484375,-133.0718994140625,54.3060302734375
9.8699999,1.3192051649093628,-8.382100105285645,3.179499864578247,-16.7999267578125,-127.44140625,37.8875732421875
9.889999900000001,1.3192051649093628,-8.379706382751465,3.3518824577331543,-39.85595703125,-94.696044921875,19.500732421875
9.9099999,1.2761094570159912,-8.29590892791748,3.5889084339141846,56.6864013671875,-88.104248046875,-11.71875
9.9299999,1.2210428714752197,-8.51138687133789,3.931279182434082,27.557373046875,-111.5875244140625,-0.244140625
9.9499999,1.280897855758667,-8.542511940002441,4.146757125854492,-23.834228515625,-140.44189453125,-20.5535888671875
9.969999900000001,1.4939818382263184,-8.607154846191406,4.055777549743652,12.786865234375,-153.8848876953125,-22.308349609375
9.9899999,1.7812861204147339,-8.65743350982666,3.8307228088378906,27.7557373046875,-111.4349365234375,9.6282958984375
10.0099999,2.1523873805999756,-8.75080680847168,3.5721490383148193,22.6593017578125,-66.1468505859375,22.3846435546875
10.0299999,2.5258827209472656,-8.9064302444458,3.251325845718384,24.658203125,-75.9124755859375,35.09521484375
10.049999900000001,2.82515811920166,-9.042900085449219,3.397372245788574,-33.1878662109375,-73.577880859375,24.1241455078125
10.069999900000001,2.9472622871398926,-9.066842079162598,3.955221176147461,-53.680419921875,-48.9501953125,9.918212890625
10.0899999,2.9975404739379883,-9.100360870361328,4.7405195236206055,-11.8255615234375,-67.9168701171875,26.2298583984375
10.1099999,2.9759926795959473,-9.138668060302734,5.571307182312012,-3.23486328125,-111.51123046875,38.4063720703125
10.129999900000001,2.913743495941162,-9.160215377807617,6.129156112670898,-31.3720703125,-119.537353515625,24.90234375
10.149999900000001,2.980781078338623,-9.399636268615723,6.117185115814209,-15.777587890625,-109.80224609375,19.95849609375
10.1699999,3.050212860107422,-9.464279174804688,5.655104637145996,4.1961669921875,-105.133056640625,15.3350830078125
10.1899999,3.1292216777801514,-9.694122314453125,5.092466831207275,-20.3857421875,-89.7674560546875,20.3094482421875
10.209999900000001,3.1220390796661377,-9.730035781860352,4.335899353027344,-68.17626953125,-98.2513427734375,9.1400146484375
10.229999900000001,2.978386878967285,-9.744400978088379,3.6559460163116455,-78.9642333984375,-103.69873046875,0.762939453125
10.2499999,2.6791117191314697,-9.66299819946289,3.1747114658355713,-60.638427734375,-109.43603515625,16.815185546875
10.2699999,2.2577321529388428,-9.327810287475586,2.896984100341797,-82.3516845703125,-138.3056640625,24.71923828125
10.2899999,1.824381709098816,-9.14585018157959,2.808398485183716,-134.70458984375,-176.6815185546875,28.3660888671875
10.309999900000001,1.53707754611969,-9.105149269104004,2.6168625354766846,-147.8729248046875,-202.911376953125,16.510009765625
10.3299999,1.3431471586227417,-9.258378028869629,2.2146365642547607,-121.3531494140625,-208.6334228515625,14.8773193359375
10.3499999,1.403002142906189,-9.543288230895996,1.4389152526855469,-92.041015625,-216.4154052734375,10.7574462890625
10.3699999,1.501164436340332,-9.962273597717285,0.4668693244457245,-102.3406982421875,-218.2464599609375,10.8795166015625
10.389999900000001,1.680729627609253,-10.237606048583984,-0.5003881454467773,-59.3109130859375,-212.310791015625,9.613037109375
10.4099999,1.845929503440857,-10.436325073242188,-1.3407529592514038,1.9378662109375,-200.1953125,6.3934326171875
10.4299999,1.9297266006469727,-10.496180534362793,-2.0207061767578125,8.0413818359375,-190.0787353515625,8.819580078125
10.4499999,2.0159177780151367,-10.342951774597168,-2.6216509342193604,20.5841064453125,-172.271728515625,29.6173095703125
10.469999900000001,2.0661959648132324,-10.220847129821777,-2.980781078338623,14.892578125,-143.585205078125,31.1737060546875
10.4899999,2.1045033931732178,-10.158597946166992,-3.1914708614349365,-2.0904541015625,-115.020751953125,16.7999267578125
10.5099999,2.0829553604125977,-10.189722061157227,-3.069366693496704,24.10888671875,-89.111328125,9.3994140625
10.5299999,1.8507179021835327,-10.137049674987793,-2.516305923461914,44.9066162109375,-83.0078125,9.8724365234375
10.549999900000001,1.4987702369689941,-9.876082420349121,-1.8291701078414917,19.500732421875,-111.0992431640625,13.85498046875
10.569999900000001,1.0271124839782715,-9.397241592407227,-1.2401964664459229,-39.7796630859375,-130.7220458984375,3.0059814453125
10.5899999,0.6368576288223267,-8.834604263305664,-1.0558429956436157,-71.6552734375,-125.2593994140625,-10.80322265625
10.6099999,0.2992752194404602,-8.293514251708984,-1.3287819623947144,-96.19140625,-105.712890625,-34.3475341796875
10.629999900000001,0.05985504388809204,-7.888894557952881,-1.922544002532959,-75.13427734375,-99.945068359375,-44.3115234375
10.649999900000001,-0.2082955539226532,-7.60637903213501,-2.473210334777832,-15.7012939453125,-111.02294921875,-18.24951171875
10.6699999,-0.3998316824436188,-7.46033239364624,-2.9951462745666504,3.9520263671875,-122.3602294921875,-0.0152587890625
10.6899999,-0.5770025849342346,-7.47230339050293,-3.3494882583618164,-60.394287109375,-121.0479736328125,-13.824462890625
10.709999900000001,-0.7206547260284424,-7.63989782333374,-3.5242648124694824,-94.329833984375,-121.2615966796875,-32.012939453125
10.729999900000001,-0.8547300100326538,-7.850587368011475,-3.620033025741577,-42.4652099609375,-140.655517578125,-35.46142578125
10.7499999,-1.01753568649292,-7.975085735321045,-3.8283286094665527,-31.463623046875,-169.4183349609375,-36.3311767578125
10.7699999,-1.1971008777618408,-7.979874134063721,-4.261679172515869,-42.48046875,-151.0162353515625,-29.754638671875
10.7899999,-1.4317326545715332,-8.08043098449707,-4.637568473815918,-1.617431640625,-120.1934814453125,-15.2435302734375
10.809999900000001,-1.659181833267212,-8.200140953063965,-5.173870086669922,22.8729248046875,-133.3160400390625,-17.9290771484375
10.8299999,-2.1092917919158936,-8.339004516601562,-5.542576789855957,2.105712890625,-134.185791015625,-25.5126953125
10.8499999,-2.7030537128448486,-8.307879447937012,-6.169857978820801,-35.1409912109375,-117.24853515625,-14.0533447265625
10.8699999,-3.533841609954834,-8.056488990783691,-6.936002254486084,-57.0526123046875,-89.2181396484375,1.03759765625
10.889999900000001,-4.477157115936279,-7.601590633392334,-7.99184513092041,-34.515380859375,-72.4945068359375,5.645751953125
10.9099999,-5.583278179168701,-7.151480674743652,-8.889671325683594,-22.5067138671875,-48.9501953125,8.7432861328125
10.9299999,-6.7923502922058105,-6.763619899749756,-9.931148529052734,-26.9927978515625,-19.6380615234375,22.186279296875
10.9499999,-8.169015884399414,-6.313509941101074,-11.17852783203125,-48.2177734375,19.04296875,33.0352783203125
10.969999900000001,-9.770736694335938,-5.770026206970215,-12.54801082611084,-53.2379150390625,75.0885009765625,45.562744140625
10.9899999,-11.45146656036377,-5.22175407409668,-13.687650680541992,-16.05224609375,135.3302001953125,78.4759521484375
11.0099999,-13.043610572814941,-4.867412090301514,-14.202404022216797,-7.049560546875,175.3997802734375,110.4736328125
11.0299999,-14.386757850646973,-4.881777286529541,-13.809755325317383,11.1236572265625,214.2791748046875,127.532958984375
11.049999900000001,-15.401899337768555,-5.403713226318359,-12.691662788391113,38.2232666015625,261.0321044921875,138.946533203125
11.069999900000001,-16.09861183166504,-6.339846134185791,-11.310209274291992,24.1546630859375,290.9088134765625,153.045654296875
11.0899999,-16.59181785583496,-7.50582218170166,-10.043676376342773,-7.14111328125,319.1070556640625,165.7562255859375
11.1099999,-16.994043350219727,-8.78432559967041,-9.124302864074707,3.8299560546875,370.8343505859375,171.3104248046875
11.129999900000001,-17.496826171875,-10.146626472473145,-8.755595207214355,33.477783203125,437.31689453125,168.9605712890625
11.149999900000001,-18.23184585571289,-11.42752456665039,-8.609549522399902,47.0428466796875,499.9847412109375,159.3475341796875
11.1699999,-19.280506134033203,-12.524068832397461,-8.865729331970215,25.69580078125,499.9847412109375,142.5933837890625
11.1899999,-20.73139190673828,-13.582305908203125,-9.313444137573242,-28.4271240234375,499.9847412109375,139.7247314453125
11.209999900000001,-22.634782791137695,-14.149731636047363,-9.461885452270508,18.5089111328125,499.9847412109375,122.0703125
11.229999900000001,-25.000253677368164,-14.092270851135254,-9.172186851501465,62.92724609375,499.9847412109375,99.7314453125
11.2499999,-27.360937118530273,-13.328520774841309,-6.172252178192139,103.1646728515625,499.9847412109375,103.546142578125
11.2699999,-28.91477394104004,-11.544840812683105,-0.8188169598579407,108.306884765625,499.9847412109375,82.0465087890625
11.2899999,-29.125463485717773,-10.232817649841309,4.977545261383057,-83.984375,499.9847412109375,85.6781005859375
11.309999900000001,-27.969064712524414,-9.909601211547852,10.493785858154297,-135.4522705078125,465.5914306640625,134.796142578125
11.3299999,-25.52219009399414,-10.893617630004883,14.709975242614746,75.1953125,499.9847412109375,134.8114013671875
11.3499999,-22.42648696899414,-12.667720794677734,16.931795120239258,55.7098388671875,442.5506591796875,56.732177734375
11.3699999,-18.926164627075195,-13.785813331604004,18.207904815673828,-47.54638671875,271.97265625,9.0179443359375
11.389999900000001,-15.126565933227539,-13.603854179382324,18.131288528442383,14.984130859375,227.2186279296875,30.242919921875
11.4099999,-11.200075149536133,-12.679692268371582,16.069881439208984,-27.3590087890625,218.1396484375,42.48046875
11.4299999,-7.850587368011475,-11.111490249633789,12.76109504699707,-118.3013916015625,175.2166748046875,-4.4403076171875
11.4499999,-5.382165431976318,-9.75397777557373,9.57201862335205,-77.1484375,152.4810791015625,-13.73291015625
11.469999900000001,-3.77565598487854,-9.215282440185547,7.493851184844971,-39.3218994140625,136.90185546875,25.3143310546875
11.4899999,-2.96162748336792,-9.121908187866211,6.291962146759033,-61.370849609375,86.3494873046875,20.4315185546875
11.5099999,-2.5043349266052246,-9.564835548400879,5.729324817657471,-39.276123046875,51.0406494140625,-11.1083984375
11.5299999,-2.161964178085327,-10.395624160766602,5.374982833862305,19.53125,65.5975341796875,-10.8489990234375
11.549999900000001,-1.8411411046981812,-11.075576782226562,4.9583916664123535,13.7176513671875,60.5010986328125,-9.1094970703125
11.569999900000001,-1.6639702320098877,-11.250353813171387,4.513070106506348,-34.85107421875,27.2216796875,-33.1268310546875
11.5899999,-1.4772224426269531,-11.034875869750977,4.158728122711182,-57.8460693359375,3.60107421875,-42.083740234375
11.6099999,-1.2521674633026123,-10.407594680786133,3.6966474056243896,-40.5120849609375,8.72802734375,-24.8260498046875
11.629999900000001,-0.8978256583213806,-9.581595420837402,2.9712042808532715,-36.407470703125,10.986328125,-17.9290771484375
11.649999900000001,-0.6105214357376099,-8.698134422302246,2.3271639347076416,-27.6947021484375,9.490966796875,-12.3443603515625
11.6699999,-0.2537853717803955,-8.20732307434082,1.6615760326385498,-8.9111328125,5.096435546875,0.762939453125
11.6899999,0.004788403399288654,-8.087613105773926,1.3048399686813354,-10.55908203125,3.387451171875,11.0931396484375
11.709999900000001,0.181959331035614,-8.312667846679688,1.158793568611145,-19.2108154296875,-1.068115234375,2.44140625
11.729999900000001,0.2992752194404602,-8.78432559967041,1.1180921792984009,-30.3802490234375,-17.7001953125,-7.171630859375
11.7499999,0.3902548849582672,-9.224859237670898,1.0295066833496094,-30.670166015625,-22.216796875,-7.4005126953125
11.7699999,0.5051765441894531,-9.521739959716797,0.8092401623725891,-23.4832763671875,-11.260986328125,-0.457763671875
11.7899999,0.6584054827690125,-9.646238327026367,0.49799394607543945,1.220703125,1.3580322265625,5.1116943359375
11.809999900000001,0.8355764150619507,-9.775525093078613,0.3447650372982025,7.75146484375,-0.762939453125,3.1280517578125
11.8299999,0.9983820915222168,-9.897629737854004,0.29209262132644653,-10.9405517578125,-15.960693359375,-4.8675537109375
11.8499999,1.1276689767837524,-9.938331604003906,0.33997663855552673,-17.88330078125,-19.9432373046875,-8.6669921875
11.8699999,1.2330138683319092,-9.947908401489258,0.3064578175544739,-2.25830078125,-11.9476318359375,1.495361328125
11.889999900000001,1.3239935636520386,-9.952696800231934,0.2849099934101105,11.53564453125,-4.94384765625,9.0179443359375
11.9099999,1.4077905416488647,-10.053253173828125,0.31842881441116333,5.615234375,-11.77978515625,4.6234130859375
11.9299999,1.4772224426269531,-10.268731117248535,0.4381389021873474,4.7607421875,-21.1181640625,-3.41796875
11.9499999,1.525106430053711,-10.493785858154297,0.38546648621559143,14.2974853515625,-22.918701171875,-5.37109375
11.969999900000001,1.580173134803772,-10.647014617919922,0.27054479718208313,13.916015625,-13.3056640625,-3.47900390625
11.9899999,1.6160861253738403,-10.702081680297852,0.13407529890537262,8.85009765625,-6.8511962890625,-4.8675537109375
12.0099999,1.6376339197158813,-10.663774490356445,0.09576806426048279,12.6953125,-14.251708984375,-10.6964111328125
12.0299999,1.6496049165725708,-10.60391902923584,0.2059013396501541,16.4031982421875,-24.1241455078125,-12.2833251953125
12.049999900000001,1.6424223184585571,-10.496180534362793,0.31124621629714966,20.660400390625,-24.0936279296875,-13.214111328125
12.069999900000001,1.6424223184585571,-10.35252857208252,0.28969839215278625,19.10400390625,-22.705078125,-14.3890380859375
12.0899999,1.656787633895874,-10.182539939880371,0.26575639843940735,19.0582275390625,-21.6827392578125,-16.4794921875
12.1099999,1.6687586307525635,-9.964667320251465,0.20350714027881622,15.0909423828125,-28.289794921875,-20.416259765625
12.129999900000001,1.6974890232086182,-9.682151794433594,-0.06703764945268631,-2.1514892578125,-38.6810302734375,-20.782470703125
12.149999900000001,1.7310078144073486,-9.41639518737793,-0.30885201692581177,-1.28173828125,-25.604248046875,-12.8021240234375
12.1699999,1.7860745191574097,-9.193734169006348,-0.5722141861915588,11.5509033203125,-12.6190185546875,-7.354736328125
12.1899999,1.867477297782898,-9.064447402954102,-0.5913678407669067,9.5977783203125,-18.61572265625,-10.55908203125
12.209999900000001,1.944091796875,-9.004592895507812,-0.5171475410461426,-6.3934326171875,-33.111572265625,-15.655517578125
12.229999900000001,2.008735179901123,-8.937555313110352,-0.5434837937355042,-14.984130859375,-33.3099365234375,-12.14599609375
12.2499999,2.0470423698425293,-8.851364135742188,-0.646434485912323,-9.4146728515625,-13.1683349609375,-3.3416748046875
12.2699999,2.056619167327881,-8.767566680908203,-0.8068459630012512,-3.4637451171875,-5.218505859375,1.7852783203125
12.289999900000002,2.03507137298584,-8.722076416015625,-0.7086837291717529,-3.2501220703125,-12.6495361328125,2.5634765625
12.309999900000001,2.013523578643799,-8.808267593383789,-0.49559974670410156,-7.1258544921875,-21.97265625,6.8817138671875
12.3299999,2.0015525817871094,-8.99740982055664,-0.2849099934101105,-7.8277587890625,-20.7366943359375,10.0250244140625
12.3499999,2.013523578643799,-9.282320022583008,-0.21308395266532898,-6.5765380859375,-13.0767822265625,8.23974609375
12.3699999,2.054224967956543,-9.617507934570312,-0.1628057211637497,4.3182373046875,-9.002685546875,6.134033203125
12.389999900000001,2.073378562927246,-9.955090522766113,-0.0454898327589035,11.71875,-13.00048828125,4.5013427734375
12.4099999,2.054224967956543,-10.259154319763184,0.06464344263076782,10.8642578125,-18.1732177734375,0.42724609375
12.4299999,2.008735179901123,-10.436325073242188,0.13407529890537262,2.3040771484375,-18.463134765625,-7.9193115234375
12.4499999,1.920149803161621,-10.505757331848145,0.06224924325942993,-7.7667236328125,-17.608642578125,-13.9312744140625
12.469999900000001,1.800439715385437,-10.414777755737305,-0.05267243832349777,2.685546875,-15.380859375,-13.0462646484375
12.4899999,1.6065093278884888,-10.295066833496094,-0.08619125932455063,20.416259765625,-11.2152099609375,-7.5836181640625
12.5099999,1.357512354850769,-10.177751541137695,-0.011971008032560349,13.7939453125,-15.7928466796875,-13.397216796875
12.5299999,1.0773907899856567,-10.043676376342773,-0.0071826050989329815,-2.716064453125,-27.77099609375,-25.2227783203125
12.549999900000001,0.7637503147125244,-9.892841339111328,-0.1412578970193863,14.95361328125,-23.406982421875,-21.4385986328125
12.569999900000001,0.45010992884635925,-9.677363395690918,-0.038307227194309235,38.4521484375,-2.50244140625,-10.1318359375
12.5899999,0.1628057211637497,-9.469067573547363,0.4429273009300232,-1.129150390625,-14.678955078125,-17.39501953125
12.6099999,0.033518824726343155,-9.246406555175781,0.8379706144332886,-54.2144775390625,-69.9615478515625,-30.5633544921875
12.629999900000001,0.24420857429504395,-9.026140213012695,0.8738836050033569,-33.447265625,-80.1849365234375,-20.01953125
12.649999900000001,0.6344634294509888,-8.834604263305664,0.3016694188117981,3.204345703125,-31.8603515625,-10.467529296875
12.6699999,1.158793568611145,-8.743624687194824,-0.40701428055763245,15.9912109375,5.401611328125,-6.134033203125
12.6899999,1.525106430053711,-8.774748802185059,-0.6488286852836609,-2.5482177734375,-29.3426513671875,-14.1143798828125
12.709999900000001,1.6711528301239014,-8.980650901794434,-0.24899697303771973,-12.8631591796875,-79.7119140625,-14.6484375
12.729999900000001,1.6184803247451782,-9.272743225097656,0.22266076505184174,-2.471923828125,-85.9375,-14.8162841796875
12.7499999,1.4867992401123047,-9.5624418258667,0.42856210470199585,-8.6669921875,-66.95556640625,-16.54052734375
12.7699999,1.3670891523361206,-9.773131370544434,0.22505496442317963,-13.153076171875,-69.244384765625,-18.6920166015625
12.789999900000002,1.4508862495422363,-9.921571731567383,-0.16519992053508759,-9.4451904296875,-90.9271240234375,-6.011962890625
12.809999900000001,1.678335428237915,-9.971850395202637,-0.5722141861915588,-6.8511962890625,-94.6197509765625,1.8157958984375
12.8299999,2.054224967956543,-10.017339706420898,-1.0223240852355957,-12.8936767578125,-76.0650634765625,-2.50244140625
12.8499999,2.3989901542663574,-10.079588890075684,-1.3838485479354858,-23.101806640625,-63.0340576171875,-8.544921875
12.8699999,2.6360161304473877,-10.18493366241455,-1.6663644313812256,-8.7890625,-62.8509521484375,-7.659912109375
12.889999900000001,2.631227731704712,-10.383652687072754,-1.6543933153152466,18.2037353515625,-54.6112060546875,-4.302978515625
12.9099999,2.406172752380371,-10.41956615447998,-1.5658079385757446,10.19287109375,-53.863525390625,-6.2255859375
12.9299999,2.1164743900299072,-10.450690269470215,-1.403002142906189,0.030517578125,-56.6558837890625,-6.1187744140625
12.9499999,1.824381709098816,-10.412383079528809,-1.2042834758758545,14.5416259765625,-57.403564453125,-3.3111572265625
12.969999900000001,1.6352397203445435,-10.36449909210205,-0.9457096457481384,34.1644287109375,-55.7098388671875,-1.3427734375
12.9899999,1.5418659448623657,-10.211270332336426,-0.6416460275650024,32.562255859375,-61.5997314453125,-5.2947998046875
13.0099999,1.5682021379470825,-10.010157585144043,-0.49799394607543945,32.8521728515625,-71.6094970703125,-3.7994384765625
13.0299999,1.6496049165725708,-9.794678688049316,-0.5913678407669067,63.6749267578125,-61.5234375,6.53076171875
13.049999900000001,1.8171991109848022,-9.624691009521484,-0.8571242094039917,75.439453125,-44.921875,15.9759521484375
13.069999900000001,1.9632453918457031,-9.521739959716797,-1.0007762908935547,62.5762939453125,-34.515380859375,9.0484619140625
13.0899999,2.078166961669922,-9.442731857299805,-0.8236053586006165,49.98779296875,-44.830322265625,-0.4730224609375
13.1099999,2.1523873805999756,-9.466673851013184,-0.24899697303771973,45.5169677734375,-57.586669921875,4.7454833984375
13.129999900000001,2.207453966140747,-9.588777542114258,0.3519476354122162,34.1644287109375,-70.2056884765625,7.1258544921875
13.149999900000001,2.248155355453491,-9.864110946655273,0.646434485912323,9.6282958984375,-68.1915283203125,-3.875732421875
13.1699999,2.2625205516815186,-10.120290756225586,0.7038952708244324,-8.697509765625,-62.164306640625,-9.0789794921875
13.1899999,2.229001760482788,-10.290278434753418,0.5482721924781799,-0.640869140625,-66.009521484375,-3.5400390625
13.209999900000001,2.1787235736846924,-10.314221382141113,0.43095630407333374,58.7310791015625,-68.0084228515625,9.6588134765625
13.229999900000001,2.1045033931732178,-10.163386344909668,0.5530605912208557,137.1002197265625,-60.394287109375,23.406982421875
13.2499999,2.075772762298584,-9.907206535339355,0.8571242094039917,181.33544921875,-59.14306640625,38.51318359375
13.2699999,2.0614075660705566,-9.706093788146973,1.3934253454208374,168.670654296875,-72.2198486328125,49.3621826171875
13.289999900000002,2.070984363555908,-9.57201862335205,1.9608511924743652,137.1002197265625,-97.869873046875,54.6112060546875
13.309999900000001,2.205059766769409,-9.672574996948242,2.078166961669922,92.620849609375,-116.1956787109375,51.1932373046875
13.3299999,2.408566951751709,-9.763554573059082,1.6208745241165161,65.6890869140625,-88.5772705078125,30.0140380859375
13.3499999,2.5785553455352783,-9.895236015319824,1.1683704853057861,194.9920654296875,-19.0277099609375,20.3704833984375
13.3699999,2.80361008644104,-9.99339771270752,0.9600749015808105,227.0965576171875,-9.9639892578125,38.482666015625
13.389999900000001,2.9664158821105957,-10.204087257385254,1.3982137441635132,135.3607177734375,-54.290771484375,23.3154296875
13.4099999,2.9688100814819336,-10.345345497131348,2.099714994430542,100.921630859375,-67.32177734375,-17.1966552734375
13.4299999,2.829946517944336,-10.400412559509277,2.8826189041137695,206.8634033203125,-25.6805419921875,-5.5389404296875
13.4499999,2.4875755310058594,-10.08198356628418,3.335123062133789,158.69140625,-31.768798828125,23.406982421875
13.469999900000001,2.0254945755004883,-9.591172218322754,3.88818359375,98.907470703125,-42.9840087890625,30.364990234375
13.4899999,1.625662922859192,-9.196128845214844,4.228160381317139,151.9317626953125,-22.9949951171875,27.2216796875
13.5099999,1.314416766166687,-9.009381294250488,4.874594688415527,275.970458984375,42.633056640625,20.4010009765625
13.5299999,1.05105459690094,-8.769960403442383,5.590460777282715,323.73046875,51.26953125,39.4134521484375
13.549999900000001,0.9145850539207458,-8.427590370178223,6.31829833984375,220.5810546875,-28.4881591796875,73.8372802734375
13.569999900000001,0.8810662031173706,-8.094796180725098,6.971915245056152,59.87548828125,-67.0623779296875,75.4852294921875
13.5899999,0.993593692779541,-7.812280178070068,7.113173484802246,37.1856689453125,-43.9453125,57.9986572265625
13.6099999,1.1348515748977661,-7.7763671875,7.038952827453613,110.382080078125,3.2958984375,42.3126220703125
13.629999900000001,1.2258312702178955,-7.795520782470703,7.259219646453857,131.5155029296875,20.8587646484375,42.4041748046875
13.649999900000001,1.158793568611145,-7.577648162841797,7.668628215789795,107.91015625,-19.22607421875,54.443359375
13.6699999,1.0678139925003052,-7.24485445022583,8.367734909057617,68.145751953125,-46.051025390625,63.8580322265625
13.6899999,0.912190854549408,-6.8043212890625,8.83699893951416,15.4876708984375,-49.4842529296875,55.5419921875
13.709999900000001,0.8930372595787048,-6.392518520355225,8.808267593383789,64.6514892578125,-39.337158203125,56.640625
13.729999900000001,0.9433154463768005,-6.107608318328857,8.53532886505127,76.11083984375,-17.0135498046875,53.7261962890625
13.7499999,1.036689281463623,-5.796362400054932,8.243236541748047,56.3201904296875,6.4544677734375,40.1763916015625
13.7699999,1.2042834758758545,-5.477933406829834,8.003816604614258,74.27978515625,2.8533935546875,41.1224365234375
13.789999900000002,1.2114660739898682,-5.056553840637207,8.078036308288574,73.211669921875,-5.157470703125,31.7840576171875
13.809999900000001,1.137245774269104,-4.522646903991699,8.26478385925293,49.4232177734375,-21.3470458984375,39.1998291015625
13.8299999,0.9313444495201111,-3.971980571746826,8.556877136230469,68.17626953125,-18.2952880859375,59.6160888671875
13.8499999,0.6344634294509888,-3.3949780464172363,8.935160636901855,130.8441162109375,7.8277587890625,69.03076171875
13.8699999,0.38067805767059326,-2.959233283996582,9.248801231384277,161.56005859375,18.463134765625,86.0443115234375
13.889999900000001,0.20111294090747833,-2.6599581241607666,9.536105155944824,123.0316162109375,10.3302001953125,99.517822265625
13.9099999,0.10773907601833344,-2.518700122833252,9.830592155456543,74.5391845703125,14.5416259765625,96.4813232421875
13.9299999,0.0933738648891449,-2.451662540435791,10.022128105163574,80.4290771484375,20.7977294921875,93.2159423828125
13.9499999,0.009576806798577309,-2.4229321479797363,10.163386344909668,41.900634765625,11.3067626953125,86.3037109375
13.969999900000001,-0.13407529890537262,-2.346317768096924,10.211270332336426,-23.2391357421875,-2.899169921875,83.6639404296875
13.9899999,-0.44532153010368347,-2.185906171798706,10.06043529510498,-34.8968505859375,-8.087158203125,92.28515625
14.0099999,-0.6919242739677429,-2.169146776199341,9.943120002746582,-73.73046875,-12.176513671875,105.52978515625
14.0299999,-0.9361328482627869,-2.252943754196167,9.880870819091797,-96.954345703125,-19.95849609375,96.5576171875
14.049999900000001,-1.0821791887283325,-2.516305923461914,9.938331604003906,-88.43994140625,-34.5458984375,88.92822265625
14.069999900000001,-1.1420341730117798,-2.978386878967285,9.9000244140625,-71.990966796875,-50.079345703125,104.0802001953125
14.0899999,-1.0630255937576294,-3.5458126068115234,9.730035781860352,-72.2808837890625,-53.497314453125,114.6392822265625
14.1099999,-0.8236053586006165,-4.247313976287842,9.473855972290039,-92.9107666015625,-65.2618408203125,110.6109619140625
14.129999900000001,-0.5506663918495178,-4.991910457611084,8.944737434387207,-29.84619140625,-91.033935546875,101.7608642578125
14.149999900000001,-0.2298433631658554,-5.43723201751709,8.671798706054688,-20.751953125,-54.8553466796875,39.97802734375
14.1699999,-0.047884032130241394,-5.655104637145996,8.389283180236816,-33.69140625,-32.0587158203125,32.89794921875
14.1899999,0.040701430290937424,-5.552153587341309,8.312667846679688,-44.2657470703125,-27.130126953125,41.656494140625
14.209999900000001,0.08858546614646912,-5.324704647064209,8.544905662536621,-35.5682373046875,-17.120361328125,39.825439453125
14.229999900000001,0.023942016065120697,-4.948814868927002,9.191340446472168,6.3934326171875,-8.209228515625,37.2161865234375
14.2499999,0.004788403399288654,-4.273650169372559,9.514557838439941,28.2440185546875,-53.6346435546875,63.4765625
14.2699999,-0.09576806426048279,-3.689464807510376,9.691728591918945,-13.3209228515625,-78.0792236328125,69.061279296875
14.289999900000002,0.014365210197865963,-3.1483752727508545,9.399636268615723,-29.0374755859375,-27.9388427734375,65.0787353515625
14.309999900000001,0.1628057211637497,-3.0382418632507324,8.868123054504395,-10.9710693359375,-15.8843994140625,40.8172607421875
14.3299999,0.4189853072166443,-3.308786630630493,8.506598472595215,-5.2032470703125,-17.0135498046875,30.029296875
14.3499999,0.5650315880775452,-3.6343982219696045,8.573636054992676,-5.4168701171875,-20.843505859375,29.266357421875
14.3699999,0.7086837291717529,-4.027047157287598,8.798690795898438,9.5062255859375,-34.5458984375,42.4652099609375
14.389999900000001,0.7493851184844971,-4.288015365600586,9.150638580322266,27.923583984375,-42.6483154296875,29.6783447265625
14.4099999,0.7493851184844971,-4.460397720336914,9.363722801208496,44.25048828125,-29.5257568359375,3.173828125
14.4299999,0.6991068720817566,-4.434061527252197,9.255983352661133,46.3714599609375,-19.256591796875,1.3275146484375
14.4499999,0.5817909836769104,-4.206612586975098,9.05247688293457,25.93994140625,-7.2174072265625,7.659912109375
14.469999900000001,0.45010992884635925,-3.914519786834717,8.71489429473877,1.15966796875,-7.049560546875,9.1094970703125
14.4899999,0.3711012601852417,-3.6583402156829834,8.453926086425781,-16.66259765625,-15.44189453125,3.4332275390625
14.5099999,0.3423708379268646,-3.5721490383148193,8.413225173950195,-24.2767333984375,-7.904052734375,-6.65283203125
14.5299999,0.3280056416988373,-3.6152446269989014,8.360552787780762,-14.3280029296875,-3.021240234375,-8.2855224609375
14.549999900000001,0.3687070608139038,-3.7493197917938232,8.432378768920898,15.045166015625,-1.9378662109375,3.326416015625
14.569999900000001,0.3998316824436188,-3.93367338180542,8.485051155090332,22.9644775390625,3.5858154296875,16.204833984375
14.5899999,0.49320554733276367,-4.106055736541748,8.480262756347656,-7.8887939453125,-4.5928955078125,14.4500732421875
14.6099999,0.6033388376235962,-4.199429988861084,8.540117263793945,-15.7012939453125,1.1138916015625,11.0321044921875
14.629999900000001,0.7158663272857666,-4.220977783203125,8.681375503540039,-2.1209716796875,14.0228271484375,10.5743408203125
14.649999900000001,0.7924807667732239,-4.19224739074707,8.791508674621582,5.3863525390625,8.453369140625,16.05224609375
14.6699999,0.8738836050033569,-4.235342979431152,8.966285705566406,-8.3465576171875,10.2996826171875,20.4620361328125
14.6899999,0.8906430602073669,-4.323928356170654,9.05247688293457,-46.5240478515625,21.7132568359375,2.2430419921875
14.709999900000001,0.8906430602073669,-4.458003520965576,9.117119789123535,-55.96923828125,16.3116455078125,-7.0343017578125
14.729999900000001,0.8571242094039917,-4.527435302734375,9.227252960205078,-15.5792236328125,19.3023681640625,-1.6632080078125
14.7499999,0.8212111592292786,-4.563348293304443,9.363722801208496,-11.3525390625,9.796142578125,1.89208984375
14.7699999,0.9816226959228516,-4.754884719848633,9.279925346374512,-38.177490234375,-7.6141357421875,11.016845703125
14.789999900000002,0.9696516990661621,-4.747702121734619,8.825027465820312,140.106201171875,-7.9193115234375,78.43017578125
14.809999900000001,0.9433154463768005,-4.616020679473877,9.23682975769043,132.3394775390625,72.8912353515625,34.8663330078125
14.8299999,0.8619126081466675,-4.314351558685303,8.947132110595703,-40.2374267578125,-28.167724609375,5.3253173828125
14.8499999,0.6368576288223267,-3.797203779220581,9.732429504394531,-3.4942626953125,-55.8319091796875,25.8331298828125
14.8699999,0.5793967843055725,-3.2992098331451416,10.390835762023926,54.351806640625,-53.192138671875,36.62109375
14.889999900000001,0.7110779285430908,-2.9448680877685547,10.488997459411621,75.6378173828125,-154.754638671875,72.57080078125
14.9099999,0.8451532125473022,-2.3965959548950195,10.524910926818848,52.3529052734375,-137.359619140625,58.77685546875
14.9299999,1.1061211824417114,-1.8052281141281128,10.204087257385254,40.0543212890625,-59.051513671875,60.1959228515625
14.9499999,1.2880805730819702,-1.2425906658172607,9.775525093078613,31.3720703125,-37.353515625,84.075927734375
14.969999900000001,1.3958195447921753,-0.8619126081466675,9.57441234588623,29.022216796875,-38.4979248046875,95.1080322265625
14.9899999,1.4508862495422363,-0.8810662031173706,9.524134635925293,34.0728759765625,-34.698486328125,113.1439208984375
15.0099999,1.4317326545715332,-1.0869675874710083,9.536105155944824,27.252197265625,-26.611328125,108.0169677734375
15.0299999,1.357512354850769,-1.3958195447921753,9.622296333312988,9.002685546875,-31.43310546875,92.681884765625
15.049999900000001,1.3120225667953491,-1.6759412288665771,9.739612579345703,12.7716064453125,-44.73876953125,101.13525390625
15.069999900000001,1.259350061416626,-1.8267759084701538,9.885659217834473,42.4652099609375,-49.896240234375,102.5390625
15.0899999,1.2401964664459229,-1.9776105880737305,10.02691650390625,51.422119140625,-38.5284423828125,97.412109375
15.1099999,1.256955862045288,-2.078166961669922,10.141838073730469,31.6314697265625,-33.75244140625,107.9864501953125
15.129999900000001,1.4101848602294922,-2.387019157409668,10.362105369567871,21.97265625,-42.8619384765625,120.3460693359375
15.149999900000001,1.5490485429763794,-2.674323320388794,10.551246643066406,40.1153564453125,-77.911376953125,87.493896484375
15.1699999,1.7190368175506592,-2.6431987285614014,10.642226219177246,71.0906982421875,-92.803955078125,66.1163330078125
15.1899999,1.8124107122421265,-2.365471363067627,10.630255699157715,41.900634765625,-65.277099609375,96.923828125
15.209999900000001,1.766920804977417,-1.821987509727478,10.376470565795898,22.4456787109375,-53.64990234375,120.3460693359375
15.229999900000001,1.5897499322891235,-1.3694833517074585,10.129867553710938,41.7938232421875,-40.4510498046875,120.849609375
15.2499999,1.3311761617660522,-1.1755530834197998,9.998186111450195,64.1632080078125,-37.0025634765625,111.87744140625
15.2699999,1.0199298858642578,-1.3407529592514038,9.792284965515137,81.7108154296875,-48.0194091796875,114.3341064453125
15.289999900000002,0.730231523513794,-1.5490485429763794,9.579200744628906,71.4874267578125,-42.388916015625,120.7427978515625
15.309999900000001,0.5410895943641663,-1.889025092124939,9.337387084960938,43.731689453125,-20.44677734375,121.002197265625
15.3299999,0.48602294921875,-2.27209734916687,9.102754592895508,23.5595703125,-20.1263427734375,111.968994140625
15.3499999,0.5793967843055725,-2.7772738933563232,9.141061782836914,10.223388671875,-21.7742919921875,105.499267578125
15.3699999,0.751779317855835,-3.3063924312591553,9.265560150146484,19.8211669921875,-28.2440185546875,102.4169921875
15.389999900000001,0.9768342971801758,-3.8067808151245117,9.461885452270508,36.956787109375,-31.2652587890625,89.90478515625
15.4099999,1.1875240802764893,-4.2975921630859375,9.550470352172852,35.003662109375,-27.9083251953125,81.48193359375
15.4299999,1.3982137441635132,-4.587290287017822,9.548076629638672,24.261474609375,-27.8167724609375,76.7364501953125
15.4499999,1.6041151285171509,-4.7836151123046875,9.452308654785156,22.7508544921875,-25.4058837890625,72.3419189453125
15.469999900000001,1.766920804977417,-4.759673118591309,9.35893440246582,15.899658203125,-20.99609375,65.7196044921875
15.4899999,1.8267759084701538,-4.661510944366455,9.241618156433105,3.1890869140625,-20.3704833984375,65.7806396484375
15.5099999,1.7741034030914307,-4.558559894561768,9.186552047729492,1.3427734375,-14.495849609375,70.892333984375
15.5299999,1.599326729774475,-4.537012100219727,9.260771751403809,4.69970703125,-7.4615478515625,74.4476318359375
15.549999900000001,1.2497732639312744,-4.58968448638916,9.311050415039062,2.8839111328125,-19.0582275390625,59.63134765625
15.569999900000001,0.6416460275650024,-5.063736438751221,9.44991397857666,6.8511962890625,-21.728515625,40.0543212890625
15.5899999,-0.47405192255973816,-6.564900875091553,9.339780807495117,6.4697265625,-22.5677490234375,14.34326171875
15.6099999,-2.27209734916687,-8.547300338745117,9.07641887664795,-16.571044921875,-14.3890380859375,-51.483154296875
15.629999900000001,-4.78122091293335,-11.621455192565918,8.786720275878906,-65.61279296875,11.5203857421875,-96.435546875
15.649999900000001,-8.358158111572266,-16.802507400512695,8.382100105285645,-80.3985595703125,14.251708984375,-111.419677734375
15.6699999,-13.220781326293945,-23.106441497802734,8.200140953063965,-73.0438232421875,40.10009765625,-256.5765380859375
15.6899999,-19.048269271850586,-29.63542938232422,9.081207275390625,-131.0577392578125,105.8502197265625,-449.1119384765625
15.709999900000001,-25.380931854248047,-34.57227325439453,11.101913452148438,-197.3876953125,134.2926025390625,-500
15.729999900000001,-31.332918167114258,-35.9106330871582,14.92066478729248,-203.277587890625,143.402099609375,-500
15.7499999,-36.19554138183594,-33.24588394165039,20.207061767578125,-219.0704345703125,141.754150390625,-500
15.7699999,-39.79402542114258,-27.657817840576172,26.173412322998047,-241.851806640625,138.5955810546875,-500
15.789999900000002,-42.02302932739258,-19.74737548828125,32.0224494934082,-236.4654541015625,116.51611328125,-500
15.809999900000001,-42.6766471862793,-10.807426452636719,36.80606460571289,-261.9781494140625,67.56591796875,-500
15.8299999,-42.066123962402344,-2.118868589401245,39.341522216796875,-293.914794921875,5.9814453125,-500
15.8499999,-40.2321662902832,5.530605792999268,39.24814987182617,-280.8685302734375,-2.4261474609375,-500
15.869999900000002,-37.61051559448242,11.456254959106445,36.38947296142578,-261.8865966796875,15.2587890625,-467.041015625
15.889999900000001,-33.86598205566406,16.27578353881836,32.218772888183594,-182.586669921875,71.4874267578125,-419.891357421875
15.9099999,-28.941110610961914,20.808006286621094,27.82541275024414,-14.923095703125,92.8802490234375,-382.7056884765625
15.9299999,-22.929269790649414,24.72013282775879,23.831884384155273,-6.072998046875,2.960205078125,-256.195068359375
15.9499999,-16.350004196166992,26.958711624145508,20.54224967956543,-121.5972900390625,-74.4781494140625,-76.2786865234375
15.969999900000001,-10.321403503417969,26.67619514465332,17.13530158996582,-71.3043212890625,-84.16748046875,-22.6898193359375
15.9899999,-5.4659624099731445,23.434446334838867,13.692439079284668,20.69091796875,-66.619873046875,-50.29296875
16.0099999,-2.075772762298584,18.361133575439453,10.374075889587402,27.252197265625,-58.837890625,-68.0694580078125
16.0299999,0.009576806798577309,12.469002723693848,7.534552574157715,41.351318359375,-54.7637939453125,-65.3839111328125
16.0499999,1.173158884048462,7.924807548522949,4.963180065155029,12.5732421875,-43.426513671875,-147.3541259765625
16.0699999,2.164358377456665,3.24414324760437,4.426878929138184,-49.3011474609375,12.9852294921875,-77.728271484375
16.089999900000002,2.5258827209472656,1.280897855758667,2.8802247047424316,98.480224609375,-110.260009765625,-41.229248046875
16.109999900000002,2.978386878967285,-0.1843535304069519,2.913743495941162,108.9935302734375,-17.8680419921875,-99.4110107421875
16.1299999,2.911349296569824,0.3758896589279175,1.886630892753601,89.7674560546875,15.380859375,-38.8946533203125
16.1499999,2.6862943172454834,2.248155355453491,1.4532804489135742,16.9525146484375,37.841796875,-20.81298828125
16.1699999,2.7485435009002686,3.955221176147461,1.6711528301239014,-15.5029296875,59.5703125,32.8521728515625
16.1899999,3.1866824626922607,4.288015365600586,3.181894063949585,1.6632080078125,55.0079345703125,52.8411865234375
16.2099999,3.931279182434082,3.488351821899414,5.427655220031738,7.0343017578125,38.3148193359375,-22.8271484375
16.2299999,4.7405195236206055,2.229001760482788,7.560888767242432,2.349853515625,1.64794921875,-87.127685546875
16.249999900000002,5.336675643920898,1.5203180313110352,8.875306129455566,-9.3231201171875,-4.730224609375,-47.9278564453125
16.269999900000002,5.655104637145996,1.8914192914962769,9.090784072875977,-3.0517578125,4.8980712890625,19.6685791015625
16.2899999,5.772420406341553,2.8658595085144043,8.65982723236084,33.7371826171875,21.0723876953125,24.078369140625
16.3099999,5.872976779937744,3.1962592601776123,8.14028549194336,37.5213623046875,42.449951171875,9.4757080078125
16.3299999,5.858611583709717,2.9257144927978516,7.781155586242676,0.9613037109375,44.219970703125,15.4266357421875
16.3499999,5.746084213256836,2.6886885166168213,7.623138427734375,-9.6282958984375,52.7801513671875,8.392333984375
16.3699999,5.5329999923706055,2.628833532333374,7.608773231506348,1.739501953125,93.7652587890625,12.6495361328125
16.3899999,5.272032260894775,2.784456491470337,7.790732383728027,11.322021484375,139.1448974609375,28.533935546875
16.4099999,4.965574264526367,3.1268274784088135,7.965508937835693,-25.0396728515625,30.548095703125,27.5421142578125
16.429999900000002,4.685452938079834,3.2776620388031006,8.279149055480957,-64.239501953125,-25.238037109375,18.6767578125
16.4499999,4.4532151222229,3.184288263320923,8.47547435760498,-64.75830078125,-18.1121826171875,37.567138671875
16.4699999,4.244919776916504,2.9233202934265137,8.504204750061035,-45.745849609375,-21.2860107421875,46.142578125
16.4899999,4.180276393890381,2.631227731704712,8.44195556640625,-42.266845703125,-31.494140625,46.2799072265625
16.5099999,4.280832767486572,2.0638017654418945,8.183381080627441,-63.262939453125,-21.5606689453125,53.0853271484375
16.5299999,4.359841346740723,0.9983820915222168,8.075642585754395,-118.133544921875,-20.263671875,34.1644287109375
16.5499999,4.2090067863464355,0.7852981686592102,8.169015884399414,-157.440185546875,-44.9676513671875,-19.134521484375
16.5699999,4.20421838760376,-0.2106897532939911,8.271966934204102,-226.50146484375,-181.21337890625,42.17529296875
16.589999900000002,4.0749311447143555,-0.3423708379268646,8.099584579467773,-188.995361328125,-177.0782470703125,155.76171875
16.609999900000002,4.041412353515625,-1.2090718746185303,7.754819393157959,-153.86962890625,-12.6190185546875,206.4971923828125
16.6299999,4.323928356170654,-2.3343467712402344,6.761225700378418,-151.79443359375,-6.4697265625,152.9388427734375
16.6499999,4.4077253341674805,-3.845088005065918,5.729324817657471,-146.484375,-13.36669921875,131.0882568359375
16.6699999,4.666299343109131,-5.370194435119629,5.0254292488098145,-97.8240966796875,72.479248046875,129.8828125
16.6899999,4.865017890930176,-6.962338447570801,4.199429988861084,2.593994140625,103.240966796875,84.8388671875
16.7099999,4.9583916664123535,-7.726089000701904,4.082113742828369,-56.2591552734375,115.997314453125,-25.1312255859375
16.7299999,4.639962673187256,-7.955932140350342,4.577713489532471,-154.693603515625,163.6505126953125,-68.603515625
16.749999900000002,3.995922565460205,-7.223306655883789,6.251260757446289,-157.989501953125,199.70703125,-10.9100341796875
16.769999900000002,3.1316158771514893,-6.172252178192139,7.972691535949707,2.5634765625,33.7677001953125,78.8116455078125
16.7899999,2.1930887699127197,-4.7620673179626465,9.737217903137207,91.2322998046875,-102.96630859375,77.3468017578125
16.8099999,1.867477297782898,-3.976768970489502,9.813833236694336,236.3433837890625,-67.9168701171875,148.3306884765625
16.8299999,1.659181833267212,-3.732560396194458,9.074024200439453,-7.843017578125,-29.0069580078125,207.7484130859375
16.8499999,1.7860745191574097,-3.9839515686035156,7.568071365356445,-36.5142822265625,63.0340576171875,156.9976806640625
16.8699999,1.824381709098816,-4.754884719848633,6.392518520355225,51.4984130859375,88.775634765625,127.777099609375
16.8899999,1.8052281141281128,-5.604825973510742,5.9088897705078125,10.31494140625,69.9920654296875,130.828857421875
16.9099999,1.5203180313110352,-6.308721542358398,6.165069580078125,-37.109375,74.27978515625,150.1617431640625
16.929999900000002,1.359906554222107,-6.7492547035217285,6.730101108551025,-17.5323486328125,35.8734130859375,161.3922119140625
16.9499999,0.8355764150619507,-6.971915245056152,7.754819393157959,84.503173828125,22.2930908203125,118.7591552734375
16.9699999,0.5889736413955688,-6.88332986831665,8.379706382751465,-31.18896484375,-33.7371826171875,96.588134765625
16.9899999,0.10773907601833344,-6.418854713439941,8.537723541259766,-49.8199462890625,-31.4178466796875,137.847900390625
17.0099999,-0.3447650372982025,-6.435614109039307,8.343792915344238,-42.66357421875,42.8009033203125,228.515625
17.0299999,-0.8595184087753296,-6.605602264404297,7.663839817047119,-129.791259765625,78.826904296875,215.75927734375
17.0499999,-1.522712230682373,-7.462726593017578,6.998251438140869,-250.9918212890625,60.4095458984375,136.65771484375
17.0699999,-2.070984363555908,-8.53532886505127,6.931213855743408,-236.4349365234375,71.7620849609375,196.1517333984375
17.089999900000002,-2.4851813316345215,-9.306262016296387,6.797138690948486,-79.7882080078125,35.6597900390625,193.6492919921875
17.109999900000002,-2.784456491470337,-9.627084732055664,7.046135425567627,0.1678466796875,-4.241943359375,158.721923828125
17.1299999,-3.1316158771514893,-9.387664794921875,7.273584842681885,19.59228515625,14.617919921875,156.2042236328125
17.1499999,-3.5218706130981445,-8.841787338256836,7.386112213134766,63.812255859375,-5.31005859375,186.8743896484375
17.1699999,-4.055777549743652,-8.293514251708984,7.378929615020752,53.8482666015625,-29.8309326171875,201.3397216796875
17.1899999,-4.553771495819092,-8.24084186553955,7.266402244567871,3.2806396484375,3.3721923828125,152.2369384765625
17.2099999,-4.891354084014893,-8.463502883911133,7.062894821166992,-72.8302001953125,42.1905517578125,68.0389404296875
17.2299999,-5.295974254608154,-8.791508674621582,6.641515731811523,-92.529296875,38.0401611328125,50.59814453125
17.249999900000002,-5.535394191741943,-9.05247688293457,6.335057735443115,-92.6361083984375,48.583984375,59.2498779296875
17.269999900000002,-5.693411827087402,-8.942343711853027,6.246472358703613,-119.873046875,49.13330078125,61.0504150390625
17.2899999,-5.760449409484863,-8.643068313598633,6.208165168762207,-59.7991943359375,18.218994140625,23.1781005859375
17.3099999,-5.702988624572754,-8.293514251708984,6.323086738586426,47.6837158203125,-17.2271728515625,-11.90185546875
17.3299999,-5.674258232116699,-8.04691219329834,6.380547523498535,103.3782958984375,-28.38134765625,-21.1639404296875
17.3499999,-5.664681434631348,-7.795520782470703,6.291962146759033,95.9320068359375,-52.6580810546875,-15.533447265625
17.3699999,-5.564124584197998,-7.402871608734131,6.536170482635498,83.3892822265625,-56.15234375,-10.31494140625
17.3899999,-5.537788391113281,-7.0341644287109375,6.596025466918945,125.2899169921875,-104.43115234375,-4.913330078125
17.409999900000003,-5.477933406829834,-6.145915985107422,6.648698329925537,151.9622802734375,-142.578125,25.3143310546875
17.429999900000002,-5.355829238891602,-5.2672438621521,6.756437301635742,137.9547119140625,-95.88623046875,49.6826171875
17.4499999,-5.207388877868652,-4.46518611907959,6.971915245056152,198.333740234375,-68.634033203125,37.109375
17.4699999,-5.092466831207275,-3.380612850189209,6.890512466430664,288.87939453125,-146.9268798828125,28.4423828125
17.4899999,-4.795586109161377,-2.6815059185028076,7.3454108238220215,202.545166015625,-128.47900390625,77.178955078125
17.5099999,-4.563348293304443,-2.1499931812286377,7.908048152923584,173.4161376953125,-39.7186279296875,83.19091796875
17.5299999,-4.417302131652832,-1.8531121015548706,8.286332130432129,268.06640625,-77.0111083984375,40.679931640625
17.5499999,-4.168305397033691,-1.742978811264038,8.918401718139648,244.3695068359375,-113.6627197265625,28.25927734375
17.5699999,-4.005499362945557,-1.479616641998291,9.198522567749023,150.5279541015625,-81.298828125,47.42431640625
17.589999900000002,-3.758896589279175,-0.9624691009521484,9.162610054016113,111.5570068359375,-62.68310546875,54.8248291015625
17.609999900000002,-3.6296098232269287,-0.28730419278144836,8.983044624328613,146.7742919921875,-59.75341796875,56.1370849609375
17.6299999,-3.3255462646484375,0.38067805767059326,9.095572471618652,179.19921875,-93.1396484375,45.0897216796875
17.6499999,-3.1483752727508545,0.8547300100326538,9.215282440185547,245.5291748046875,-112.5030517578125,37.5213623046875
17.6699999,-2.9496564865112305,1.4437036514282227,9.239224433898926,292.0379638671875,-112.1673583984375,26.30615234375
17.6899999,-2.6192567348480225,2.0422539710998535,9.57201862335205,287.9791259765625,-76.6754150390625,11.2457275390625
17.7099999,-2.456450939178467,2.765302896499634,9.519346237182617,355.5450439453125,-97.7020263671875,15.5029296875
17.7299999,-2.2002713680267334,3.6966474056243896,8.71489429473877,448.8067626953125,-132.32421875,-4.33349609375
17.749999900000002,-2.1116859912872314,4.587290287017822,7.711723804473877,325.0732421875,-29.0069580078125,-11.0626220703125
17.769999900000002,-1.9967641830444336,5.480327606201172,6.3302693367004395,170.867919921875,62.3626708984375,9.613037109375
17.7899999,-1.9776105880737305,6.258443355560303,5.2480902671813965,206.0089111328125,69.2291259765625,-15.3045654296875
17.8099999,-1.9536685943603516,6.983886241912842,4.8482584953308105,206.085205078125,42.8466796875,-26.2451171875
17.8299999,-2.006340980529785,7.592013359069824,4.67827033996582,183.380126953125,40.863037109375,-0.091552734375
17.8499999,-2.209848165512085,7.982268333435059,4.793191909790039,172.2259521484375,78.06396484375,17.9595947265625
17.8699999,-2.4396915435791016,8.20732307434082,4.888959884643555,150.146484375,75.531005859375,20.99609375
17.8899999,-2.6791117191314697,8.183381080627441,5.03021764755249,105.926513671875,48.248291015625,25.45166015625
17.909999900000003,-2.779668092727661,8.185775756835938,5.1331682205200195,123.748779296875,53.6346435546875,-0.3662109375
17.929999900000002,-2.676717519760132,8.29590892791748,4.900930881500244,174.7283935546875,54.0924072265625,-26.3519287109375
17.9499999,-2.535459518432617,8.429984092712402,4.572925090789795,135.223388671875,21.6827392578125,-1.9378662109375
17.9699999,-2.3319525718688965,8.798690795898438,4.288015365600586,57.9071044921875,-5.4779052734375,7.904052734375
17.9899999,-2.1547815799713135,9.227252960205078,3.885789394378662,42.96875,-27.6031494140625,4.7454833984375
18.0099999,-1.946485996246338,9.785101890563965,3.383007049560547,101.776123046875,-19.1650390625,7.080078125
18.0299999,-1.7525556087493896,10.247182846069336,2.5522189140319824,148.62060546875,-7.62939453125,16.754150390625
18.0499999,-1.558625340461731,10.24239444732666,1.889025092124939,128.692626953125,35.614013671875,9.735107421875
18.0699999,-1.5514427423477173,10.000580787658691,1.4700398445129395,26.67236328125,29.47998046875,-34.5916748046875
18.089999900000002,-1.8124107122421265,9.526528358459473,1.3694833517074585,12.0697021484375,-23.8800048828125,-61.6455078125
18.109999900000002,-2.0422539710998535,9.208099365234375,1.1300631761550903,111.0687255859375,-27.4505615234375,-31.9366455078125
18.1299999,-2.3582887649536133,9.296685218811035,1.1109095811843872,47.210693359375,10.31494140625,-30.4107666015625
18.1499999,-2.499546527862549,9.658209800720215,0.8427590131759644,36.285400390625,24.9786376953125,-26.7181396484375
18.1699999,-2.5761611461639404,10.11550235748291,0.5219359993934631,123.809814453125,23.2696533203125,-0.885009765625
18.1899999,-2.5091233253479004,10.393229484558105,0.29209262132644653,93.44482421875,53.40576171875,21.30126953125
18.2099999,-2.4157495498657227,10.321403503417969,0.05027823522686958,-2.9754638671875,80.2001953125,9.7808837890625
18.2299999,-2.1595699787139893,9.923966407775879,0.040701430290937424,-51.3153076171875,45.4254150390625,-18.7530517578125
18.249999900000002,-2.1116859912872314,9.53849983215332,0.2992752194404602,-17.7001953125,-6.622314453125,-37.2772216796875
18.269999900000002,-1.9991583824157715,9.011775016784668,0.4141969084739685,36.9720458984375,-24.0325927734375,1.2054443359375
18.2899999,-2.0877439975738525,8.992621421813965,0.395043283700943,2.5787353515625,-6.927490234375,5.9967041015625
18.3099999,-2.1595699787139893,8.951920509338379,-0.08379705995321274,-8.0108642578125,-4.852294921875,-0.2288818359375
18.3299999,-2.1547815799713135,9.093177795410156,-0.751779317855835,23.529052734375,-20.0653076171875,9.124755859375
18.3499999,-2.126051187515259,9.205705642700195,-1.2114660739898682,10.5438232421875,2.25830078125,7.6446533203125
18.3699999,-2.1284453868865967,9.299078941345215,-1.623268723487854,-14.3890380859375,11.5814208984375,-2.166748046875
18.3899999,-2.1068975925445557,9.334992408752441,-1.800439715385437,-53.64990234375,1.1444091796875,-5.9661865234375
18.409999900000003,-2.1068975925445557,9.399636268615723,-1.647210717201233,-86.669921875,16.9219970703125,-2.4566650390625
18.429999900000002,-2.054224967956543,9.564835548400879,-1.3982137441635132,-78.3843994140625,9.27734375,-2.716064453125
18.4499999,-1.9632453918457031,9.821015357971191,-1.1971008777618408,-85.5255126953125,-4.7454833984375,-0.0152587890625
18.4699999,-1.845929503440857,10.038887977600098,-0.9744400978088379,-175.689697265625,14.8773193359375,5.79833984375
18.4899999,-1.6879122257232666,10.350133895874023,-0.7613561153411865,-231.414794921875,48.1109619140625,-4.7607421875
18.5099999,-1.5155296325683594,10.553641319274902,-0.45250412821769714,-175.4913330078125,51.422119140625,-13.9923095703125
18.5299999,-1.3838485479354858,10.556035041809082,0.009576806798577309,-132.110595703125,33.4320068359375,-11.444091796875
18.5499999,-1.259350061416626,10.395624160766602,0.5099649429321289,-166.2139892578125,35.614013671875,-10.1318359375
18.5699999,-1.1851298809051514,10.070012092590332,1.091755986213684,-222.0001220703125,62.835693359375,-7.62939453125
18.589999900000002,-1.05105459690094,9.856928825378418,1.7693150043487549,-229.278564453125,62.31689453125,2.50244140625
18.609999900000002,-0.8906430602073669,9.856928825378418,2.4636335372924805,-172.05810546875,33.6761474609375,13.6871337890625
18.6299999,-0.7445967197418213,9.976638793945312,3.2992098331451416,-155.45654296875,21.7742919921875,22.5677490234375
18.6499999,-0.6967126727104187,10.08198356628418,3.993528366088867,-119.537353515625,22.918701171875,24.23095703125
18.6699999,-0.8259995579719543,10.065223693847656,4.4508209228515625,-97.5799560546875,18.9666748046875,22.430419921875
18.6899999,-1.0630255937576294,9.940725326538086,4.977545261383057,-159.7137451171875,34.423828125,24.566650390625
18.7099999,-1.2737152576446533,9.80904483795166,5.317522048950195,-179.2449951171875,12.8173828125,26.3671875
18.7299999,-1.4317326545715332,9.610325813293457,5.638344764709473,-104.248046875,-14.3280029296875,26.702880859375
18.749999900000002,-1.5059528350830078,9.473855972290039,5.726930618286133,-12.8631591796875,-6.3323974609375,24.5819091796875
18.769999900000002,-1.534683346748352,9.220070838928223,5.609614372253418,-8.5601806640625,10.7574462890625,33.4320068359375
18.7899999,-1.5322890281677246,9.057265281677246,5.360617637634277,-78.521728515625,26.3671875,47.8363037109375
18.8099999,-1.522712230682373,8.87051773071289,5.154716491699219,-113.1744384765625,28.1524658203125,59.600830078125
18.8299999,-1.4676456451416016,8.556877136230469,5.272032260894775,-112.091064453125,27.2369384765625,61.5692138671875
18.8499999,-1.3694833517074585,8.111555099487305,5.789179801940918,-109.4207763671875,21.8353271484375,46.966552734375
18.8699999,-1.2401964664459229,7.654263019561768,6.337451934814453,-87.738037109375,-1.678466796875,33.3404541015625
18.8899999,-1.1180921792984009,7.225700855255127,6.873753070831299,-68.511962890625,-5.2947998046875,42.78564453125
18.909999900000003,-1.0127472877502441,6.919242858886719,7.156269073486328,-67.7642822265625,10.1470947265625,63.17138671875
18.929999900000002,-0.9816226959228516,6.6391215324401855,7.237671852111816,-51.055908203125,10.55908203125,69.0155029296875
18.9499999,-0.9624691009521484,6.385335922241211,7.19936466217041,-40.6951904296875,-17.608642578125,51.0101318359375
18.9699999,-0.9552865028381348,6.069301128387451,7.182605266571045,-27.923583984375,-30.3192138671875,38.1927490234375
18.9899999,-0.912190854549408,5.882553577423096,7.079654216766357,-26.275634765625,-18.24951171875,44.2047119140625
19.0099999,-0.8547300100326538,5.758055210113525,6.967126846313477,-53.1158447265625,-5.859375,53.16162109375
19.0299999,-0.7733271718025208,5.628767967224121,6.9695210456848145,-77.850341796875,4.150390625,52.6885986328125
19.0499999,-0.6943184733390808,5.446808815002441,7.103596210479736,-77.789306640625,-10.650634765625,33.0657958984375
19.0699999,-0.5626373887062073,5.284003257751465,7.383718013763428,-57.2662353515625,-26.9012451171875,22.64404296875
19.089999900000002,-0.43095630407333374,5.0254292488098145,7.752425193786621,-42.9229736328125,-13.36669921875,37.90283203125
19.109999900000002,-0.2777273952960968,4.807557106018066,8.090007781982422,-37.7655029296875,-5.4779052734375,42.083740234375
19.1299999,-0.1388636976480484,4.505887508392334,8.389283180236816,-49.3011474609375,-15.5181884765625,27.7557373046875
19.1499999,0.019153613597154617,4.19224739074707,8.671798706054688,-43.88427734375,-18.5699462890625,17.120361328125
19.1699999,0.1412578970193863,3.9600095748901367,8.769960403442383,-4.1351318359375,-9.979248046875,5.79833984375
19.1899999,0.2777273952960968,3.847482204437256,8.722076416015625,-1.129150390625,-4.3182373046875,11.505126953125
19.2099999,0.3878606855869293,3.8810009956359863,8.504204750061035,-18.3868408203125,-0.1373291015625,19.683837890625
19.2299999,0.45010992884635925,3.931279182434082,8.17380428314209,-30.0140380859375,3.23486328125,21.3623046875
19.249999900000002,0.49799394607543945,3.914519786834717,7.939172744750977,-35.5072021484375,8.1024169921875,21.087646484375
19.269999900000002,0.5267243981361389,3.8139634132385254,7.85537576675415,-15.13671875,6.5155029296875,12.939453125
19.2899999,0.5027823448181152,3.6559460163116455,7.881711959838867,15.7928466796875,0.30517578125,-1.6937255859375
19.3099999,0.4381389021873474,3.49314022064209,7.965508937835693,15.716552734375,1.373291015625,-3.692626953125
19.3299999,0.31842881441116333,3.4189200401306152,8.030152320861816,3.7994384765625,9.368896484375,0.030517578125
19.3499999,0.2059013396501541,3.529053211212158,8.128314971923828,-0.5645751953125,22.9034423828125,-6.3018798828125
19.3699999,0.1364694982767105,3.794809579849243,8.310274124145508,-8.544921875,25.0396728515625,-2.1514892578125
19.3899999,0.15083470940589905,4.199429988861084,8.633491516113281,-24.4598388671875,15.3045654296875,11.3525390625
19.409999900000003,0.1843535304069519,4.618414878845215,8.951920509338379,-30.487060546875,9.2315673828125,16.815185546875
19.429999900000002,0.23702596127986908,4.987122058868408,9.244012832641602,-16.0369873046875,17.5933837890625,8.5296630859375
19.4499999,0.26096799969673157,5.252878665924072,9.378087997436523,-10.4522705078125,22.2930908203125,8.026123046875
19.4699999,0.2059013396501541,5.406107425689697,9.279925346374512,-47.637939453125,19.04296875,21.54541015625
19.4899999,0.14604631066322327,5.458779811859131,9.167398452758789,-99.5025634765625,23.0712890625,29.0374755859375
19.5099999,0.05746084079146385,5.3342814445495605,9.10993766784668,-101.4862060546875,24.5513916015625,29.083251953125
19.5299999,0.011971008032560349,5.008669853210449,9.23443603515625,-69.9462890625,6.65283203125,43.212890625
19.5499999,-0.023942016065120697,4.448426723480225,9.509769439697266,-42.327880859375,-19.8822021484375,59.2193603515625
19.5699999,0.023942016065120697,3.890577793121338,9.883264541625977,-22.003173828125,-17.333984375,37.2314453125
19.589999900000002,0.011971008032560349,3.4165258407592773,10.002974510192871,-1.2054443359375,-8.1329345703125,31.585693359375
19.609999900000002,0.014365210197865963,3.2417490482330322,9.983820915222168,-0.579833984375,7.3699951171875,45.0592041015625
19.6299999,-0.031124621629714966,3.2632968425750732,9.804255485534668,-14.2974853515625,21.4996337890625,60.272216796875
19.6499999,-0.12210428714752197,3.3518824577331543,9.5624418258667,-28.8848876953125,29.541015625,75.13427734375
19.6699999,-0.22266076505184174,3.2848446369171143,9.428366661071777,-47.0123291015625,38.26904296875,87.58544921875
19.6899999,-0.31603461503982544,3.07415509223938,9.473855972290039,-35.9954833984375,42.41943359375,93.7347412109375
19.7099999,-0.45250412821769714,2.806004285812378,9.586383819580078,17.4102783203125,37.811279296875,95.5657958984375
19.7299999,-0.6177040338516235,2.5450363159179688,9.725247383117676,22.64404296875,35.6597900390625,96.7864990234375
19.749999900000002,-0.8355764150619507,2.454056739807129,9.828198432922363,15.8233642578125,51.483154296875,92.28515625
19.769999900000002,-1.0797849893569946,2.4803929328918457,9.979032516479492,18.402099609375,54.5654296875,89.141845703125
19.7899999,-1.3000515699386597,2.6886885166168213,9.986215591430664,31.494140625,30.1971435546875,96.3592529296875
19.8099999,-1.4748282432556152,2.9448680877685547,9.885659217834473,16.2506103515625,14.007568359375,108.734130859375
19.8299999,-1.6041151285171509,3.3303346633911133,9.713275909423828,-24.0631103515625,28.8848876953125,108.9324951171875
19.8499999,-1.7381904125213623,3.5721490383148193,9.390059471130371,21.8048095703125,43.5791015625,104.3701171875
19.8699999,-1.8770540952682495,3.7612907886505127,9.119514465332031,39.9322509765625,38.909912109375,109.4512939453125
19.8899999,-1.9823989868164062,3.756502389907837,9.05487060546875,-9.185791015625,36.376953125,124.7711181640625
19.909999900000003,-2.121262788772583,3.5434184074401855,8.851364135742188,33.87451171875,30.120849609375,127.410888671875
19.929999900000002,-2.22660756111145,3.179499864578247,8.621520042419434,94.8638916015625,39.1693115234375,114.80712890625
19.9499999,-2.3343467712402344,2.846705913543701,8.406042098999023,62.5457763671875,61.187744140625,104.06494140625
19.9699999,-2.403778553009033,2.5665841102600098,8.38688850402832,9.9945068359375,54.87060546875,107.2845458984375
19.9899999,-2.4372973442077637,2.5091233253479004,8.489839553833008,76.7059326171875,40.5731201171875,104.248046875
20.0099999,-2.410961151123047,2.6455929279327393,8.678980827331543,152.0233154296875,31.8756103515625,90.423583984375
20.0299999,-2.3989901542663574,2.8610711097717285,8.633491516113281,85.662841796875,34.210205078125,79.7576904296875
20.0499999,-2.408566951751709,3.1100680828094482,8.29590892791748,25.390625,46.051025390625,70.404052734375
20.0699999,-2.449268341064453,3.3638534545898438,7.999027729034424,19.6075439453125,63.995361328125,63.7359619140625
20.089999900000002,-2.5091233253479004,3.5960910320281982,8.006210327148438,4.669189453125,56.0150146484375,61.5081787109375
20.109999900000002,-2.5546131134033203,3.732560396194458,8.339004516601562,20.3399658203125,30.731201171875,55.23681640625
20.1299999,-2.585737943649292,3.7660791873931885,8.731653213500977,90.4998779296875,19.4549560546875,47.5616455078125
