# Time (seconds),Accel_X,Accel_Y,Accel_Z,Gyro_X,Gyro_Y,Gyro_Z
0.0099999,9.512163162231445,0.8044517636299133,2.3367409706115723,-0.335693359375,2.7923583984375,1.068115234375
0.029999900000000003,9.5624418258667,0.751779317855835,2.360682964324951,-0.67138671875,2.7923583984375,0.06103515625
0.0499999,9.591172218322754,0.7158663272857666,2.363077163696289,-1.8768310546875,3.4332275390625,1.3275146484375
0.0699999,9.59596061706543,0.7254431247711182,2.3511061668395996,-2.01416015625,2.685546875,1.1749267578125
0.08999990000000001,9.586383819580078,0.751779317855835,2.360682964324951,-2.2430419921875,3.23486328125,0.701904296875
0.10999990000000001,9.57201862335205,0.7852981686592102,2.3702597618103027,-2.3193359375,1.8310546875,0.9307861328125
0.1299999,9.552865028381348,0.8236053586006165,2.403778553009033,-1.6021728515625,1.8463134765625,0.885009765625
0.14999990000000002,9.533711433410645,0.8475474119186401,2.425326347351074,-0.91552734375,1.3275146484375,0.762939453125
0.1699999,9.509769439697266,0.8667010068893433,2.43011474609375,-0.762939453125,0.6561279296875,0.885009765625
0.1899999,9.48343276977539,0.8810662031173706,2.427720546722412,-0.946044921875,1.5716552734375,0.244140625
0.20999990000000002,9.457097053527832,0.8858546018600464,2.406172752380371,-0.701904296875,1.28173828125,1.220703125
0.2299999,9.433155059814453,0.8858546018600464,2.3798365592956543,-0.4730224609375,0.9918212890625,1.77001953125
0.2499999,9.41639518737793,0.8690952062606812,2.346317768096924,-0.3814697265625,1.8157958984375,1.312255859375
0.2699999,9.41639518737793,0.8355764150619507,2.3247697353363037,-1.129150390625,3.0364990234375,1.312255859375
0.28999990000000003,9.433155059814453,0.7924807667732239,2.31758713722229,-0.762939453125,3.3111572265625,0.9307861328125
0.3099999,9.464279174804688,0.751779317855835,2.3247697353363037,-0.2593994140625,2.3040771484375,0.152587890625
0.3299999,9.495404243469238,0.7350199222564697,2.3582887649536133,-0.79345703125,2.1514892578125,-0.30517578125
0.34999990000000003,9.521739959716797,0.7326257228851318,2.3774423599243164,-0.213623046875,1.52587890625,-0.0762939453125
0.3699999,9.53849983215332,0.7637503147125244,2.408566951751709,-0.79345703125,2.1514892578125,0.1373291015625
0.3899999,9.552865028381348,0.7852981686592102,2.425326347351074,-1.1138916015625,1.15966796875,0.5340576171875
0.40999990000000003,9.550470352172852,0.8212111592292786,2.4420857429504395,-0.823974609375,0.3814697265625,-0.152587890625
0.4299999,9.545681953430176,0.8355764150619507,2.4420857429504395,-0.18310546875,0.1220703125,0.1983642578125
0.4499999,9.526528358459473,0.8451532125473022,2.4181437492370605,-0.213623046875,0.4425048828125,0.335693359375
0.4699999,9.502586364746094,0.8403648138046265,2.382230758666992,-0.6561279296875,0.8392333984375,0.213623046875
0.4899999,9.48343276977539,0.8236053586006165,2.3558945655822754,-0.4119873046875,1.7547607421875,-0.18310546875
0.5099999,9.473855972290039,0.7996633648872375,2.341529369354248,0.396728515625,1.068115234375,-0.2593994140625
0.5299999,9.473855972290039,0.7757213711738586,2.3535003662109375,0.3204345703125,0.91552734375,-0.4730224609375
0.5499999,9.481039047241211,0.7589619159698486,2.382230758666992,-0.091552734375,0.9765625,-0.8697509765625
0.5699999,9.48343276977539,0.7493851184844971,2.403778553009033,0.5340576171875,0.274658203125,-0.9002685546875
0.5899998999999999,9.48343276977539,0.7493851184844971,2.4133553504943848,0.6561279296875,0.0457763671875,-0.8544921875
0.6099998999999999,9.473855972290039,0.7613561153411865,2.3989901542663574,-0.274658203125,0.4425048828125,-0.885009765625
0.6299999,9.459490776062012,0.7709329724311829,2.3750481605529785,-0.457763671875,1.0223388671875,-0.6561279296875
0.6499999,9.445125579833984,0.7876923680305481,2.3511061668395996,-0.335693359375,1.3885498046875,-0.8392333984375
0.6699999,9.435548782348633,0.8020575642585754,2.3295583724975586,0,0.9307861328125,-0.5950927734375
0.6899999,9.433155059814453,0.811634361743927,2.322375535964966,0,1.495361328125,-0.4425048828125
0.7099999,9.433155059814453,0.828393816947937,2.322375535964966,-0.274658203125,2.410888671875,-0.6256103515625
0.7299998999999999,9.44991397857666,0.8236053586006165,2.33913516998291,-0.67138671875,2.2125244140625,0.5035400390625
0.7499998999999999,9.469067573547363,0.8188169598579407,2.365471363067627,-1.3275146484375,1.007080078125,0.4730224609375
0.7699999,9.500192642211914,0.7757213711738586,2.389413356781006,-0.9613037109375,0.4119873046875,-0.1220703125
0.7899999,9.526528358459473,0.7493851184844971,2.4013843536376953,-0.0457763671875,0.6561279296875,-2.13623046875
0.8099999,9.5408935546875,0.727837324142456,2.389413356781006,-0.5035400390625,0.79345703125,-2.044677734375
0.8299999,9.536105155944824,0.7398083209991455,2.367865562438965,-0.518798828125,0.9918212890625,-1.46484375
0.8499998999999999,9.519346237182617,0.7805097699165344,2.3535003662109375,0.30517578125,1.52587890625,-1.800537109375
0.8699998999999999,9.490615844726562,0.828393816947937,2.3487119674682617,-0.6103515625,1.40380859375,-1.2664794921875
0.8899999,9.47146224975586,0.8738836050033569,2.3487119674682617,-0.8697509765625,0.7781982421875,-0.152587890625
0.9099999,9.452308654785156,0.9097966551780701,2.346317768096924,-0.1983642578125,1.312255859375,-0.42724609375
0.9299999,9.452308654785156,0.9169792532920837,2.3367409706115723,0.3509521484375,1.708984375,-0.762939453125
0.9499999,9.461885452270508,0.9145850539207458,2.3367409706115723,0.2288818359375,2.13623046875,-1.28173828125
0.9699998999999999,9.476250648498535,0.9169792532920837,2.3535003662109375,0.5035400390625,1.9073486328125,-1.89208984375
0.9899998999999999,9.497797966003418,0.9145850539207458,2.38462495803833,0.3662109375,0.885009765625,-0.6103515625
1.0099999,9.50737476348877,0.933738648891449,2.389413356781006,0.7171630859375,-0.6256103515625,-0.2899169921875
1.0299999,9.50498104095459,0.9600749015808105,2.365471363067627,1.2054443359375,0.091552734375,-0.701904296875
1.0499999,9.500192642211914,0.9888052940368652,2.3295583724975586,0.6866455078125,2.50244140625,-0.1068115234375
1.0699999,9.48343276977539,1.0295066833496094,2.293645143508911,0.244140625,1.77001953125,0.518798828125
1.0899999,9.48343276977539,1.0438719987869263,2.300827741622925,0.1373291015625,0.3509521484375,1.434326171875
1.1099999,9.48343276977539,1.0654197931289673,2.341529369354248,1.6021728515625,0.946044921875,0.518798828125
1.1299999,9.495404243469238,1.039083480834961,2.38462495803833,0.701904296875,0.396728515625,1.9989013671875
1.1499999,9.50498104095459,0.9888052940368652,2.3989901542663574,0.762939453125,-1.007080078125,2.38037109375
1.1699998999999999,9.50737476348877,0.9265560507774353,2.4013843536376953,1.4190673828125,0.6103515625,0.06103515625
1.1899998999999999,9.50498104095459,0.8619126081466675,2.3798365592956543,0.8392333984375,1.5716552734375,-0.518798828125
1.2099999,9.495404243469238,0.8188169598579407,2.367865562438965,0.335693359375,0.8392333984375,1.0528564453125
1.2299999,9.488221168518066,0.8092401623725891,2.360682964324951,0.7476806640625,0.244140625,0.9613037109375
1.2499999,9.485827445983887,0.8140285611152649,2.367865562438965,0.79345703125,1.2054443359375,0.2899169921875
1.2699999,9.485827445983887,0.8355764150619507,2.3774423599243164,-0.3509521484375,1.2664794921875,0.67138671875
1.2899999,9.490615844726562,0.8451532125473022,2.389413356781006,0.2288818359375,0.396728515625,1.77001953125
1.3099999,9.485827445983887,0.8667010068893433,2.3918075561523438,0.6866455078125,-0.213623046875,1.434326171875
1.3299999,9.481039047241211,0.8643068075180054,2.3774423599243164,-0.4425048828125,0,1.6632080078125
1.3499999,9.473855972290039,0.8595184087753296,2.3511061668395996,-0.244140625,1.0528564453125,1.861572265625
1.3699999,9.466673851013184,0.8523358106613159,2.3271639347076416,0.213623046875,1.46484375,1.7547607421875
1.3899999,9.466673851013184,0.8403648138046265,2.322375535964966,0.213623046875,1.0528564453125,2.3345947265625
1.4099999,9.473855972290039,0.8212111592292786,2.3271639347076416,0.18310546875,-0.0762939453125,2.716064453125
1.4299998999999999,9.48343276977539,0.7996633648872375,2.341529369354248,-0.1373291015625,0.091552734375,2.25830078125
1.4499999,9.488221168518066,0.7733271718025208,2.3319525718688965,0.0762939453125,0.4425048828125,1.89208984375
1.4699999,9.485827445983887,0.7541735172271729,2.322375535964966,0.9307861328125,1.0986328125,1.708984375
1.4899999,9.481039047241211,0.751779317855835,2.3032219409942627,0.8087158203125,1.3427734375,1.8768310546875
1.5099999,9.478644371032715,0.7398083209991455,2.2864625453948975,0.67138671875,0.4730224609375,2.6397705078125
1.5299999,9.476250648498535,0.7422025203704834,2.279279947280884,0.06103515625,1.129150390625,1.708984375
1.5499999,9.478644371032715,0.7445967197418213,2.2888567447662354,0.3204345703125,2.105712890625,1.2359619140625
1.5699999,9.48343276977539,0.7493851184844971,2.300827741622925,0.335693359375,0.9307861328125,2.1209716796875
1.5899999,9.490615844726562,0.751779317855835,2.3247697353363037,0.6561279296875,0.9307861328125,2.6397705078125
1.6099999,9.50498104095459,0.751779317855835,2.346317768096924,0.335693359375,1.3275146484375,2.0599365234375
1.6299999,9.521739959716797,0.7230489253997803,2.363077163696289,0.5645751953125,0.79345703125,1.9989013671875
1.6499999,9.533711433410645,0.6967126727104187,2.365471363067627,0.8544921875,-0.1983642578125,2.01416015625
1.6699999,9.531316757202148,0.667982280254364,2.343923568725586,1.15966796875,-0.6256103515625,1.129150390625
1.6899998999999999,9.521739959716797,0.6440402865409851,2.3080103397369385,0.6561279296875,1.190185546875,1.3580322265625
1.7099999,9.497797966003418,0.6440402865409851,2.2649147510528564,-0.1678466796875,1.5869140625,0.9307861328125
1.7299999,9.485827445983887,0.6512228846549988,2.250549554824829,-0.3204345703125,2.0599365234375,1.007080078125
1.7499999,9.478644371032715,0.6799532771110535,2.2649147510528564,-0.2899169921875,1.495361328125,0.9918212890625
1.7699999,9.478644371032715,0.7015010714530945,2.279279947280884,-0.2899169921875,-0.030517578125,1.861572265625
1.7899999,9.476250648498535,0.7206547260284424,2.27209734916687,-0.91552734375,-0.152587890625,1.953125
1.8099999,9.476250648498535,0.7230489253997803,2.252943754196167,-1.739501953125,1.8768310546875,1.40380859375
1.8299999,9.47146224975586,0.730231523513794,2.207453966140747,-1.77001953125,2.01416015625,1.2359619140625
1.8499999,9.478644371032715,0.7254431247711182,2.22660756111145,-1.6326904296875,3.5400390625,1.8768310546875
1.8699999,9.488221168518066,0.7374141216278076,2.2601263523101807,-0.1373291015625,2.62451171875,1.2969970703125
1.8899999,9.50498104095459,0.7422025203704834,2.3367409706115723,0.152587890625,1.617431640625,1.28173828125
1.9099999,9.524134635925293,0.7541735172271729,2.3918075561523438,0.54931640625,1.15966796875,1.739501953125
1.9299998999999999,9.53849983215332,0.7493851184844971,2.4229321479797363,0.274658203125,1.2359619140625,2.6397705078125
1.9499999,9.545681953430176,0.7350199222564697,2.4013843536376953,0.7781982421875,0.244140625,2.4566650390625
1.9699999,9.552865028381348,0.6967126727104187,2.3798365592956543,0.152587890625,1.46484375,1.373291015625
1.9899999,9.550470352172852,0.667982280254364,2.3558945655822754,-0.6866455078125,1.312255859375,1.2969970703125
2.0099999,9.5408935546875,0.6488286852836609,2.343923568725586,-0.18310546875,0.0457763671875,1.556396484375
2.0299999,9.526528358459473,0.6536170840263367,2.341529369354248,0.885009765625,0.030517578125,1.7242431640625
2.0499999,9.50737476348877,0.6703764796257019,2.3319525718688965,0.7171630859375,0.5340576171875,1.861572265625
2.0699999,9.493009567260742,0.6775590777397156,2.3104045391082764,0.3814697265625,1.190185546875,2.105712890625
2.0899999,9.476250648498535,0.6967126727104187,2.296039342880249,0.213623046875,1.6326904296875,1.251220703125
2.1099999,9.47146224975586,0.6967126727104187,2.2888567447662354,-0.1678466796875,1.28173828125,2.8228759765625
2.1299999,9.466673851013184,0.6871358752250671,2.27209734916687,-0.244140625,0.0457763671875,3.7078857421875
2.1499999,9.47146224975586,0.6631938815116882,2.255337953567505,0.030517578125,0.6866455078125,2.99072265625
2.1699999,9.485827445983887,0.6105214357376099,2.2409727573394775,-0.335693359375,2.3956298828125,2.2430419921875
2.1899999,9.502586364746094,0.5650315880775452,2.2146365642547607,-0.6256103515625,1.77001953125,1.0833740234375
2.2099999,9.519346237182617,0.5410895943641663,2.2170307636260986,-0.579833984375,1.7242431640625,0.2899169921875
2.2299999,9.528923034667969,0.5482721924781799,2.2146365642547607,-0.457763671875,2.1514892578125,1.220703125
2.2499999,9.521739959716797,0.6009446382522583,2.1499931812286377,-0.8392333984375,-0.9765625,2.5177001953125
2.2699999,9.524134635925293,0.6272808313369751,2.070984363555908,-0.885009765625,1.15966796875,4.364013671875
2.2899999,9.5408935546875,0.6272808313369751,1.9584569931030273,-2.777099609375,4.1351318359375,3.997802734375
2.3099999,9.569623947143555,0.5913678407669067,1.8291701078414917,-2.0599365234375,1.1749267578125,2.105712890625
2.3299999,9.59835433959961,0.5985504388809204,1.8052281141281128,-3.3721923828125,1.1749267578125,1.2969970703125
2.3499999,9.583989143371582,0.6488286852836609,1.6903064250946045,-5.523681640625,-11.871337890625,7.781982421875
2.3699999,9.509769439697266,0.7230489253997803,1.6184803247451782,-4.180908203125,-23.9715576171875,14.7552490234375
2.3899999,9.452308654785156,0.629675030708313,1.4508862495422363,-9.063720703125,-29.7698974609375,14.46533203125
2.4099999,9.363722801208496,0.5195417404174805,1.0606313943862915,-7.3089599609375,-47.9278564453125,1.77001953125
2.4299999,9.402029991149902,0.22744916379451752,0.8307880163192749,-10.1165771484375,-29.60205078125,-4.9285888671875
2.4499999,9.481039047241211,0.06224924325942993,0.4405331015586853,-21.148681640625,-37.200927734375,-3.509521484375
2.4699999,9.674968719482422,-0.05746084079146385,0.19153612852096558,-20.4925537109375,-45.684814453125,-2.0294189453125
2.4899999,9.976638793945312,-0.21308395266532898,0.05506663769483566,-18.4783935546875,-25.604248046875,-0.8544921875
2.5099999,10.280701637268066,-0.26096799969673157,-0.12210428714752197,-18.341064453125,-25.1007080078125,-8.636474609375
2.5299999,10.599130630493164,-0.2753331959247589,-0.304063618183136,-29.47998046875,-31.280517578125,-4.7454833984375
2.5499999,10.790667533874512,0.004788403399288654,-0.5889736413955688,-34.85107421875,-35.3546142578125,3.72314453125
2.5699999,10.699687004089355,0.6320692300796509,-1.113303780555725,-20.01953125,-36.6058349609375,9.002685546875
2.5899999,10.51054573059082,1.192312479019165,-1.7310078144073486,-11.4898681640625,-28.350830078125,28.8543701171875
2.6099999,10.15141487121582,1.5849615335464478,-2.3319525718688965,-19.775390625,0.2288818359375,44.7998046875
2.6299999,9.825803756713867,1.599326729774475,-2.8826189041137695,-31.8450927734375,0.457763671875,41.1529541015625
2.6499999,9.643844604492188,1.2401964664459229,-3.071760892868042,-35.4461669921875,16.998291015625,40.374755859375
2.6699999,9.57201862335205,0.706289529800415,-3.0765492916107178,-10.650634765625,36.285400390625,35.0494384765625
2.6899999,9.63187313079834,0.047884032130241394,-2.674323320388794,1.15966796875,54.7332763671875,24.3988037109375
2.7099999,9.763554573059082,-0.4836287498474121,-1.8842366933822632,-27.7252197265625,53.802490234375,19.195556640625
2.7299999,9.907206535339355,-0.7469909191131592,-0.7206547260284424,-48.095703125,43.243408203125,27.7557373046875
2.7499999,10.036493301391602,-0.9744400978088379,0.6200982332229614,-19.989013671875,35.9649658203125,38.1927490234375
2.7699999,10.204087257385254,-1.1468225717544556,2.0374655723571777,18.280029296875,50.4150390625,16.0064697265625
2.7899999,10.393229484558105,-1.5107412338256836,3.5170822143554688,19.134521484375,63.232421875,-20.4010009765625
2.8099999,10.508151054382324,-1.6879122257232666,4.709394931793213,-4.1351318359375,17.9901123046875,-27.89306640625
2.8299999,10.376470565795898,-1.745373010635376,5.4252610206604,-24.993896484375,-29.6173095703125,-0.823974609375
2.8499999,9.706093788146973,-1.5059528350830078,4.8937482833862305,-16.1895751953125,-47.454833984375,18.707275390625
2.8699999,8.667010307312012,-1.6280571222305298,3.4548330307006836,-18.3868408203125,11.1083984375,19.1650390625
2.8899999,7.3454108238220215,-2.070984363555908,1.7836803197860718,-25.0091552734375,98.541259765625,-8.697509765625
2.9099999,6.0597243309021,-2.6839001178741455,0.7493851184844971,-19.8211669921875,124.786376953125,-39.0472412109375
2.9299999,5.12119722366333,-2.9305028915405273,1.039083480834961,-33.7066650390625,124.9237060546875,-28.2440185546875
2.9499999,4.898536682128906,-2.8826189041137695,2.9161376953125,-63.995361328125,154.96826171875,14.556884765625
2.9699999,5.5760955810546875,-2.4899697303771973,5.681440830230713,-58.53271484375,156.463623046875,18.1884765625
2.9899999,7.1921820640563965,-1.9081788063049316,8.954314231872559,-27.2979736328125,103.759765625,-20.538330078125
3.0099999,9.220070838928223,-1.0821791887283325,12.030863761901855,-8.9569091796875,41.748046875,-33.8287353515625
3.0299999,10.65898609161377,0.07900865375995636,13.57751750946045,6.561279296875,-41.4886474609375,-17.5018310546875
3.0499999,10.994174003601074,1.015141487121582,13.086706161499023,15.716552734375,-89.599609375,27.6641845703125
3.0699999,10.105925559997559,1.2258312702178955,10.582371711730957,1.6326904296875,-56.7779541015625,52.3529052734375
3.0899999,8.664615631103516,0.3495534360408783,6.904877662658691,-6.2255859375,-5.0506591796875,31.2957763671875
3.1099999,7.443572998046875,-1.070208191871643,3.7445313930511475,-10.009765625,41.1529541015625,-9.2315673828125
3.1299999,6.892906665802002,-2.1116859912872314,1.8148049116134644,-6.6070556640625,35.308837890625,-38.5894775390625
3.1499999,7.082048416137695,-2.2697031497955322,1.7501614093780518,-2.44140625,24.6124267578125,-25.115966796875
3.1699999,7.5848307609558105,-1.4939818382263184,2.5306711196899414,1.678466796875,-4.7607421875,4.7607421875
3.1899999,8.157045364379883,-0.5195417404174805,3.584120035171509,-0.946044921875,-20.3094482421875,28.717041015625
3.2099999,8.628703117370605,0.040701430290937424,4.173093795776367,-10.0860595703125,-10.7879638671875,37.0330810546875
3.2299999,9.045293807983398,-0.17477671802043915,4.390965938568115,-13.0767822265625,11.688232421875,26.763916015625
3.2499999,9.409213066101074,-0.751779317855835,4.326322555541992,-1.40380859375,12.359619140625,-2.532958984375
3.2699999,9.744400978088379,-1.3072341680526733,4.338293552398682,2.5634765625,-0.4119873046875,-20.9197998046875
3.2899999,9.96945571899414,-1.4628572463989258,4.477157115936279,0.3509521484375,-2.044677734375,-10.9710693359375
3.3099999,9.976638793945312,-1.2641384601593018,4.486733913421631,3.2806396484375,-9.4451904296875,1.0528564453125
3.3299999000000002,9.81143856048584,-0.933738648891449,4.448426723480225,5.5084228515625,-8.6822509765625,3.9520263671875
3.3499999,9.519346237182617,-0.7038952708244324,4.185064792633057,3.875732421875,-7.6751708984375,-1.28173828125
3.3699999,9.210494041442871,-0.6919242739677429,3.8810009956359863,1.0986328125,-2.6092529296875,0.091552734375
3.3899999,8.927978515625,-0.7134721279144287,3.5266590118408203,-3.11279296875,0.3814697265625,0.274658203125
3.4099999,8.774748802185059,-0.8092401623725891,3.3423056602478027,-4.364013671875,3.8909912109375,0.946044921875
3.4299999,8.736441612243652,-0.8954314589500427,3.3255462646484375,-3.448486328125,5.4168701171875,2.4261474609375
3.4499999,8.765172004699707,-0.9241618514060974,3.4093432426452637,-0.457763671875,-3.35693359375,0.1068115234375
3.4699999,8.820239067077637,-0.9289502501487732,3.5913026332855225,-0.885009765625,-2.0904541015625,1.617431640625
3.4899999,8.848969459533691,-0.9409212470054626,3.711012601852417,-2.197265625,-0.2288818359375,6.7291259765625
3.5099999,8.846575736999512,-0.9911994934082031,3.7708675861358643,-1.8157958984375,-1.861572265625,6.6986083984375
3.5299999,8.83939266204834,-1.0797849893569946,3.8163576126098633,-1.0223388671875,0.06103515625,1.0528564453125
3.5499999,8.822632789611816,-1.1659762859344482,3.8283286094665527,-0.6103515625,-0.0457763671875,-0.5950927734375
3.5699999,8.803479194641113,-1.2234370708465576,3.847482204437256,-1.495361328125,-1.220703125,3.5400390625
3.5899999,8.772355079650879,-1.194706678390503,3.8307228088378906,-2.38037109375,-3.2958984375,3.5552978515625
3.6099999,8.767566680908203,-1.1899182796478271,3.845088005065918,-3.6468505859375,0.1220703125,4.7607421875
3.6299999,8.774748802185059,-1.213860273361206,3.818751811981201,-3.5400390625,-0.2593994140625,5.2642822265625
3.6499999,8.813055992126465,-1.292868971824646,3.799597978591919,-5.0201416015625,-1.40380859375,3.23486328125
3.6699999,8.863334655761719,-1.3431471586227417,3.8067808151245117,-6.3934326171875,1.8768310546875,-1.15966796875
3.6899999,8.918401718139648,-1.3455413579940796,3.818751811981201,-3.5552978515625,2.6092529296875,-1.8768310546875
3.7099999,8.978256225585938,-1.278503656387329,3.8522706031799316,-0.701904296875,0.5950927734375,1.0223388671875
3.7299999,9.030928611755371,-1.1779472827911377,3.883395195007324,0.8087158203125,-1.40380859375,2.471923828125
3.7499999,9.05487060546875,-1.1180921792984009,3.8738183975219727,-0.06103515625,-2.655029296875,2.9296875
3.7699999,9.05487060546875,-1.1468225717544556,3.818751811981201,-0.9765625,-2.62451171875,3.23486328125
3.7899999,9.011775016784668,-1.1875240802764893,3.7205893993377686,-0.6256103515625,-1.2664794921875,0.8087158203125
3.8099999,8.949525833129883,-1.2449848651885986,3.624821424484253,-0.6256103515625,0.06103515625,1.0833740234375
3.8299999000000002,8.884882926940918,-1.2976573705673218,3.555389642715454,-0.91552734375,2.1820068359375,3.021240234375
3.8499999,8.829815864562988,-1.3239935636520386,3.5027170181274414,-1.52587890625,0.701904296875,2.01416015625
3.8699999,8.815450668334961,-1.3766659498214722,3.512293815612793,-3.7689208984375,2.899169921875,0.946044921875
3.8899999,8.825027465820312,-1.403002142906189,3.536235809326172,-4.6539306640625,4.3182373046875,-0.274658203125
3.9099999,8.877699851989746,-1.4173674583435059,3.6152446269989014,-3.448486328125,5.31005859375,-1.8463134765625
3.9299999,8.932766914367676,-1.359906554222107,3.734954595565796,-1.6021728515625,5.5389404296875,-2.5634765625
3.9499999,8.98543930053711,-1.2713210582733154,3.8331170082092285,0.579833984375,0.4425048828125,-0.6256103515625
3.9699999,9.01895809173584,-1.192312479019165,3.9169139862060547,0.4425048828125,1.15966796875,2.9296875
3.9899999,9.028534889221191,-1.1468225717544556,3.907337188720703,0.67138671875,1.1138916015625,2.8228759765625
4.0099999,9.035717010498047,-1.170764684677124,3.8594532012939453,-1.6632080078125,2.62451171875,2.655029296875
4.029999900000001,9.062053680419922,-1.2856862545013428,3.8091750144958496,-1.40380859375,3.814697265625,3.173828125
4.0499999,9.0859956741333,-1.3670891523361206,3.7612907886505127,0.8087158203125,2.3345947265625,-0.8544921875
4.069999900000001,9.117119789123535,-1.4437036514282227,3.756502389907837,0.9918212890625,1.03759765625,-2.1209716796875
4.0899999000000005,9.119514465332031,-1.4532804489135742,3.7397429943084717,-0.274658203125,0.762939453125,0.518798828125
4.1099999,9.081207275390625,-1.41257905960083,3.7205893993377686,-0.4119873046875,0.5645751953125,2.3956298828125
4.1299999000000005,9.033323287963867,-1.3910311460494995,3.6822822093963623,-0.091552734375,1.1138916015625,4.669189453125
4.1499999,8.990227699279785,-1.403002142906189,3.6727054119110107,0.5950927734375,3.448486328125,3.1585693359375
4.1699999000000005,8.973467826843262,-1.4389152526855469,3.6727054119110107,0.640869140625,3.631591796875,0.4730224609375
4.1899999,8.987833023071289,-1.4460978507995605,3.7397429943084717,-0.5035400390625,4.119873046875,0.06103515625
4.209999900000001,9.009381294250488,-1.381454348564148,3.8115692138671875,-0.274658203125,0.2288818359375,2.44140625
4.2299999,9.02135181427002,-1.3024457693099976,3.9025487899780273,0.213623046875,-0.6866455078125,6.8511962890625
4.249999900000001,9.016563415527344,-1.2545616626739502,3.931279182434082,-0.1678466796875,-2.197265625,7.843017578125
4.2699999,9.002198219299316,-1.314416766166687,3.9169139862060547,-0.5645751953125,-1.190185546875,4.8980712890625
4.289999900000001,8.96149730682373,-1.4053963422775269,3.8307228088378906,1.495361328125,0.7476806640625,-0.18310546875
4.3099999,8.937555313110352,-1.50355863571167,3.780444383621216,1.251220703125,4.2572021484375,-0.6256103515625
4.329999900000001,8.901641845703125,-1.5275006294250488,3.711012601852417,1.0986328125,2.50244140625,0.5340576171875
4.3499999,8.880094528198242,-1.50355863571167,3.7205893993377686,1.953125,2.8839111328125,0.0457763671875
4.369999900000001,8.868123054504395,-1.460463047027588,3.7205893993377686,1.9683837890625,2.838134765625,-0.1373291015625
4.3899999,8.851364135742188,-1.3958195447921753,3.7421371936798096,0.8392333984375,2.2735595703125,0.1220703125
4.409999900000001,8.844181060791016,-1.3718775510787964,3.754108190536499,1.434326171875,3.5247802734375,2.197265625
4.4299999,8.834604263305664,-1.3503297567367554,3.751713991165161,3.4637451171875,4.4708251953125,1.7852783203125
4.449999900000001,8.848969459533691,-1.3718775510787964,3.8139634132385254,4.180908203125,7.354736328125,0.5645751953125
4.4699999,8.863334655761719,-1.3694833517074585,3.864241600036621,3.936767578125,4.0740966796875,-1.46484375
4.489999900000001,8.875306129455566,-1.3479355573654175,3.9624037742614746,4.791259765625,0.7781982421875,0.3814697265625
4.5099999,8.863334655761719,-1.3192051649093628,3.9815573692321777,3.0975341796875,-1.708984375,4.33349609375
4.529999900000001,8.825027465820312,-1.2976573705673218,3.9600095748901367,2.3956298828125,-0.7781982421875,4.7607421875
4.5499999,8.779537200927734,-1.3335703611373901,3.8786067962646484,2.8839111328125,4.5166015625,3.570556640625
4.569999900000001,8.736441612243652,-1.4173674583435059,3.7852327823638916,1.8157958984375,2.86865234375,3.509521484375
4.5899999000000005,8.71489429473877,-1.5083470344543457,3.7158010005950928,1.8310546875,0.6103515625,2.655029296875
4.609999900000001,8.702922821044922,-1.5514427423477173,3.663128614425659,0.79345703125,1.2359619140625,0.3509521484375
4.6299999000000005,8.722076416015625,-1.5658079385757446,3.663128614425659,0.030517578125,4.3487548828125,3.3416748046875
4.6499999,8.757989883422852,-1.522712230682373,3.667917013168335,1.1138916015625,3.90625,5.0048828125
4.6699999000000005,8.820239067077637,-1.4867992401123047,3.7253777980804443,1.0986328125,3.173828125,5.43212890625
4.6899999,8.899248123168945,-1.4748282432556152,3.8067808151245117,-1.129150390625,4.0130615234375,6.134033203125
4.709999900000001,8.992621421813965,-1.4939818382263184,3.9193081855773926,-1.9989013671875,4.638671875,6.1492919921875
4.7299999,9.074024200439453,-1.4867992401123047,4.077325344085693,-1.3885498046875,2.4261474609375,4.547119140625
4.749999900000001,9.14585018157959,-1.460463047027588,4.242525577545166,1.9683837890625,-3.4332275390625,5.523681640625
4.7699999,9.193734169006348,-1.4221558570861816,4.410119533538818,4.486083984375,-4.364013671875,8.0718994140625
4.789999900000001,9.20091724395752,-1.414973258972168,4.503493309020996,7.14111328125,-7.14111328125,8.8348388671875
4.8099999,9.160215377807617,-1.460463047027588,4.505887508392334,8.575439453125,-8.4075927734375,5.3863525390625
4.829999900000001,9.071630477905273,-1.5466543436050415,4.4077253341674805,10.467529296875,-6.195068359375,2.349853515625
4.8499999,8.942343711853027,-1.6639702320098877,4.2090067863464355,14.2822265625,-0.2288818359375,1.2969970703125
4.869999900000001,8.765172004699707,-1.7262194156646729,3.993528366088867,18.5546875,10.3759765625,-1.983642578125
4.8899999,8.592789649963379,-1.766920804977417,3.8139634132385254,20.965576171875,23.406982421875,-3.8604736328125
4.909999900000001,8.434772491455078,-1.778891921043396,3.8163576126098633,21.2554931640625,34.1033935546875,-6.8206787109375
4.9299999,8.283937454223633,-1.766920804977417,4.039018154144287,18.5699462890625,35.736083984375,-11.6119384765625
4.949999900000001,8.190564155578613,-1.6376339197158813,4.355052947998047,14.7552490234375,22.2625732421875,-18.06640625
4.9699999,8.02536392211914,-1.4939818382263184,4.788403511047363,7.0648193359375,14.556884765625,-11.23046875
4.989999900000001,7.869740962982178,-1.3551181554794312,4.876988887786865,7.75146484375,-5.3863525390625,2.3040771484375
5.0099999,7.716512203216553,-1.3048399686813354,4.8722004890441895,3.5400390625,6.0272216796875,3.9215087890625
5.029999900000001,7.5968017578125,-1.335964560508728,4.623203277587891,5.828857421875,19.9737548828125,-5.7525634765625
5.0499999,7.637503623962402,-1.4628572463989258,4.405331134796143,4.6844482421875,21.1181640625,-4.5318603515625
5.069999900000001,7.754819393157959,-1.3982137441635132,4.381389141082764,0.7781982421875,21.331787109375,-3.4637451171875
5.0899999000000005,7.939172744750977,-1.2282254695892334,4.3861775398254395,3.35693359375,4.3487548828125,2.44140625
5.109999900000001,8.20492935180664,-1.1516109704971313,4.611232280731201,-4.9285888671875,8.087158203125,21.42333984375
5.1299999000000005,8.465897560119629,-1.1444283723831177,4.730942726135254,-1.007080078125,4.21142578125,16.143798828125
5.1499999,8.710105895996094,-1.314416766166687,4.853046894073486,10.589599609375,-2.288818359375,-3.3416748046875
5.1699999000000005,8.916007041931152,-1.5490485429763794,4.903325080871582,11.6424560546875,0.4425048828125,-7.4005126953125
5.1899999,8.995016098022461,-1.6041151285171509,4.857835292816162,8.97216796875,-1.9683837890625,-6.378173828125
5.209999900000001,9.01895809173584,-1.5753847360610962,4.821922302246094,4.21142578125,0.1983642578125,-2.0904541015625
5.2299999,9.02135181427002,-1.482010841369629,4.898536682128906,-1.15966796875,2.197265625,-2.4871826171875
5.249999900000001,9.006986618041992,-1.3455413579940796,4.967968463897705,7.080078125,-10.68115234375,-10.5438232421875
5.2699999,8.980650901794434,-1.235408067703247,4.98472785949707,13.519287109375,-20.6756591796875,-12.5885009765625
5.289999900000001,8.942343711853027,-1.1444283723831177,4.879383087158203,10.31494140625,-10.9710693359375,-9.735107421875
5.3099999,8.925583839416504,-1.0606313943862915,4.733336925506592,3.1280517578125,3.90625,-10.6964111328125
5.329999900000001,8.947132110595703,-0.9576807022094727,4.627991676330566,2.288818359375,-3.6773681640625,-15.0604248046875
5.3499999,9.016563415527344,-0.8331822156906128,4.671087741851807,6.8817138671875,-16.510009765625,-13.1683349609375
5.369999900000001,9.107542991638184,-0.7038952708244324,4.817133903503418,7.904052734375,-17.364501953125,-5.8135986328125
5.3899999,9.181763648986816,-0.5841852426528931,4.967968463897705,2.44140625,-18.2647705078125,-2.9296875
5.409999900000001,9.224859237670898,-0.5770025849342346,4.994304656982422,-0.4119873046875,-31.0516357421875,-3.47900390625
5.4299999,9.27034854888916,-0.6919242739677429,4.8937482833862305,0.7171630859375,-31.0516357421875,-1.800537109375
5.449999900000001,9.260771751403809,-0.7852981686592102,4.6734819412231445,3.1585693359375,-17.791748046875,-12.5732421875
5.4699999,9.20091724395752,-0.8307880163192749,4.288015365600586,12.3443603515625,-14.984130859375,-21.4691162109375
5.489999900000001,9.117119789123535,-0.7398083209991455,4.005499362945557,7.4310302734375,-15.0299072265625,-17.303466796875
5.5099999,9.057265281677246,-0.6248866319656372,3.8953661918640137,-8.48388671875,-14.7705078125,-2.9754638671875
5.529999900000001,9.081207275390625,-0.5267243981361389,3.9408559799194336,-6.9122314453125,-26.763916015625,0.54931640625
5.5499999,9.157821655273438,-0.44532153010368347,4.060565948486328,3.90625,-35.400390625,-9.0179443359375
5.569999900000001,9.248801231384277,-0.38546648621559143,4.067748546600342,10.8489990234375,-36.0870361328125,-11.8408203125
5.5899999000000005,9.32302188873291,-0.30885201692581177,3.97916316986084,6.2713623046875,-22.8729248046875,-2.8839111328125
5.609999900000001,9.35654067993164,-0.2992752194404602,3.821146011352539,2.7313232421875,-22.369384765625,1.7242431640625
5.6299999000000005,9.368511199951172,-0.38546648621559143,3.5913026332855225,4.94384765625,-35.4461669921875,-1.9378662109375
5.6499999,9.373299598693848,-0.586579442024231,3.361459255218506,3.631591796875,-32.3944091796875,-7.354736328125
5.6699999000000005,9.378087997436523,-0.7350199222564697,3.1196448802948,-2.4261474609375,-15.899658203125,-9.82666015625
5.6899999,9.346963882446289,-0.6943184733390808,2.8658595085144043,-0.5950927734375,-12.8173828125,-12.6800537109375
5.709999900000001,9.327810287475586,-0.5913678407669067,2.7293899059295654,4.94384765625,-18.585205078125,-3.23486328125
5.7299999,9.277531623840332,-0.4596867263317108,2.628833532333374,5.2490234375,-19.622802734375,0.946044921875
5.749999900000001,9.239224433898926,-0.4165911078453064,2.540247917175293,6.195068359375,-11.6729736328125,-4.180908203125
5.7699999,9.198522567749023,-0.45250412821769714,2.473210334777832,2.99072265625,-0.762939453125,-8.9569091796875
5.789999900000001,9.17936897277832,-0.4620809257030487,2.3367409706115723,3.9825439453125,-2.5177001953125,-7.293701171875
5.8099999,9.198522567749023,-0.4429273009300232,2.4684219360351562,-3.8909912109375,10.31494140625,1.28173828125
5.829999900000001,9.210494041442871,-0.33279404044151306,2.5306711196899414,-3.60107421875,0.4730224609375,2.9296875
5.8499999,9.196128845214844,-0.26815059781074524,2.58813214302063,7.4310302734375,-13.214111328125,5.218505859375
5.869999900000001,9.17936897277832,-0.3064578175544739,2.604891538619995,3.1890869140625,4.0740966796875,8.880615234375
5.8899999,9.188945770263672,-0.4118026793003082,2.5474305152893066,-3.4637451171875,16.754150390625,7.75146484375
5.909999900000001,9.210494041442871,-0.4812345504760742,2.631227731704712,-12.1002197265625,11.688232421875,1.6021728515625
5.9299999,9.308655738830566,-0.6272808313369751,2.715024709701538,-4.150390625,-9.46044921875,8.514404296875
5.949999900000001,9.411606788635254,-0.7206547260284424,2.7772738933563232,4.8675537109375,-10.101318359375,7.110595703125
5.9699999,9.428366661071777,-0.6703764796257019,2.7988216876983643,-3.265380859375,15.6707763671875,-8.7127685546875
5.989999900000001,9.418789863586426,-0.6560112833976746,2.5258827209472656,2.1209716796875,10.101318359375,-2.2125244140625
6.0099999,9.397241592407227,-0.5578489899635315,2.449268341064453,-0.0457763671875,20.8740234375,9.7198486328125
6.029999900000001,9.368511199951172,-0.4884171485900879,2.5330653190612793,-12.054443359375,36.4227294921875,2.9296875
6.0499999,9.435548782348633,-0.586579442024231,2.7030537128448486,4.1351318359375,13.214111328125,-4.45556640625
6.069999900000001,9.490615844726562,-0.6703764796257019,3.1076738834381104,4.3487548828125,7.7362060546875,-11.71875
6.0899999000000005,9.552865028381348,-0.790086567401886,3.335123062133789,3.570556640625,1.6326904296875,-11.3525390625
6.109999900000001,9.567230224609375,-0.828393816947937,3.4572272300720215,8.270263671875,4.9896240234375,-10.528564453125
6.1299999000000005,9.533711433410645,-0.8307880163192749,3.3949780464172363,10.07080078125,10.2691650390625,-18.5089111328125
6.149999900000001,9.493009567260742,-0.7541735172271729,3.378218650817871,8.4228515625,15.31982421875,-23.62060546875
6.1699999000000005,9.406818389892578,-0.6224924325942993,3.3279404640197754,10.345458984375,3.90625,-21.9879150390625
6.1899999,9.35654067993164,-0.3926490843296051,3.3925838470458984,16.2353515625,-3.570556640625,-16.9677734375
6.209999900000001,9.320627212524414,-0.14365209639072418,3.5936968326568604,10.284423828125,2.62451171875,-14.7552490234375
6.2299999,9.318233489990234,0.023942016065120697,3.6798880100250244,20.4315185546875,-16.510009765625,-12.8173828125
6.249999900000001,9.318233489990234,0.10295066982507706,3.667917013168335,22.4151611328125,-25.9246826171875,-13.458251953125
6.2699999,9.277531623840332,0.16998831927776337,3.4787750244140625,11.3372802734375,-16.143798828125,-14.495849609375
6.289999900000001,9.258378028869629,0.11971008777618408,3.1268274784088135,0.3814697265625,-11.3983154296875,-6.7901611328125
6.3099999,9.246406555175781,0.13407529890537262,2.8227639198303223,-1.0528564453125,-13.6260986328125,-3.5858154296875
6.329999900000001,9.30386734008789,0.07661445438861847,2.607285737991333,3.570556640625,-19.287109375,-6.2713623046875
6.3499999,9.406818389892578,0.028730420395731926,2.47560453414917,8.1787109375,-20.2178955078125,-8.2550048828125
6.369999900000001,9.47146224975586,0.08140286058187485,2.3774423599243164,10.1165771484375,-15.31982421875,-13.4735107421875
6.3899999,9.516951560974121,0.18914192914962769,2.250549554824829,12.603759765625,-15.9149169921875,-11.6119384765625
6.409999900000001,9.50737476348877,0.4213795065879822,2.1978771686553955,16.7236328125,-13.1988525390625,-5.645751953125
6.4299999,9.48343276977539,0.629675030708313,2.1116859912872314,21.9879150390625,-16.4337158203125,-2.593994140625
6.449999900000001,9.48343276977539,0.7254431247711182,2.0925323963165283,21.4996337890625,-14.2822265625,1.8310546875
6.4699999,9.488221168518066,0.7110779285430908,2.0614075660705566,20.2178955078125,-11.29150390625,-0.885009765625
6.489999900000001,9.509769439697266,0.5913678407669067,2.011129379272461,17.059326171875,-17.7001953125,-1.6632080078125
6.5099999,9.533711433410645,0.4213795065879822,1.9536685943603516,9.6893310546875,-18.829345703125,2.3956298828125
6.529999900000001,9.533711433410645,0.3232172429561615,1.867477297782898,8.1024169921875,-14.8162841796875,-0.6103515625
6.5499999,9.509769439697266,0.2849099934101105,1.7693150043487549,6.988525390625,-10.6201171875,-4.9591064453125
6.569999900000001,9.47146224975586,0.3280056416988373,1.699883222579956,6.7138671875,-9.70458984375,-2.655029296875
6.5899999000000005,9.41639518737793,0.45489832758903503,1.7070658206939697,3.7841796875,-5.889892578125,-0.5645751953125
6.609999900000001,9.368511199951172,0.6105214357376099,1.766920804977417,0.3509521484375,-7.38525390625,0.8392333984375
6.6299999000000005,9.346963882446289,0.7398083209991455,1.86508309841156,-1.251220703125,-10.955810546875,3.6773681640625
6.649999900000001,9.349357604980469,0.8236053586006165,1.9560627937316895,-1.220703125,-10.894775390625,6.072998046875
6.6699999000000005,9.387664794921875,0.828393816947937,2.03507137298584,-2.532958984375,-8.453369140625,7.6751708984375
6.6899999,9.437943458557129,0.7948749661445618,2.099714994430542,-4.8370361328125,-6.1798095703125,7.0648193359375
6.709999900000001,9.50498104095459,0.706289529800415,2.140416383743286,-4.33349609375,-8.9111328125,7.965087890625
6.7299999,9.557653427124023,0.6009446382522583,2.1763293743133545,-3.60107421875,-9.1552734375,9.033203125
6.749999900000001,9.588777542114258,0.47165772318840027,2.1164743900299072,0.091552734375,-11.3372802734375,7.293701171875
6.7699999,9.57441234588623,0.3447650372982025,1.9632453918457031,-0.1220703125,-10.8184814453125,4.9896240234375
6.789999900000001,9.519346237182617,0.23702596127986908,1.7142484188079834,-2.5787353515625,-7.4920654296875,4.5928955078125
6.8099999,9.44991397857666,0.1388636976480484,1.460463047027588,-3.875732421875,-0.1373291015625,5.92041015625
6.829999900000001,9.385271072387695,0.08619125932455063,1.2761094570159912,-1.5106201171875,5.7220458984375,3.0059814453125
6.8499999,9.370905876159668,0.021547814831137657,1.2425906658172607,1.0223388671875,8.270263671875,-0.06103515625
6.869999900000001,9.399636268615723,0.019153613597154617,1.3670891523361206,-0.030517578125,8.4991455078125,-1.46484375
6.8899999,9.473855972290039,0.05506663769483566,1.6089035272598267,-3.0670166015625,8.48388671875,-0.885009765625
6.909999900000001,9.57201862335205,0.12928688526153564,1.8962076902389526,-1.4495849609375,6.3934326171875,1.03759765625
6.9299999,9.677363395690918,0.19632454216480255,2.1475989818573,2.3345947265625,3.509521484375,0.1220703125
6.949999900000001,9.770736694335938,0.24660277366638184,2.3127987384796143,1.708984375,2.7313232421875,-2.899169921875
6.9699999,9.832986831665039,0.2777273952960968,2.3989901542663574,-0.8392333984375,3.204345703125,-3.47900390625
6.989999900000001,9.852140426635742,0.3016694188117981,2.365471363067627,-0.457763671875,-0.8392333984375,-1.739501953125
7.0099999,9.830592155456543,0.3256114423274994,2.2840683460235596,-0.67138671875,-2.01416015625,-0.3662109375
7.029999900000001,9.782708168029785,0.3256114423274994,2.1715409755706787,-4.5318603515625,1.3885498046875,-0.7171630859375
7.0499999,9.710882186889648,0.3256114423274994,2.032677173614502,-3.2501220703125,0.946044921875,-2.25830078125
7.069999900000001,9.653421401977539,0.31364041566848755,1.98958158493042,-1.77001953125,2.86865234375,-1.922607421875
7.0899999000000005,9.59596061706543,0.3280056416988373,1.9800047874450684,-1.1138916015625,1.52587890625,-1.52587890625
7.109999900000001,9.5624418258667,0.3447650372982025,2.0231003761291504,1.068115234375,-0.67138671875,-1.3427734375
7.1299999000000005,9.53849983215332,0.38067805767059326,2.078166961669922,-0.0457763671875,0.701904296875,-1.373291015625
7.149999900000001,9.524134635925293,0.40940847992897034,2.0853497982025146,-1.434326171875,-0.6103515625,-0.0457763671875
7.1699999000000005,9.521739959716797,0.3878606855869293,2.0590133666992188,-1.068115234375,-0.8697509765625,1.7852783203125
7.1899999,9.509769439697266,0.38067805767059326,1.9847931861877441,0.1068115234375,0.823974609375,-0.7476806640625
7.209999900000001,9.50737476348877,0.33518823981285095,1.9105730056762695,-2.8533935546875,3.41796875,-1.3427734375
7.2299999,9.50498104095459,0.31364041566848755,1.8626888990402222,-3.96728515625,4.0130615234375,0.579833984375
7.249999900000001,9.536105155944824,0.2537853717803955,1.9273324012756348,-3.814697265625,3.509521484375,1.46484375
7.2699999,9.57441234588623,0.2059013396501541,1.9991583824157715,-1.6937255859375,3.1280517578125,-1.129150390625
7.289999900000001,9.617507934570312,0.17477671802043915,2.094926595687866,-0.5340576171875,3.35693359375,-3.509521484375
7.3099999,9.648633003234863,0.19393034279346466,2.169146776199341,-0.79345703125,2.5634765625,-2.655029296875
7.329999900000001,9.66539192199707,0.24899697303771973,2.2002713680267334,1.129150390625,0.579833984375,0
7.3499999,9.66299819946289,0.31842881441116333,2.212242364883423,1.220703125,1.3275146484375,0.518798828125
7.369999900000001,9.655815124511719,0.3519476354122162,2.161964178085327,0.7476806640625,1.434326171875,0.2899169921875
7.3899999,9.648633003234863,0.363918662071228,2.1380221843719482,0.0762939453125,2.50244140625,-0.9765625
7.409999900000001,9.643844604492188,0.3495534360408783,2.1092917919158936,0.091552734375,1.739501953125,-0.579833984375
7.4299999,9.639056205749512,0.31842881441116333,2.1068975925445557,0.1983642578125,-0.6866455078125,1.0833740234375
7.449999900000001,9.62947940826416,0.28730419278144836,2.094926595687866,0.48828125,-0.7171630859375,0.244140625
7.4699999,9.619902610778809,0.26336219906806946,2.075772762298584,1.2969970703125,1.068115234375,-2.0751953125
7.489999900000001,9.605537414550781,0.2561795711517334,2.0661959648132324,0.1983642578125,1.922607421875,-1.617431640625
7.5099999,9.588777542114258,0.28969839215278625,2.049436569213867,0.244140625,-0.42724609375,-0.3204345703125
7.529999900000001,9.569623947143555,0.33758243918418884,2.0374655723571777,0.396728515625,-1.251220703125,0.8544921875
7.5499999,9.555258750915527,0.3711012601852417,2.0183119773864746,-2.2125244140625,0.1220703125,2.044677734375
7.569999900000001,9.550470352172852,0.36152446269989014,1.9847931861877441,-4.0435791015625,0.1068115234375,2.3651123046875
7.5899999000000005,9.5624418258667,0.3016694188117981,1.9704279899597168,-5.9814453125,0.5340576171875,1.1444091796875
7.609999900000001,9.586383819580078,0.21787235140800476,1.98958158493042,-3.0975341796875,1.2664794921875,-1.6021728515625
7.6299999000000005,9.607931137084961,0.16998831927776337,1.9943699836730957,0.701904296875,-0.885009765625,-4.241943359375
7.649999900000001,9.627084732055664,0.1604115068912506,2.0446481704711914,-2.62451171875,1.129150390625,-1.7852783203125
7.6699999000000005,9.63187313079834,0.21547815203666687,2.0661959648132324,-2.3193359375,0.335693359375,-0.6866455078125
7.6899999,9.627084732055664,0.2944868206977844,2.0829553604125977,0.640869140625,-1.5106201171875,-1.556396484375
7.709999900000001,9.615114212036133,0.3687070608139038,2.1068975925445557,1.6632080078125,0.3204345703125,-1.007080078125
7.7299999,9.593565940856934,0.42616790533065796,2.0877439975738525,2.960205078125,-0.3509521484375,-0.3662109375
7.749999900000001,9.569623947143555,0.45250412821769714,2.0685901641845703,2.8228759765625,-0.1220703125,0.2593994140625
7.7699999,9.552865028381348,0.4381389021873474,2.0374655723571777,3.47900390625,1.4190673828125,0.030517578125
7.789999900000001,9.53849983215332,0.4141969084739685,1.9943699836730957,5.0506591796875,0.823974609375,-1.251220703125
7.8099999,9.531316757202148,0.40462008118629456,1.9632453918457031,3.96728515625,1.5106201171875,-1.373291015625
7.829999900000001,9.528923034667969,0.40222588181495667,1.9393033981323242,1.6632080078125,2.3651123046875,0.8392333984375
7.8499999,9.53849983215332,0.38307225704193115,1.9129672050476074,3.082275390625,1.312255859375,2.532958984375
7.869999900000001,9.560047149658203,0.33279404044151306,1.9297266006469727,2.899169921875,2.593994140625,-0.2288818359375
7.8899999,9.591172218322754,0.272938996553421,1.944091796875,2.6702880859375,2.6397705078125,-2.5482177734375
7.909999900000001,9.624691009521484,0.22266076505184174,1.9728221893310547,1.7852783203125,1.495361328125,-2.716064453125
7.9299999,9.641449928283691,0.2537853717803955,2.011129379272461,2.3040771484375,1.953125,-1.4801025390625
7.949999900000001,9.648633003234863,0.3256114423274994,2.0638017654418945,0.640869140625,2.7923583984375,-0.3662109375
7.9699999,9.643844604492188,0.40462008118629456,2.0829553604125977,0.8697509765625,-0.7171630859375,1.251220703125
7.989999900000001,9.636661529541016,0.43095630407333374,2.10210919380188,1.52587890625,-0.396728515625,1.4190673828125
8.0099999,9.619902610778809,0.44771572947502136,2.0877439975738525,3.387451171875,0.91552734375,-1.5106201171875
8.0299999,9.612719535827637,0.4213795065879822,2.049436569213867,1.953125,0.5645751953125,-0.91552734375
8.049999900000001,9.593565940856934,0.4213795065879822,2.0231003761291504,-0.2288818359375,0.7781982421875,0.6103515625
8.069999900000001,9.593565940856934,0.3998316824436188,2.013523578643799,-0.1373291015625,0.6256103515625,1.129150390625
8.0899999,9.583989143371582,0.3998316824436188,2.008735179901123,2.0751953125,-0.244140625,-0.2593994140625
8.1099999,9.579200744628906,0.38307225704193115,2.0015525817871094,1.5716552734375,-0.3509521484375,-1.2359619140625
8.129999900000001,9.569623947143555,0.3878606855869293,1.9943699836730957,0.5645751953125,1.3885498046875,0.1068115234375
8.149999900000001,9.557653427124023,0.395043283700943,1.9800047874450684,0.8392333984375,1.2054443359375,0.091552734375
8.1699999,9.543288230895996,0.4165911078453064,1.9632453918457031,1.1749267578125,0.1983642578125,-0.6866455078125
8.1899999,9.545681953430176,0.3998316824436188,1.9608511924743652,1.617431640625,1.434326171875,0.0762939453125
8.2099999,9.53849983215332,0.42377370595932007,1.9488801956176758,0.7476806640625,2.1514892578125,-0.732421875
8.229999900000001,9.545681953430176,0.43095630407333374,1.9608511924743652,-1.129150390625,2.105712890625,0.79345703125
8.2499999,9.552865028381348,0.44771572947502136,1.9704279899597168,-1.7242431640625,0.79345703125,2.3956298828125
8.2699999,9.567230224609375,0.45489832758903503,1.98958158493042,-0.6561279296875,0.518798828125,2.0904541015625
8.2899999,9.593565940856934,0.43335050344467163,2.006340980529785,-0.9613037109375,1.953125,1.3580322265625
8.309999900000001,9.612719535827637,0.4213795065879822,2.0039467811584473,0.79345703125,1.2359619140625,0.5035400390625
8.3299999,9.63187313079834,0.40940847992897034,2.0207061767578125,0.1983642578125,1.617431640625,1.251220703125
8.3499999,9.648633003234863,0.3998316824436188,2.0374655723571777,0.1678466796875,1.2054443359375,2.960205078125
8.3699999,9.658209800720215,0.38067805767059326,2.054224967956543,0.823974609375,-0.06103515625,2.74658203125
8.389999900000001,9.66539192199707,0.3423708379268646,2.0638017654418945,0.9613037109375,-0.2593994140625,1.1749267578125
8.4099999,9.66299819946289,0.30885201692581177,2.0614075660705566,0.6561279296875,0.244140625,0.3204345703125
8.4299999,9.646238327026367,0.2968810200691223,2.0398597717285156,0.06103515625,0,0.8697509765625
8.4499999,9.622296333312988,0.3016694188117981,2.013523578643799,0.5340576171875,-0.5340576171875,1.8157958984375
8.469999900000001,9.600749015808105,0.3016694188117981,1.9728221893310547,1.40380859375,-0.48828125,1.9683837890625
8.4899999,9.581595420837402,0.2944868206977844,1.941697597503662,0.6866455078125,0.396728515625,0.4119873046875
8.5099999,9.567230224609375,0.2849099934101105,1.8986018896102905,0.823974609375,0.9765625,-0.5035400390625
8.5299999,9.557653427124023,0.29209262132644653,1.8962076902389526,-0.1068115234375,2.166748046875,-0.274658203125
8.549999900000001,9.548076629638672,0.3232172429561615,1.9033904075622559,-0.762939453125,1.1444091796875,0.8544921875
8.569999900000001,9.545681953430176,0.35434186458587646,1.9345149993896484,-0.2593994140625,0.48828125,1.9989013671875
8.5899999,9.5624418258667,0.36152446269989014,1.9752163887023926,0.1373291015625,1.678466796875,2.13623046875
8.6099999,9.581595420837402,0.35673606395721436,2.0183119773864746,0.6561279296875,1.7547607421875,0.6866455078125
8.629999900000001,9.612719535827637,0.31364041566848755,2.049436569213867,0.8392333984375,0,1.007080078125
8.649999900000001,9.634267807006836,0.27054479718208313,2.0590133666992188,0.8697509765625,-0.9002685546875,1.2359619140625
8.6699999,9.643844604492188,0.22266076505184174,2.0231003761291504,1.4801025390625,-0.3204345703125,-0.1220703125
8.6899999,9.639056205749512,0.1867477297782898,1.9800047874450684,1.1138916015625,1.9378662109375,-1.5869140625
8.709999900000001,9.619902610778809,0.181959331035614,1.9345149993896484,0.2288818359375,1.617431640625,-1.8768310546875
8.729999900000001,9.59596061706543,0.21547815203666687,1.920149803161621,1.8157958984375,0.6561279296875,-1.52587890625
8.7499999,9.581595420837402,0.2561795711517334,1.941697597503662,2.5177001953125,1.5716552734375,-0.67138671875
8.7699999,9.569623947143555,0.3064578175544739,1.968033790588379,2.288818359375,1.0986328125,-0.7476806640625
8.7899999,9.564835548400879,0.3280056416988373,1.9800047874450684,3.692626953125,0.1983642578125,-1.52587890625
8.809999900000001,9.564835548400879,0.31364041566848755,1.987187385559082,5.6610107421875,1.5106201171875,-2.1209716796875
8.8299999,9.564835548400879,0.29209262132644653,1.968033790588379,5.828857421875,1.190185546875,-3.8604736328125
8.8499999,9.579200744628906,0.2561795711517334,1.9512743949890137,4.8980712890625,1.3427734375,-4.5013427734375
8.8699999,9.581595420837402,0.2801215946674347,1.922544002532959,3.3111572265625,0.4730224609375,-6.1492919921875
8.889999900000001,9.600749015808105,0.3280056416988373,1.944091796875,-1.0528564453125,2.8228759765625,-3.0364990234375
8.9099999,9.605537414550781,0.4141969084739685,1.944091796875,-1.220703125,0.457763671875,-0.152587890625
8.9299999,9.610325813293457,0.49559974670410156,1.9608511924743652,0.640869140625,-0.762939453125,0.0152587890625
8.9499999,9.610325813293457,0.545877993106842,1.9728221893310547,0.640869140625,1.9683837890625,-0.3814697265625
8.969999900000001,9.605537414550781,0.5793967843055725,1.965639591217041,1.6937255859375,2.288818359375,0.091552734375
8.9899999,9.600749015808105,0.5817909836769104,1.9776105880737305,0.1678466796875,1.77001953125,2.044677734375
9.0099999,9.600749015808105,0.5602431893348694,1.9943699836730957,-1.251220703125,0.6256103515625,3.1890869140625
9.0299999,9.610325813293457,0.5027823448181152,2.006340980529785,-0.2593994140625,0.0457763671875,2.5787353515625
9.049999900000001,9.615114212036133,0.44771572947502136,2.008735179901123,0.3204345703125,1.190185546875,0.762939453125
9.069999900000001,9.622296333312988,0.37828385829925537,1.987187385559082,1.6937255859375,0.946044921875,1.312255859375
9.0899999,9.619902610778809,0.33518823981285095,1.965639591217041,1.7242431640625,0.7476806640625,1.2969970703125
9.1099999,9.612719535827637,0.304063618183136,1.9297266006469727,0.7476806640625,0.701904296875,0.2593994140625
9.129999900000001,9.605537414550781,0.29209262132644653,1.920149803161621,-1.129150390625,1.953125,-0.06103515625
9.149999900000001,9.59835433959961,0.304063618183136,1.9153614044189453,-1.617431640625,1.7547607421875,0.152587890625
9.1699999,9.593565940856934,0.3280056416988373,1.9345149993896484,-0.244140625,0.6256103515625,-0.0457763671875
9.1899999,9.593565940856934,0.3711012601852417,1.9608511924743652,0.701904296875,1.0528564453125,-0.1373291015625
9.209999900000001,9.59596061706543,0.4165911078453064,1.9943699836730957,-0.0152587890625,1.9683837890625,-0.3662109375
9.229999900000001,9.59596061706543,0.45010992884635925,2.0183119773864746,-0.274658203125,0.91552734375,1.251220703125
9.2499999,9.593565940856934,0.4644751250743866,2.0207061767578125,-0.6866455078125,-0.5340576171875,1.7242431640625
9.2699999,9.591172218322754,0.4381389021873474,2.0039467811584473,-1.1138916015625,0.30517578125,1.4190673828125
9.2899999,9.59596061706543,0.38546648621559143,1.9752163887023926,-1.007080078125,1.9989013671875,0.3662109375
9.309999900000001,9.600749015808105,0.33758243918418884,1.9584569931030273,-0.48828125,2.38037109375,-1.556396484375
9.3299999,9.605537414550781,0.3232172429561615,1.9584569931030273,-0.7781982421875,1.068115234375,-1.1749267578125
9.3499999,9.615114212036133,0.3232172429561615,1.9776105880737305,-0.4119873046875,0.823974609375,0.6103515625
9.3699999,9.612719535827637,0.3711012601852417,1.987187385559082,0.244140625,0.6866455078125,-0.244140625
9.389999900000001,9.622296333312988,0.38067805767059326,2.006340980529785,-1.0986328125,1.89208984375,0.823974609375
9.4099999,9.62947940826416,0.3878606855869293,1.98958158493042,2.166748046875,0.1678466796875,0.4730224609375
9.4299999,9.639056205749512,0.3758896589279175,1.9967641830444336,2.3345947265625,1.007080078125,-1.2054443359375
9.4499999,9.655815124511719,0.35434186458587646,1.9728221893310547,0.640869140625,0.6561279296875,-0.762939453125
9.469999900000001,9.66539192199707,0.35673606395721436,1.9632453918457031,-1.708984375,0.0762939453125,-0.7476806640625
9.4899999,9.679757118225098,0.3734954595565796,1.965639591217041,-2.166748046875,0.48828125,-0.701904296875
9.5099999,9.679757118225098,0.395043283700943,1.965639591217041,-0.8392333984375,-1.52587890625,0.30517578125
9.5299999,9.674968719482422,0.3902548849582672,1.944091796875,1.2969970703125,-2.716064453125,0.4730224609375
9.549999900000001,9.646238327026367,0.4118026793003082,1.9273324012756348,3.0517578125,1.2359619140625,-3.0517578125
9.569999900000001,9.612719535827637,0.40701428055763245,1.920149803161621,0.7781982421875,2.9296875,-2.471923828125
9.5899999,9.57441234588623,0.42377370595932007,1.9153614044189453,0.8087158203125,-1.1138916015625,-0.1373291015625
9.6099999,9.550470352172852,0.4405331015586853,1.946485996246338,1.0833740234375,-0.8392333984375,0.2593994140625
9.629999900000001,9.543288230895996,0.4429273009300232,1.9752163887023926,0.0457763671875,1.190185546875,-0.5035400390625
9.649999900000001,9.552865028381348,0.4165911078453064,1.9800047874450684,1.708984375,-0.244140625,0.0457763671875
9.6699999,9.569623947143555,0.40222588181495667,1.9823989868164062,3.021240234375,-0.42724609375,-0.5645751953125
9.6899999,9.593565940856934,0.3758896589279175,1.965639591217041,1.2359619140625,-0.3204345703125,0.1068115234375
9.709999900000001,9.617507934570312,0.33997663855552673,1.9177556037902832,0.3814697265625,-0.67138671875,0.6866455078125
9.729999900000001,9.627084732055664,0.3280056416988373,1.8794482946395874,-1.2054443359375,0.9002685546875,-1.708984375
9.7499999,9.62947940826416,0.31842881441116333,1.8339585065841675,-0.30517578125,0.885009765625,-2.1209716796875
9.7699999,9.615114212036133,0.3423708379268646,1.8195933103561401,0.9765625,0.9307861328125,-1.0833740234375
9.7899999,9.59835433959961,0.3711012601852417,1.821987509727478,1.3427734375,1.03759765625,-0.396728515625
9.809999900000001,9.576807022094727,0.3998316824436188,1.8387469053268433,0.8087158203125,1.2054443359375,-0.7781982421875
9.8299999,9.555258750915527,0.42616790533065796,1.845929503440857,-0.42724609375,0.67138671875,-1.495361328125
9.8499999,9.533711433410645,0.44532153010368347,1.843535304069519,-0.8544921875,0.9765625,-0.0762939453125
9.8699999,9.526528358459473,0.4405331015586853,1.824381709098816,-0.6256103515625,1.861572265625,1.678466796875
9.889999900000001,9.531316757202148,0.43095630407333374,1.8195933103561401,-1.953125,3.23486328125,-0.1373291015625
9.9099999,9.560047149658203,0.3926490843296051,1.8124107122421265,-1.861572265625,2.166748046875,-1.129150390625
9.9299999,9.588777542114258,0.38067805767059326,1.8387469053268433,-1.6937255859375,2.349853515625,-1.495361328125
9.9499999,9.622296333312988,0.38067805767059326,1.867477297782898,-1.40380859375,3.021240234375,0.0762939453125
9.969999900000001,9.643844604492188,0.40940847992897034,1.900996208190918,-0.640869140625,2.5482177734375,0.457763671875
9.9899999,9.66299819946289,0.42377370595932007,1.9488801956176758,-1.312255859375,2.7923583984375,0.6561279296875
10.0099999,9.674968719482422,0.4189853072166443,1.98958158493042,-1.068115234375,1.89208984375,1.068115234375
10.0299999,9.677363395690918,0.3998316824436188,2.011129379272461,0.091552734375,0.3204345703125,0.4425048828125
10.049999900000001,9.672574996948242,0.3663128614425659,2.013523578643799,-0.091552734375,0.9918212890625,-0.0457763671875
10.069999900000001,9.653421401977539,0.3495534360408783,1.9776105880737305,0.9765625,0.79345703125,-1.2359619140625
10.0899999,9.63187313079834,0.3495534360408783,1.941697597503662,-0.152587890625,1.739501953125,-1.52587890625
10.1099999,9.607931137084961,0.38067805767059326,1.889025092124939,-0.8697509765625,0.2593994140625,-0.7171630859375
10.129999900000001,9.591172218322754,0.4141969084739685,1.8579005002975464,0.0152587890625,1.03759765625,0.06103515625
10.149999900000001,9.576807022094727,0.4644751250743866,1.8507179021835327,-0.79345703125,2.838134765625,-1.2969970703125
10.1699999,9.57441234588623,0.4908113479614258,1.8602946996688843,-0.8392333984375,1.5106201171875,0
10.1899999,9.583989143371582,0.49320554733276367,1.8914192914962769,0.1373291015625,0.4730224609375,0.8392333984375
10.209999900000001,9.591172218322754,0.48602294921875,1.9105730056762695,1.129150390625,0.7476806640625,-1.434326171875
10.229999900000001,9.603142738342285,0.4644751250743866,1.9321208000183105,-0.06103515625,2.410888671875,-1.983642578125
10.2499999,9.603142738342285,0.45250412821769714,1.922544002532959,-1.1749267578125,1.220703125,-1.007080078125
10.2699999,9.600749015808105,0.4620809257030487,1.9393033981323242,-0.640869140625,1.007080078125,-0.823974609375
10.2899999,9.603142738342285,0.4644751250743866,1.9369091987609863,0.1678466796875,0.8392333984375,-0.4730224609375
10.309999900000001,9.600749015808105,0.47165772318840027,1.9369091987609863,0.2899169921875,0.823974609375,-0.946044921875
10.3299999,9.59596061706543,0.47644615173339844,1.9273324012756348,-0.8544921875,1.7852783203125,-0.9918212890625
10.3499999,9.581595420837402,0.4884171485900879,1.9057846069335938,-0.213623046875,1.15966796875,0.1983642578125
10.3699999,9.564835548400879,0.5027823448181152,1.8746598958969116,0.2593994140625,1.068115234375,0.518798828125
10.389999900000001,9.555258750915527,0.5099649429321289,1.8531121015548706,-0.3814697265625,3.0364990234375,0.732421875
10.4099999,9.5624418258667,0.49559974670410156,1.843535304069519,-0.640869140625,2.960205078125,0.7171630859375
10.4299999,9.586383819580078,0.4836287498474121,1.8698714971542358,-1.1749267578125,2.5634765625,0.1220703125
10.4499999,9.622296333312988,0.4572925269603729,1.8986018896102905,-0.4730224609375,0.67138671875,0.152587890625
10.469999900000001,9.653421401977539,0.4405331015586853,1.9345149993896484,0.2899169921875,1.1444091796875,0.3509521484375
10.4899999,9.670180320739746,0.43335050344467163,1.9249382019042969,0.9613037109375,0.9307861328125,-0.42724609375
10.5099999,9.672574996948242,0.42616790533065796,1.9153614044189453,0.0762939453125,2.1209716796875,0.457763671875
10.5299999,9.655815124511719,0.4429273009300232,1.8722656965255737,0.5645751953125,1.3580322265625,-0.3814697265625
10.549999900000001,9.636661529541016,0.4620809257030487,1.8531121015548706,0.67138671875,2.0599365234375,0.0762939453125
10.569999900000001,9.627084732055664,0.49559974670410156,1.8387469053268433,1.129150390625,2.8839111328125,0.7171630859375
10.5899999,9.627084732055664,0.5386953949928284,1.8315643072128296,2.38037109375,1.5716552734375,0.579833984375
10.6099999,9.658209800720215,0.5530605912208557,1.8387469053268433,2.716064453125,0.579833984375,2.4871826171875
10.629999900000001,9.708487510681152,0.5602431893348694,1.8100165128707886,4.39453125,-0.885009765625,1.9989013671875
10.649999900000001,9.78989028930664,0.5482721924781799,1.7812861204147339,4.7149658203125,-0.701904296875,1.28173828125
10.6699999,9.890447616577148,0.5051765441894531,1.6735470294952393,6.1798095703125,-4.7149658203125,2.7313232421875
10.6899999,9.981427192687988,0.5291185975074768,1.5275006294250488,5.8746337890625,-6.988525390625,1.89208984375
10.709999900000001,10.067618370056152,0.5602431893348694,1.3048399686813354,-0.1373291015625,-8.4228515625,3.631591796875
10.729999900000001,10.070012092590332,0.6607996821403503,0.9696516990661621,3.11279296875,-15.869140625,9.124755859375
10.7499999,10.041281700134277,0.6703764796257019,0.42377370595932007,6.3629150390625,-23.8189697265625,15.716552734375
10.7699999,9.945513725280762,0.586579442024231,-0.20350714027881622,7.4920654296875,-13.3514404296875,10.43701171875
10.7899999,9.876082420349121,0.2849099934101105,-0.8475474119186401,8.4228515625,4.8675537109375,5.06591796875
10.809999900000001,9.835380554199219,-0.06464344263076782,-1.3407529592514038,4.669189453125,10.6964111328125,-1.6937255859375
10.8299999,9.885659217834473,-0.3734954595565796,-1.625662922859192,-2.25830078125,7.0037841796875,-3.5552978515625
10.8499999,9.952696800231934,-0.2825157940387726,-1.6639702320098877,-6.6375732421875,9.674072265625,-5.92041015625
10.8699999,10.034099578857422,0.1412578970193863,-1.7693150043487549,0.1983642578125,4.1961669921875,4.9591064453125
10.889999900000001,10.086771965026855,0.6943184733390808,-1.8986018896102905,0.6561279296875,5.79833984375,28.3050537109375
10.9099999,10.15141487121582,0.9576807022094727,-2.1715409755706787,-13.946533203125,16.387939453125,40.58837890625
10.9299999,10.225635528564453,0.7948749661445618,-2.4660277366638184,-21.0723876953125,34.4390869140625,22.52197265625
10.9499999,10.347740173339844,0.23942017555236816,-2.5905263423919678,-18.096923828125,56.732177734375,-1.373291015625
10.969999900000001,10.42195987701416,-0.06464344263076782,-2.427720546722412,-8.36181640625,66.9403076171875,-11.53564453125
10.9899999,10.486603736877441,-0.10534487664699554,-1.7956513166427612,-25.7415771484375,63.78173828125,13.3209228515625
11.0099999,10.433931350708008,0.07182604819536209,-1.1516109704971313,-53.558349609375,27.16064453125,46.1273193359375
11.0299999,10.256759643554688,0.047884032130241394,-0.35434186458587646,-64.7430419921875,21.881103515625,49.468994140625
11.049999900000001,9.959878921508789,-0.6775590777397156,0.21787235140800476,-32.8216552734375,46.905517578125,20.538330078125
11.069999900000001,9.39245319366455,-1.460463047027588,0.9840168952941895,9.368896484375,78.2012939453125,-35.5377197265625
11.0899999,8.398859977722168,-1.5873557329177856,1.9919757843017578,4.5013427734375,83.9691162109375,-56.1065673828125
11.1099999,6.98628044128418,-1.036689281463623,3.339911460876465,-60.2569580078125,54.1534423828125,30.975341796875
11.129999900000001,5.173870086669922,-0.2346317619085312,4.616020679473877,-98.7701416015625,43.8385009765625,121.978759765625
11.149999900000001,3.557783842086792,-0.24899697303771973,5.872976779937744,-63.5833740234375,105.6976318359375,113.4490966796875
11.1699999,2.7269957065582275,-1.5705963373184204,7.565677165985107,-21.0723876953125,203.277587890625,52.032470703125
11.1899999,3.160346269607544,-3.6990416049957275,9.59596061706543,-11.383056640625,197.3419189453125,-2.4871826171875
11.209999900000001,4.6471452713012695,-4.817133903503418,12.205639839172363,-7.415771484375,125.8392333984375,-64.27001953125
11.229999900000001,6.660669326782227,-4.441244125366211,14.628572463989258,4.425048828125,73.3642578125,-66.58935546875
11.2499999,8.243236541748047,-2.63362193107605,15.459360122680664,18.6309814453125,-10.986328125,-16.3421630859375
11.2699999,9.004592895507812,-0.6440402865409851,14.551958084106445,24.96337890625,-41.80908203125,23.529052734375
11.2899999,8.96149730682373,0.28730419278144836,11.887211799621582,14.6026611328125,-21.97265625,21.0418701171875
11.309999900000001,8.453926086425781,-0.07661445438861847,8.628703117370605,1.7242431640625,15.0146484375,-7.14111328125
11.3299999,7.8745293617248535,-1.0462661981582642,5.674258232116699,-6.77490234375,19.1650390625,-35.0189208984375
11.3499999,7.501033782958984,-1.6519991159439087,4.144362926483154,-11.3677978515625,26.9927978515625,-36.9110107421875
11.3699999,7.340622425079346,-1.4460978507995605,3.7612907886505127,-9.4146728515625,17.974853515625,-11.962890625
11.389999900000001,7.4555439949035645,-0.849941611289978,4.338293552398682,-7.75146484375,1.129150390625,24.0478515625
11.4099999,7.762001991271973,-0.31364041566848755,5.293580055236816,-9.8419189453125,-8.6212158203125,28.6407470703125
11.4299999,8.10437297821045,-0.3208230137825012,6.007051944732666,-2.716064453125,-18.06640625,9.246826171875
11.4499999,8.307879447937012,-0.5793967843055725,6.320692539215088,3.4332275390625,-15.2587890625,-9.7808837890625
11.469999900000001,8.334216117858887,-0.9217676520347595,6.215347766876221,2.9449462890625,-4.7760009765625,-4.33349609375
11.4899999,8.180987358093262,-1.0055646896362305,5.868188381195068,1.4495849609375,-1.2969970703125,5.126953125
11.5099999,8.022970199584961,-1.0055646896362305,5.489904403686523,0.030517578125,-8.514404296875,9.185791015625
11.5299999,7.960720539093018,-1.0821791887283325,5.224148273468018,0.9765625,-5.7525634765625,9.2926025390625
11.549999900000001,7.95832633972168,-1.1779472827911377,4.960785865783691,2.9754638671875,-6.04248046875,0.5340576171875
11.569999900000001,8.027758598327637,-1.2976573705673218,4.797980308532715,2.349853515625,4.058837890625,-2.288818359375
11.5899999,8.097189903259277,-1.338358759880066,4.716577529907227,0.8544921875,10.467529296875,3.1280517578125
11.6099999,8.13789176940918,-1.278503656387329,4.72376012802124,0.1983642578125,6.1187744140625,6.77490234375
11.629999900000001,8.195352554321289,-1.2210428714752197,4.908113479614258,-0.0152587890625,5.8135986328125,8.148193359375
11.649999900000001,8.24084186553955,-1.2114660739898682,5.118803024291992,0.91552734375,5.9661865234375,7.843017578125
11.6699999,8.271966934204102,-1.256955862045288,5.343858242034912,2.593994140625,3.7841796875,6.011962890625
11.6899999,8.269572257995605,-1.3287819623947144,5.506663799285889,1.7547607421875,3.7841796875,5.401611328125
11.709999900000001,8.233659744262695,-1.41257905960083,5.60722017288208,2.349853515625,5.4473876953125,5.0201416015625
11.729999900000001,8.169015884399414,-1.4724340438842773,5.626373767852783,1.0528564453125,5.2337646484375,3.7841796875
11.7499999,8.10437297821045,-1.482010841369629,5.616796970367432,0.18310546875,3.5552978515625,2.74658203125
11.7699999,8.051700592041016,-1.4772224426269531,5.580883979797363,-1.2664794921875,3.4332275390625,4.5928955078125
11.7899999,8.030152320861816,-1.4939818382263184,5.542576789855957,-1.4190673828125,2.0904541015625,7.0953369140625
11.809999900000001,8.034940719604492,-1.522712230682373,5.489904403686523,-1.8768310546875,2.5177001953125,3.84521484375
11.8299999,8.070854187011719,-1.5610195398330688,5.48272180557251,-3.3416748046875,4.3792724609375,-0.7476806640625
11.8499999,8.145073890686035,-1.6136919260025024,5.518634796142578,-1.9378662109375,4.33349609375,-0.0152587890625
11.8699999,8.197746276855469,-1.5514427423477173,5.568912982940674,1.03759765625,-0.335693359375,-2.7008056640625
11.889999900000001,8.236053466796875,-1.4700398445129395,5.640739440917969,0.3814697265625,-3.60107421875,-1.5411376953125
11.9099999,8.236053466796875,-1.400607943534851,5.664681434631348,-1.5716552734375,-2.7313232421875,3.3111572265625
11.9299999,8.195352554321289,-1.359906554222107,5.604825973510742,-2.9754638671875,-5.4931640625,2.777099609375
11.9499999,8.133103370666504,-1.3718775510787964,5.521028995513916,-4.119873046875,-3.7078857421875,0.06103515625
11.969999900000001,8.056488990783691,-1.3838485479354858,5.418078422546387,-4.6539306640625,-2.1209716796875,-0.5035400390625
11.9899999,7.99184513092041,-1.414973258972168,5.331887245178223,-2.4261474609375,-0.7781982421875,0.9918212890625
12.0099999,7.9176249504089355,-1.359906554222107,5.262455463409424,1.708984375,-0.6866455078125,-2.197265625
12.0299999,7.881711959838867,-1.316810965538025,5.231330871582031,0.3509521484375,1.6937255859375,-0.54931640625
12.049999900000001,7.864952564239502,-1.2425906658172607,5.219359874725342,-2.1820068359375,2.2735595703125,2.2125244140625
12.069999900000001,7.886500358581543,-1.1899182796478271,5.2911858558654785,-2.3193359375,2.2430419921875,3.3111572265625
12.0899999,7.929595947265625,-1.1875240802764893,5.322310447692871,-1.0986328125,-4.2724609375,3.4332275390625
12.1099999,7.965508937835693,-1.2306196689605713,5.398924827575684,0.2899169921875,-1.678466796875,2.0751953125
12.129999900000001,7.982268333435059,-1.2856862545013428,5.34625244140625,-1.1444091796875,-1.3275146484375,1.2054443359375
12.149999900000001,7.982268333435059,-1.3527239561080933,5.288791656494141,-2.8076171875,1.5869140625,2.25830078125
12.1699999,7.989450931549072,-1.41257905960083,5.224148273468018,-2.532958984375,4.791259765625,3.448486328125
12.1899999,8.018181800842285,-1.455674648284912,5.219359874725342,-2.197265625,4.4097900390625,1.220703125
12.209999900000001,8.058882713317871,-1.479616641998291,5.260061264038086,-1.800537109375,2.960205078125,-0.640869140625
12.229999900000001,8.097189903259277,-1.4652514457702637,5.34625244140625,-2.3193359375,2.6702880859375,0.7476806640625
12.2499999,8.106766700744629,-1.4197616577148438,5.4013190269470215,-2.3193359375,1.6632080078125,2.2430419921875
12.2699999,8.118738174438477,-1.3934253454208374,5.453991413116455,-2.4261474609375,1.2664794921875,3.35693359375
12.289999900000002,8.121131896972656,-1.3670891523361206,5.468356609344482,-3.082275390625,2.105712890625,0.030517578125
12.309999900000001,8.142680168151855,-1.3670891523361206,5.504269599914551,-1.0986328125,3.3721923828125,-1.64794921875
12.3299999,8.164227485656738,-1.3335703611373901,5.509057998657227,0.946044921875,1.40380859375,-0.396728515625
12.3499999,8.190564155578613,-1.3120225667953491,5.5329999923706055,0.48828125,0.0152587890625,2.2125244140625
12.3699999,8.20732307434082,-1.3096283674240112,5.51624059677124,0.823974609375,-0.79345703125,3.5552978515625
12.389999900000001,8.226476669311523,-1.3646949529647827,5.48272180557251,0.4119873046875,-0.6866455078125,2.685546875
12.4099999,8.22887134552002,-1.4700398445129395,5.427655220031738,-0.5340576171875,0.579833984375,2.410888671875
12.4299999,8.2312650680542,-1.5921441316604614,5.377377033233643,-0.152587890625,0.579833984375,0.640869140625
12.4499999,8.209717750549316,-1.6663644313812256,5.3342814445495605,-0.091552734375,1.3275146484375,-1.190185546875
12.469999900000001,8.183381080627441,-1.699883222579956,5.319916248321533,-0.823974609375,0.8392333984375,-0.244140625
12.4899999,8.145073890686035,-1.6663644313812256,5.322310447692871,-0.335693359375,0.6256103515625,1.5411376953125
12.5099999,8.10437297821045,-1.6184803247451782,5.348646640777588,-0.42724609375,-0.1220703125,2.471923828125
12.5299999,8.061277389526367,-1.5705963373184204,5.370194435119629,-1.40380859375,-1.739501953125,2.25830078125
12.549999900000001,8.018181800842285,-1.5490485429763794,5.370194435119629,-1.373291015625,-0.9918212890625,1.8310546875
12.569999900000001,7.979874134063721,-1.5418659448623657,5.355829238891602,-1.068115234375,0.457763671875,2.5482177734375
12.5899999,7.955932140350342,-1.5729905366897583,5.322310447692871,-0.1068115234375,1.556396484375,2.4261474609375
12.6099999,7.94635534286499,-1.5969325304031372,5.293580055236816,0.2899169921875,1.9683837890625,0.18310546875
12.629999900000001,7.9631147384643555,-1.6304513216018677,5.293580055236816,-0.2899169921875,2.9449462890625,-0.7476806640625
12.649999900000001,7.994239330291748,-1.6304513216018677,5.329493045806885,-0.67138671875,3.0517578125,0.030517578125
12.6699999,8.020575523376465,-1.599326729774475,5.34625244140625,0.030517578125,-1.678466796875,1.0528564453125
12.6899999,8.04691219329834,-1.5825673341751099,5.377377033233643,-0.79345703125,-0.396728515625,2.593994140625
12.709999900000001,8.063671112060547,-1.5921441316604614,5.355829238891602,-0.885009765625,0.1983642578125,1.8463134765625
12.729999900000001,8.066065788269043,-1.623268723487854,5.329493045806885,-0.6256103515625,2.349853515625,-0.5645751953125
12.7499999,8.056488990783691,-1.6519991159439087,5.288791656494141,-0.9765625,1.678466796875,-1.4801025390625
12.7699999,8.042123794555664,-1.6400281190872192,5.281609058380127,-0.79345703125,2.2430419921875,-0.2899169921875
12.789999900000002,8.030152320861816,-1.6041151285171509,5.281609058380127,-0.7171630859375,2.3040771484375,1.28173828125
12.809999900000001,8.034940719604492,-1.580173134803772,5.303156852722168,-1.1749267578125,0.885009765625,2.197265625
12.8299999,8.051700592041016,-1.5729905366897583,5.324704647064209,-1.4495849609375,0.823974609375,0.1678466796875
12.8499999,8.078036308288574,-1.580173134803772,5.353435039520264,-1.28173828125,0.79345703125,-1.28173828125
12.8699999,8.101978302001953,-1.577778935432434,5.374982833862305,-1.1138916015625,1.89208984375,-0.67138671875
12.889999900000001,8.125920295715332,-1.5682021379470825,5.398924827575684,0.06103515625,2.3345947265625,0.0762939453125
12.9099999,8.142680168151855,-1.5418659448623657,5.4228668212890625,0.2899169921875,2.5787353515625,-0.3814697265625
12.9299999,8.157045364379883,-1.522712230682373,5.434837818145752,-0.274658203125,0.8392333984375,-0.030517578125
12.9499999,8.178592681884766,-1.5322890281677246,5.4659624099731445,-0.762939453125,1.7852783203125,1.190185546875
12.969999900000001,8.180987358093262,-1.5203180313110352,5.463568210601807,0.152587890625,0.6256103515625,0
12.9899999,8.178592681884766,-1.534683346748352,5.473145008087158,0.152587890625,1.15966796875,-0.1373291015625
13.0099999,8.169015884399414,-1.5490485429763794,5.47075080871582,0.18310546875,0.5950927734375,0.640869140625
13.0299999,8.152256965637207,-1.556231141090393,5.458779811859131,0.030517578125,0.5340576171875,-0.2899169921875
13.049999900000001,8.135497093200684,-1.5705963373184204,5.446808815002441,-0.640869140625,-0.091552734375,0.1220703125
13.069999900000001,8.1139497756958,-1.558625340461731,5.427655220031738,-0.79345703125,0.0762939453125,-0.1373291015625
13.0899999,8.092401504516602,-1.556231141090393,5.4228668212890625,0.640869140625,0.1373291015625,0.9002685546875
13.1099999,8.068459510803223,-1.5538369417190552,5.398924827575684,1.5716552734375,-0.6866455078125,1.2664794921875
13.129999900000001,8.039729118347168,-1.5634137392044067,5.370194435119629,0.7781982421875,-0.885009765625,-0.1373291015625
13.149999900000001,8.020575523376465,-1.5825673341751099,5.336675643920898,-0.1373291015625,0.8087158203125,-0.1068115234375
13.1699999,8.003816604614258,-1.6065093278884888,5.310339450836182,0.3509521484375,1.2969970703125,0.4730224609375
13.1899999,7.989450931549072,-1.6041151285171509,5.2911858558654785,0.4119873046875,-0.152587890625,0.18310546875
13.209999900000001,7.987056732177734,-1.599326729774475,5.298368453979492,-0.244140625,0.5950927734375,0.54931640625
13.229999900000001,7.989450931549072,-1.599326729774475,5.310339450836182,0.335693359375,1.7242431640625,2.01416015625
13.2499999,7.994239330291748,-1.5921441316604614,5.307945251464844,0.4730224609375,0.030517578125,1.64794921875
13.2699999,8.01339340209961,-1.6089035272598267,5.339069843292236,-0.6561279296875,1.1749267578125,1.64794921875
13.289999900000002,8.018181800842285,-1.6184803247451782,5.339069843292236,-0.8392333984375,-0.1678466796875,1.7547607421875
13.309999900000001,8.022970199584961,-1.623268723487854,5.351040840148926,-0.91552734375,-0.9613037109375,2.7008056640625
13.3299999,8.008605003356934,-1.5945383310317993,5.336675643920898,-1.800537109375,-0.8544921875,3.5247802734375
13.3499999,8.001421928405762,-1.601720929145813,5.322310447692871,-3.6163330078125,-0.732421875,7.01904296875
13.3699999,8.010998725891113,-1.6328455209732056,5.288791656494141,-3.96728515625,-1.220703125,7.4920654296875
13.389999900000001,8.042123794555664,-1.7334020137786865,5.281609058380127,-2.197265625,0.335693359375,4.08935546875
13.4099999,8.08282470703125,-1.8722656965255737,5.2480902671813965,-0.18310546875,0.8544921875,0.2899169921875
13.4299999,8.11634349822998,-1.9584569931030273,5.231330871582031,-0.5340576171875,2.0599365234375,-3.0670166015625
13.4499999,8.130708694458008,-1.9847931861877441,5.231330871582031,-1.129150390625,3.936767578125,-2.9296875
13.469999900000001,8.133103370666504,-1.9129672050476074,5.250484466552734,-0.274658203125,3.570556640625,-1.312255859375
13.4899999,8.133103370666504,-1.8124107122421265,5.307945251464844,-0.1373291015625,3.082275390625,-0.2593994140625
13.5099999,8.133103370666504,-1.7166426181793213,5.3582234382629395,-0.8544921875,1.251220703125,-0.457763671875
13.5299999,8.135497093200684,-1.6543933153152466,5.396530628204346,-1.220703125,1.800537109375,-0.5950927734375
13.549999900000001,8.142680168151855,-1.623268723487854,5.4252610206604,-0.67138671875,2.9449462890625,-0.30517578125
13.569999900000001,8.142680168151855,-1.601720929145813,5.415684223175049,-0.091552734375,0.79345703125,-0.030517578125
13.5899999,8.147468566894531,-1.6160861253738403,5.418078422546387,-0.457763671875,0.2288818359375,1.03759765625
13.6099999,8.135497093200684,-1.625662922859192,5.389348030090332,-0.091552734375,1.434326171875,0.0762939453125
13.629999900000001,8.109161376953125,-1.659181833267212,5.341464042663574,-0.5035400390625,0.3204345703125,0.30517578125
13.649999900000001,8.068459510803223,-1.678335428237915,5.295974254608154,-0.8544921875,1.3427734375,0.579833984375
13.6699999,8.022970199584961,-1.6855180263519287,5.252878665924072,-0.1220703125,2.99072265625,0.4730224609375
13.6899999,7.999027729034424,-1.7094600200653076,5.231330871582031,-0.48828125,2.7923583984375,1.373291015625
13.709999900000001,7.994239330291748,-1.7190368175506592,5.243301868438721,-0.701904296875,2.0904541015625,-0.3204345703125
13.729999900000001,8.010998725891113,-1.7190368175506592,5.2672438621521,-1.0528564453125,1.03759765625,-1.3885498046875
13.7499999,8.044517517089844,-1.699883222579956,5.327098846435547,-1.46484375,1.2969970703125,0.2899169921875
13.7699999,8.073247909545898,-1.6496049165725708,5.372588634490967,-0.2288818359375,0.67138671875,1.3885498046875
13.789999900000002,8.097189903259277,-1.6160861253738403,5.415684223175049,-0.518798828125,-0.18310546875,2.9296875
13.809999900000001,8.109161376953125,-1.6041151285171509,5.449203014373779,-1.2969970703125,-0.3509521484375,3.4942626953125
13.8299999,8.125920295715332,-1.6519991159439087,5.43723201751709,-1.068115234375,-2.1209716796875,3.3111572265625
13.8499999,8.13789176940918,-1.7334020137786865,5.43723201751709,0.3662109375,-1.0833740234375,1.0833740234375
13.8699999,8.13789176940918,-1.800439715385437,5.377377033233643,2.5634765625,-2.3345947265625,-2.166748046875
13.889999900000001,8.128314971923828,-1.8507179021835327,5.351040840148926,0.91552734375,-0.0152587890625,-1.220703125
13.9099999,8.101978302001953,-1.867477297782898,5.276820659637451,0.3204345703125,-0.762939453125,0.1373291015625
13.9299999,8.08282470703125,-1.8555063009262085,5.25527286529541,-0.5035400390625,0.4730224609375,-0.9307861328125
13.9499999,8.073247909545898,-1.8291701078414917,5.2265424728393555,-0.4730224609375,0.8087158203125,-2.62451171875
13.969999900000001,8.078036308288574,-1.778891921043396,5.243301868438721,-0.1678466796875,1.6632080078125,-2.7008056640625
13.9899999,8.08043098449707,-1.7118542194366455,5.257667064666748,-0.18310546875,1.2359619140625,-0.54931640625
14.0099999,8.08282470703125,-1.656787633895874,5.281609058380127,-0.518798828125,0.396728515625,1.2969970703125
14.0299999,8.087613105773926,-1.6280571222305298,5.295974254608154,-1.251220703125,1.495361328125,0.4730224609375
14.049999900000001,8.097189903259277,-1.6400281190872192,5.3127336502075195,-1.1749267578125,2.0599365234375,-0.213623046875
14.069999900000001,8.1139497756958,-1.6543933153152466,5.329493045806885,-0.7171630859375,1.708984375,-0.3662109375
14.0899999,8.130708694458008,-1.6639702320098877,5.360617637634277,-0.2288818359375,1.0986328125,-0.5645751953125
14.1099999,8.149862289428711,-1.6735470294952393,5.382165431976318,0.701904296875,0.274658203125,0.6561279296875
14.129999900000001,8.145073890686035,-1.656787633895874,5.382165431976318,0,-1.03759765625,0.244140625
14.149999900000001,8.135497093200684,-1.6519991159439087,5.363011837005615,-0.67138671875,0,1.800537109375
14.1699999,8.10437297821045,-1.6496049165725708,5.336675643920898,-0.8544921875,1.1138916015625,2.9449462890625
14.1899999,8.073247909545898,-1.656787633895874,5.279214859008789,-0.1983642578125,-0.762939453125,3.021240234375
14.209999900000001,8.054094314575195,-1.6903064250946045,5.260061264038086,-0.9918212890625,1.556396484375,2.5634765625
14.229999900000001,8.051700592041016,-1.745373010635376,5.22175407409668,-1.373291015625,1.617431640625,2.3345947265625
14.2499999,8.061277389526367,-1.7860745191574097,5.228936672210693,-1.8157958984375,1.9073486328125,0.7781982421875
14.2699999,8.08043098449707,-1.8100165128707886,5.245696067810059,-1.4495849609375,0.946044921875,0.2899169921875
14.289999900000002,8.092401504516602,-1.7980455160140991,5.286397457122803,-0.762939453125,1.15966796875,0.8697509765625
14.309999900000001,8.101978302001953,-1.7764976024627686,5.317522048950195,0.274658203125,1.1749267578125,1.6937255859375
14.3299999,8.099584579467773,-1.7597382068634033,5.341464042663574,0.0762939453125,0.9307861328125,1.312255859375
14.3499999,8.090007781982422,-1.7693150043487549,5.331887245178223,-0.4730224609375,0.274658203125,0.762939453125
14.3699999,8.073247909545898,-1.7908629179000854,5.319916248321533,-0.7171630859375,1.7242431640625,0.4730224609375
14.389999900000001,8.056488990783691,-1.802833914756775,5.2911858558654785,-0.54931640625,1.0833740234375,-0.152587890625
14.4099999,8.037335395812988,-1.7980455160140991,5.276820659637451,-0.152587890625,0.9613037109375,0.0762939453125
14.4299999,8.032546997070312,-1.800439715385437,5.2672438621521,0.0457763671875,1.5411376953125,1.4495849609375
14.4499999,8.02536392211914,-1.800439715385437,5.252878665924072,-0.1373291015625,1.1444091796875,1.0986328125
14.469999900000001,8.02536392211914,-1.8124107122421265,5.243301868438721,-0.67138671875,2.227783203125,0.152587890625
14.4899999,8.027758598327637,-1.8291701078414917,5.238513469696045,-0.79345703125,2.5787353515625,0.244140625
14.5099999,8.034940719604492,-1.8291701078414917,5.2480902671813965,-1.0528564453125,2.105712890625,0.5645751953125
14.5299999,8.044517517089844,-1.8195933103561401,5.25527286529541,-0.3814697265625,1.1138916015625,0.8392333984375
14.549999900000001,8.061277389526367,-1.8124107122421265,5.2672438621521,-0.8392333984375,1.3275146484375,1.861572265625
14.569999900000001,8.090007781982422,-1.824381709098816,5.284003257751465,-1.617431640625,2.044677734375,1.983642578125
14.5899999,8.118738174438477,-1.8579005002975464,5.295974254608154,-0.67138671875,1.2969970703125,0.946044921875
14.6099999,8.147468566894531,-1.8914192914962769,5.307945251464844,-1.068115234375,0.7476806640625,0.06103515625
14.629999900000001,8.164227485656738,-1.9129672050476074,5.324704647064209,-1.28173828125,2.0294189453125,-0.274658203125
14.649999900000001,8.164227485656738,-1.9081788063049316,5.327098846435547,-0.4425048828125,2.2735595703125,-0.3204345703125
14.6699999,8.159439086914062,-1.8746598958969116,5.341464042663574,-0.274658203125,1.8310546875,0.0457763671875
14.6899999,8.145073890686035,-1.8363527059555054,5.348646640777588,0.1983642578125,1.0223388671875,0.5950927734375
14.709999900000001,8.128314971923828,-1.8076223134994507,5.353435039520264,-0.1373291015625,0.9613037109375,1.220703125
14.729999900000001,8.1139497756958,-1.8124107122421265,5.3342814445495605,-0.518798828125,0.7171630859375,1.3427734375
14.7499999,8.10437297821045,-1.8507179021835327,5.329493045806885,-0.213623046875,1.7242431640625,-0.213623046875
14.7699999,8.090007781982422,-1.8794482946395874,5.298368453979492,0.823974609375,1.1138916015625,-2.4566650390625
14.789999900000002,8.073247909545898,-1.8794482946395874,5.293580055236816,0.946044921875,1.9683837890625,-1.9378662109375
14.809999900000001,8.056488990783691,-1.843535304069519,5.2911858558654785,-0.2288818359375,1.6937255859375,0.79345703125
14.8299999,8.037335395812988,-1.7932571172714233,5.288791656494141,0.030517578125,0.152587890625,1.861572265625
14.8499999,8.032546997070312,-1.7884687185287476,5.295974254608154,0.518798828125,0.2593994140625,1.556396484375
14.8699999,8.02536392211914,-1.7908629179000854,5.2911858558654785,0.79345703125,1.03759765625,-0.6866455078125
14.889999900000001,8.015787124633789,-1.8124107122421265,5.279214859008789,0.5035400390625,1.5716552734375,-0.6561279296875
14.9099999,8.008605003356934,-1.8363527059555054,5.276820659637451,-0.0762939453125,1.251220703125,1.9989013671875
14.9299999,8.003816604614258,-1.8483237028121948,5.264849662780762,0.1983642578125,-0.4119873046875,1.40380859375
14.9499999,8.001421928405762,-1.867477297782898,5.272032260894775,1.129150390625,-0.3814697265625,-0.823974609375
14.969999900000001,8.006210327148438,-1.8818424940109253,5.286397457122803,0.7171630859375,0.8392333984375,-0.8697509765625
14.9899999,7.99184513092041,-1.8626888990402222,5.260061264038086,1.4190673828125,-0.762939453125,-0.518798828125
15.0099999,7.987056732177734,-1.8291701078414917,5.260061264038086,1.190185546875,1.1444091796875,0.457763671875
15.0299999,7.9846625328063965,-1.8148049116134644,5.236119270324707,0.42724609375,1.739501953125,1.9989013671875
15.049999900000001,7.9846625328063965,-1.8124107122421265,5.207388877868652,0.4425048828125,0.579833984375,1.15966796875
15.069999900000001,8.006210327148438,-1.8363527059555054,5.202600479125977,0.091552734375,2.777099609375,0.6256103515625
15.0899999,8.027758598327637,-1.8746598958969116,5.190629482269287,0.1220703125,3.265380859375,1.220703125
15.1099999,8.061277389526367,-1.9129672050476074,5.22175407409668,0.18310546875,3.204345703125,1.0986328125
15.129999900000001,8.101978302001953,-1.9393033981323242,5.264849662780762,0.1373291015625,2.0904541015625,-0.9765625
15.149999900000001,8.142680168151855,-1.9369091987609863,5.351040840148926,0.762939453125,2.5482177734375,-1.8463134765625
15.1699999,8.17141056060791,-1.900996208190918,5.4228668212890625,1.708984375,0.1373291015625,-0.823974609375
15.1899999,8.209717750549316,-1.8698714971542358,5.509057998657227,1.4495849609375,-1.0223388671875,1.1749267578125
15.209999900000001,8.22887134552002,-1.8052281141281128,5.595249176025391,2.410888671875,0.030517578125,-2.0751953125
15.229999900000001,8.2312650680542,-1.7573440074920654,5.623979568481445,4.8980712890625,-4.0130615234375,-3.3721923828125
15.2499999,8.2312650680542,-1.7190368175506592,5.66228723526001,4.0283203125,-3.90625,0.152587890625
15.2699999,8.214506149291992,-1.6879122257232666,5.669469833374023,4.2877197265625,-5.2642822265625,-0.30517578125
15.289999900000002,8.188169479370117,-1.6903064250946045,5.664681434631348,6.1798095703125,-7.9498291015625,-3.23486328125
15.309999900000001,8.149862289428711,-1.6711528301239014,5.628767967224121,7.843017578125,-11.322021484375,-4.7607421875
15.3299999,8.109161376953125,-1.6400281190872192,5.585672378540039,8.514404296875,-8.97216796875,-2.7008056640625
15.3499999,8.1139497756958,-1.623268723487854,5.590460777282715,7.87353515625,-6.4544677734375,0.885009765625
15.3699999,8.166622161865234,-1.625662922859192,5.676652431488037,10.1776123046875,-12.3443603515625,-3.0364990234375
15.389999900000001,8.216899871826172,-1.6543933153152466,5.6910176277160645,15.7623291015625,-25.1007080078125,-9.124755859375
15.4099999,8.255207061767578,-1.7310078144073486,5.664681434631348,16.3726806640625,-22.186279296875,-6.7901611328125
15.4299999,8.216899871826172,-1.8100165128707886,5.4444146156311035,11.5814208984375,-12.1307373046875,-4.57763671875
15.4499999,8.142680168151855,-1.8938134908676147,5.137956619262695,12.115478515625,-10.986328125,-9.0484619140625
15.469999900000001,8.070854187011719,-1.9823989868164062,4.8722004890441895,13.824462890625,-7.62939453125,-12.7105712890625
15.4899999,8.020575523376465,-2.013523578643799,4.687847137451172,16.2200927734375,-5.6610107421875,-15.625
15.5099999,7.972691535949707,-1.944091796875,4.608838081359863,14.7705078125,-0.762939453125,-16.9525146484375
15.5299999,7.924807548522949,-1.7094600200653076,4.620809078216553,6.89697265625,-0.4730224609375,-13.6566162109375
15.549999900000001,7.893682956695557,-1.3862427473068237,4.795586109161377,-3.72314453125,0.6561279296875,-3.143310546875
15.569999900000001,7.886500358581543,-1.0989385843276978,5.058948040008545,0.152587890625,-5.126953125,6.591796875
15.5899999,7.924807548522949,-0.9672574996948242,5.4252610206604,10.2386474609375,-8.392333984375,1.9989013671875
15.6099999,7.987056732177734,-1.115697979927063,5.647922039031982,22.6898193359375,-14.6636962890625,-10.1776123046875
15.629999900000001,8.056488990783691,-1.4173674583435059,5.657498836517334,32.16552734375,-11.41357421875,-25.1312255859375
15.649999900000001,8.090007781982422,-1.5298948287963867,5.571307182312012,26.1993408203125,3.997802734375,-34.36279296875
15.6699999,8.121131896972656,-1.4844050407409668,5.43723201751709,14.8162841796875,2.74658203125,-20.4925537109375
15.6899999,8.164227485656738,-1.2665326595306396,5.568912982940674,19.073486328125,-2.3193359375,-9.918212890625
15.709999900000001,8.221688270568848,-1.015141487121582,5.731719017028809,33.355712890625,-13.9312744140625,-21.7742919921875
15.729999900000001,8.281543731689453,-0.790086567401886,5.932831764221191,27.862548828125,-18.5699462890625,-28.594970703125
15.7499999,8.365341186523438,-0.6224924325942993,6.0597243309021,5.92041015625,-17.08984375,-13.671875
15.7699999,8.403648376464844,-0.3256114423274994,6.054935932159424,-4.913330078125,-29.052734375,-0.9613037109375
15.789999900000002,8.468291282653809,-0.15562310814857483,5.990292549133301,3.0670166015625,-38.39111328125,5.9814453125
15.809999900000001,8.504204750061035,-0.11013327538967133,5.813121795654297,9.1552734375,-38.055419921875,4.7149658203125
15.8299999,8.556877136230469,-0.38307225704193115,5.453991413116455,4.730224609375,-36.5142822265625,1.9683837890625
15.8499999,8.597578048706055,-0.6727706789970398,5.018246650695801,-5.31005859375,-30.2276611328125,-7.080078125
15.869999900000002,8.645462036132812,-0.8882488012313843,4.503493309020996,-5.401611328125,-29.35791015625,-14.556884765625
15.889999900000001,8.710105895996094,-0.8834604024887085,4.230554580688477,3.7994384765625,-16.17431640625,-10.8489990234375
15.9099999,8.803479194641113,-0.7350199222564697,3.9624037742614746,13.61083984375,-21.97265625,-6.5155029296875
15.9299999,8.904036521911621,-0.4884171485900879,3.9384617805480957,11.322021484375,-26.67236328125,-11.0931396484375
15.9499999,8.995016098022461,-0.2298433631658554,3.936067581176758,-2.1820068359375,-26.7486572265625,-10.7269287109375
15.969999900000001,9.07641887664795,-0.05506663769483566,4.003105163574219,-7.415771484375,-30.8990478515625,0.9918212890625
15.9899999,9.119514465332031,0.07182604819536209,4.0533833503723145,4.5623779296875,-29.7393798828125,1.434326171875
16.0099999,9.138668060302734,0.08379705995321274,4.108449935913086,17.852783203125,-25.9246826171875,-10.040283203125
16.0299999,9.148244857788086,-0.05985504388809204,4.067748546600342,16.845703125,-31.43310546875,-12.3443603515625
16.0499999,9.133879661560059,-0.1388636976480484,4.077325344085693,0.1678466796875,-34.1644287109375,-8.8653564453125
16.0699999,9.074024200439453,-0.11971008777618408,3.9863457679748535,-10.5438232421875,-43.5333251953125,-2.7923583984375
16.089999900000002,9.040505409240723,-0.12210428714752197,3.845088005065918,8.941650390625,-43.8079833984375,2.8228759765625
16.109999900000002,9.028534889221191,-0.016759412363171577,3.708618402481079,27.740478515625,-22.918701171875,-11.077880859375
16.1299999,9.038111686706543,0.06224924325942993,3.5170822143554688,16.2353515625,-27.2674560546875,-14.6026611328125
16.1499999,9.090784072875977,0.1149216815829277,3.318363666534424,-4.302978515625,-47.42431640625,1.2054443359375
16.1699999,9.167398452758789,0.181959331035614,3.2130186557769775,-8.1329345703125,-44.25048828125,8.60595703125
16.1899999,9.217676162719727,0.24181437492370605,2.96162748336792,0.457763671875,-45.2880859375,1.5411376953125
16.2099999,9.294290542602539,0.23702596127986908,2.650381326675415,6.0577392578125,-44.403076171875,1.3885498046875
16.2299999,9.35654067993164,0.2059013396501541,2.2457611560821533,-3.1280517578125,-32.928466796875,5.9051513671875
16.249999900000002,9.370905876159668,0.20111294090747833,1.8531121015548706,-5.7830810546875,-31.0821533203125,5.92041015625
16.269999900000002,9.411606788635254,0.1843535304069519,1.3263877630233765,0.30517578125,-42.96875,5.5084228515625
16.2899999,9.404424667358398,0.14844051003456116,1.05105459690094,-1.5106201171875,-21.209716796875,5.3253173828125
16.3099999,9.418789863586426,0.06703764945268631,0.7805097699165344,0.8697509765625,-11.65771484375,7.26318359375
16.3299999,9.435548782348633,-0.021547814831137657,0.6871358752250671,1.861572265625,-18.5699462890625,-0.213623046875
16.3499999,9.481039047241211,-0.22744916379451752,0.727837324142456,-2.2430419921875,-14.7552490234375,3.41796875
16.3699999,9.564835548400879,-0.3495534360408783,0.768538773059845,-0.48828125,-14.0380859375,-2.685546875
16.3899999,9.670180320739746,-0.4381389021873474,0.8571242094039917,0.640869140625,-1.9683837890625,-10.986328125
16.4099999,9.763554573059082,-0.4429273009300232,0.9552865028381348,7.659912109375,1.2054443359375,-13.12255859375
16.429999900000002,9.854534149169922,-0.3758896589279175,1.1037269830703735,10.1776123046875,-8.636474609375,-9.6435546875
16.4499999,9.9000244140625,-0.31364041566848755,1.1492167711257935,9.58251953125,-17.76123046875,-4.8065185546875
16.4699999,9.967061996459961,-0.2944868206977844,1.1755530834197998,8.9263916015625,-10.4217529296875,-3.9215087890625
16.4899999,9.995792388916016,-0.3064578175544739,1.1324573755264282,10.284423828125,-0.8544921875,-10.284423828125
16.5099999,9.988609313964844,-0.31124621629714966,1.1803414821624756,11.2457275390625,-2.86865234375,-17.2882080078125
16.5299999,9.883264541625977,-0.19632454216480255,1.2210428714752197,10.92529296875,-14.9688720703125,-18.310546875
16.5499999,9.730035781860352,-0.05506663769483566,1.290474772453308,9.552001953125,-17.5933837890625,-10.528564453125
16.5699999,9.548076629638672,0.08140286058187485,1.1899182796478271,12.2222900390625,-15.228271484375,-3.6468505859375
16.589999900000002,9.41400146484375,0.14844051003456116,0.9792284965515137,19.3939208984375,-9.94873046875,-13.61083984375
16.609999900000002,9.342175483703613,0.14365209639072418,0.7852981686592102,19.3634033203125,4.2877197265625,-21.7742919921875
16.6299999,9.35893440246582,0.1867477297782898,0.7086837291717529,13.1988525390625,4.39453125,-21.270751953125
16.6499999,9.459490776062012,0.2944868206977844,0.8188169598579407,7.26318359375,-6.4697265625,-13.5498046875
16.6699999,9.560047149658203,0.5195417404174805,0.9241618514060974,9.429931640625,-16.357421875,-9.796142578125
16.6899999,9.670180320739746,0.7422025203704834,0.9888052940368652,7.01904296875,-12.0849609375,-8.697509765625
16.7099999,9.763554573059082,0.8858546018600464,0.8667010068893433,12.1612548828125,-3.9215087890625,-0.7171630859375
16.7299999,9.821015357971191,0.9600749015808105,0.7038952708244324,16.0369873046875,3.2196044921875,-2.8228759765625
16.749999900000002,9.907206535339355,0.8930372595787048,0.5746083855628967,13.3514404296875,0.701904296875,-4.8065185546875
16.769999900000002,10.005369186401367,0.7661445140838623,0.5626373887062073,8.1024169921875,-2.349853515625,-2.593994140625
16.7899999,10.08198356628418,0.6823474764823914,0.6033388376235962,0.6103515625,-3.7384033203125,-1.9073486328125
16.8099999,10.11789608001709,0.6368576288223267,0.6224924325942993,-0.5645751953125,-8.6822509765625,1.861572265625
16.8299999,10.101137161254883,0.6009446382522583,0.6033388376235962,0.396728515625,-7.5225830078125,5.9661865234375
16.8499999,10.022128105163574,0.5770025849342346,0.4692635238170624,2.3193359375,-8.880615234375,3.5552978515625
16.8699999,9.909601211547852,0.49559974670410156,0.2753331959247589,-3.936767578125,-7.965087890625,0.885009765625
16.8899999,9.799467086791992,0.40222588181495667,0.1388636976480484,-11.749267578125,-0.9307861328125,0.9918212890625
16.9099999,9.706093788146973,0.3423708379268646,0.090979665517807,-11.566162109375,-0.030517578125,-1.28173828125
16.929999900000002,9.651026725769043,0.3208230137825012,0.1843535304069519,-5.7830810546875,-3.4027099609375,-4.791259765625
16.9499999,9.634267807006836,0.3734954595565796,0.3998316824436188,-3.0975341796875,-2.593994140625,-6.0272216796875
16.9699999,9.63187313079834,0.4644751250743866,0.6153098344802856,-1.0986328125,-2.655029296875,-5.645751953125
16.9899999,9.639056205749512,0.6009446382522583,0.8307880163192749,-2.0904541015625,1.0986328125,-4.8828125
17.0099999,9.641449928283691,0.7422025203704834,0.9696516990661621,-1.40380859375,1.15966796875,-4.8828125
17.0299999,9.646238327026367,0.8595184087753296,1.0534487962722778,0.2288818359375,1.6632080078125,-2.7923583984375
17.0499999,9.653421401977539,0.9385270476341248,1.1061211824417114,0.6103515625,4.39453125,-0.7171630859375
17.0699999,9.677363395690918,0.9409212470054626,1.137245774269104,1.03759765625,1.922607421875,0.244140625
17.089999900000002,9.713275909423828,0.8595184087753296,1.1300631761550903,2.655029296875,-0.946044921875,0.732421875
17.109999900000002,9.744400978088379,0.7422025203704834,1.1180921792984009,0.9002685546875,0.42724609375,-2.5787353515625
17.1299999,9.761159896850586,0.6177040338516235,1.048660397529602,-0.213623046875,1.190185546875,-4.3792724609375
17.1499999,9.751583099365234,0.545877993106842,0.9385270476341248,-0.1983642578125,-0.1678466796875,-3.6773681640625
17.1699999,9.730035781860352,0.545877993106842,0.8475474119186401,-1.434326171875,2.4566650390625,-3.6163330078125
17.1899999,9.701305389404297,0.6153098344802856,0.7781155705451965,-2.62451171875,4.45556640625,-4.4403076171875
17.2099999,9.682151794433594,0.7230489253997803,0.7637503147125244,-1.03759765625,3.7841796875,-2.9754638671875
17.2299999,9.672574996948242,0.828393816947937,0.8068459630012512,-1.556396484375,3.9215087890625,-0.396728515625
17.249999900000002,9.674968719482422,0.9026140570640564,0.8882488012313843,-1.983642578125,3.936767578125,0.1220703125
17.269999900000002,9.696516990661621,0.8930372595787048,0.9768342971801758,-1.7852783203125,4.3792724609375,0.6103515625
17.2899999,9.720458984375,0.8403648138046265,1.0606313943862915,-0.7476806640625,3.7078857421875,-0.6103515625
17.3099999,9.751583099365234,0.7326257228851318,1.1228805780410767,-1.1749267578125,3.5247802734375,-0.42724609375
17.3299999,9.768342971801758,0.6392518281936646,1.1516109704971313,-2.0751953125,2.8533935546875,-1.6326904296875
17.3499999,9.77791976928711,0.5554547905921936,1.1516109704971313,-1.8310546875,3.204345703125,-2.838134765625
17.3699999,9.768342971801758,0.5410895943641663,1.1300631761550903,-2.86865234375,2.838134765625,-4.5928955078125
17.3899999,9.763554573059082,0.5578489899635315,1.1085153818130493,-2.25830078125,3.90625,-2.471923828125
17.409999900000003,9.761159896850586,0.6272808313369751,1.094150185585022,-0.396728515625,3.570556640625,-2.288818359375
17.429999900000002,9.775525093078613,0.6967126727104187,1.115697979927063,0.2288818359375,4.5166015625,-3.265380859375
17.4499999,9.794678688049316,0.7661445140838623,1.1659762859344482,0.335693359375,3.35693359375,-3.90625
17.4699999,9.81143856048584,0.8355764150619507,1.2042834758758545,0.2593994140625,-0.152587890625,-3.5400390625
17.4899999,9.80904483795166,0.9145850539207458,1.2449848651885986,-0.6256103515625,-0.2288818359375,-1.983642578125
17.5099999,9.794678688049316,0.9720458984375,1.2449848651885986,-1.3275146484375,0,0.9918212890625
17.5299999,9.770736694335938,1.0127472877502441,1.2018892765045166,-0.0457763671875,-2.5177001953125,1.64794921875
17.5499999,9.75397777557373,1.0031704902648926,1.1516109704971313,0.7171630859375,-1.373291015625,0.946044921875
17.5699999,9.739612579345703,0.9624691009521484,1.1013327836990356,0.3662109375,0.274658203125,0.2288818359375
17.589999900000002,9.727641105651855,0.9002198576927185,1.0462661981582642,0.946044921875,-1.007080078125,0.701904296875
17.609999900000002,9.713275909423828,0.8595184087753296,1.01753568649292,0.4730224609375,-0.640869140625,0.0762939453125
17.6299999,9.703699111938477,0.8259995579719543,1.01753568649292,-0.4119873046875,1.5716552734375,0.3662109375
17.6499999,9.696516990661621,0.8212111592292786,1.0271124839782715,0.2593994140625,0.1068115234375,1.190185546875
17.6699999,9.691728591918945,0.8092401623725891,1.0606313943862915,1.0833740234375,-0.732421875,2.3040771484375
17.6899999,9.68933391571045,0.8140285611152649,1.0749965906143188,1.6326904296875,-0.6256103515625,1.9378662109375
17.7099999,9.684545516967773,0.7972691655158997,1.0797849893569946,0.823974609375,0.4730224609375,1.861572265625
17.7299999,9.679757118225098,0.7781155705451965,1.0678139925003052,-0.0152587890625,1.007080078125,2.716064453125
17.749999900000002,9.677363395690918,0.7589619159698486,1.036689281463623,0.7476806640625,-0.5645751953125,1.617431640625
17.769999900000002,9.684545516967773,0.7350199222564697,1.0295066833496094,0.06103515625,1.8157958984375,1.5106201171875
17.7899999,9.703699111938477,0.7038952708244324,1.0319008827209473,0.396728515625,2.166748046875,2.471923828125
17.8099999,9.727641105651855,0.689530074596405,1.0462661981582642,0.6256103515625,-0.18310546875,0.9918212890625
17.8299999,9.758766174316406,0.6823474764823914,1.0654197931289673,0.6256103515625,-0.9002685546875,0.1220703125
17.8499999,9.782708168029785,0.6775590777397156,1.0845733880996704,-0.396728515625,0.9002685546875,0.885009765625
17.8699999,9.794678688049316,0.7038952708244324,1.0821791887283325,0.091552734375,-0.396728515625,0.67138671875
17.8899999,9.78989028930664,0.7350199222564697,1.0797849893569946,0.3662109375,-1.8463134765625,0.8087158203125
17.909999900000003,9.77791976928711,0.7565677165985107,1.05105459690094,-0.0457763671875,-2.7923583984375,3.3111572265625
17.929999900000002,9.749189376831055,0.7972691655158997,1.0103530883789062,-5.1422119140625,-4.0283203125,4.2877197265625
17.9499999,9.730035781860352,0.7852981686592102,0.9720458984375,-9.09423828125,-3.5400390625,6.2713623046875
17.9699999,9.708487510681152,0.7613561153411865,0.9361328482627869,-5.615234375,-4.058837890625,5.706787109375
17.9899999,9.701305389404297,0.7038952708244324,0.912190854549408,-1.495361328125,-3.90625,2.4566650390625
18.0099999,9.701305389404297,0.6320692300796509,0.8930372595787048,0.1678466796875,-1.0986328125,0.396728515625
18.0299999,9.696516990661621,0.5937620401382446,0.8643068075180054,0.8087158203125,0.8392333984375,-1.3275146484375
18.0499999,9.691728591918945,0.5985504388809204,0.8595184087753296,0.213623046875,1.800537109375,-1.3275146484375
18.0699999,9.691728591918945,0.6368576288223267,0.8667010068893433,1.861572265625,1.3885498046875,-0.0762939453125
18.089999900000002,9.696516990661621,0.6799532771110535,0.9026140570640564,3.662109375,1.3885498046875,0.335693359375
18.109999900000002,9.715670585632324,0.7015010714530945,0.9265560507774353,4.8065185546875,1.7852783203125,-0.518798828125
18.1299999,9.739612579345703,0.706289529800415,0.950498104095459,6.805419921875,3.0975341796875,-2.8228759765625
18.1499999,9.765948295593262,0.6823474764823914,0.9648633003234863,8.087158203125,4.82177734375,-2.6702880859375
18.1699999,9.787496566772461,0.6631938815116882,0.9792284965515137,6.8359375,3.0517578125,-1.9989013671875
18.1899999,9.792284965515137,0.6560112833976746,0.9816226959228516,3.6773681640625,0.5340576171875,-1.373291015625
18.2099999,9.785101890563965,0.6631938815116882,0.9983820915222168,1.373291015625,0.8087158203125,-0.518798828125
18.2299999,9.761159896850586,0.6823474764823914,0.9911994934082031,2.0599365234375,0.8087158203125,0.48828125
18.249999900000002,9.734824180603027,0.6991068720817566,0.9816226959228516,3.1890869140625,0.244140625,0.5035400390625
18.269999900000002,9.710882186889648,0.7015010714530945,0.9672574996948242,1.9378662109375,1.434326171875,0.030517578125
18.2899999,9.701305389404297,0.6823474764823914,0.9481038451194763,1.0223388671875,1.6632080078125,-0.030517578125
18.3099999,9.703699111938477,0.6751648783683777,0.9385270476341248,1.1749267578125,1.8157958984375,-0.9765625
18.3299999,9.715670585632324,0.667982280254364,0.9409212470054626,1.2359619140625,1.678466796875,-0.946044921875
18.3499999,9.730035781860352,0.6775590777397156,0.9433154463768005,1.495361328125,1.03759765625,-0.7781982421875
18.3699999,9.739612579345703,0.6847416758537292,0.950498104095459,0.5645751953125,0.9613037109375,-1.0986328125
18.3899999,9.746794700622559,0.6919242739677429,0.950498104095459,-0.5035400390625,0.457763671875,-0.885009765625
18.409999900000003,9.744400978088379,0.7134721279144287,0.9481038451194763,-1.0528564453125,0.8544921875,-1.52587890625
18.429999900000002,9.739612579345703,0.7422025203704834,0.9552865028381348,-1.220703125,1.7547607421875,-0.8392333984375
18.4499999,9.727641105651855,0.7781155705451965,0.9696516990661621,-0.91552734375,1.6632080078125,0.6561279296875
18.4699999,9.715670585632324,0.7996633648872375,0.9816226959228516,1.007080078125,0.091552734375,1.0833740234375
18.4899999,9.713275909423828,0.7948749661445618,0.9983820915222168,1.2664794921875,1.5106201171875,0.4119873046875
18.5099999,9.708487510681152,0.7805097699165344,0.9959878921508789,0.7781982421875,1.4495849609375,-0.579833984375
18.5299999,9.713275909423828,0.7422025203704834,0.9816226959228516,0.5035400390625,0.5340576171875,0.7781982421875
18.5499999,9.713275909423828,0.706289529800415,0.9576807022094727,-0.4730224609375,0.274658203125,0.9765625
18.5699999,9.710882186889648,0.6751648783683777,0.9217676520347595,-0.701904296875,1.2359619140625,-0.1678466796875
18.589999900000002,9.703699111938477,0.6584054827690125,0.8858546018600464,-0.701904296875,2.197265625,-0.5950927734375
18.609999900000002,9.694122314453125,0.6631938815116882,0.8643068075180054,-0.0457763671875,2.9296875,-0.244140625
18.6299999,9.694122314453125,0.6871358752250671,0.8667010068893433,1.312255859375,3.5552978515625,-0.3814697265625
18.6499999,9.706093788146973,0.7086837291717529,0.9074024558067322,2.13623046875,4.7454833984375,-1.129150390625
18.6699999,9.734824180603027,0.7254431247711182,0.9552865028381348,3.23486328125,3.662109375,-1.6326904296875
18.6899999,9.763554573059082,0.7445967197418213,1.0079588890075684,1.922607421875,2.0751953125,-1.77001953125
18.7099999,9.78989028930664,0.7661445140838623,1.0582371950149536,0.152587890625,2.044677734375,-0.1678466796875
18.7299999,9.804255485534668,0.7781155705451965,1.0821791887283325,0.67138671875,0.7781982421875,1.1444091796875
18.749999900000002,9.81143856048584,0.7661445140838623,1.1013327836990356,0.732421875,-0.0457763671875,1.068115234375
18.769999900000002,9.81143856048584,0.7230489253997803,1.091755986213684,0.274658203125,-0.5645751953125,0.1678466796875
18.7899999,9.804255485534668,0.6799532771110535,1.0534487962722778,0.6103515625,-0.6561279296875,-1.6326904296875
18.8099999,9.785101890563965,0.6607996821403503,1.0055646896362305,0.5035400390625,0.457763671875,-2.349853515625
18.8299999,9.761159896850586,0.6823474764823914,0.9576807022094727,-0.1373291015625,0.9307861328125,-0.91552734375
18.8499999,9.739612579345703,0.7230489253997803,0.933738648891449,-0.640869140625,0.3814697265625,0.518798828125
18.8699999,9.730035781860352,0.7613561153411865,0.9361328482627869,-0.457763671875,0.18310546875,0.2593994140625
18.8899999,9.725247383117676,0.7876923680305481,0.9648633003234863,0,0.213623046875,-0.48828125
18.909999900000003,9.732429504394531,0.7781155705451965,0.9768342971801758,0.823974609375,-1.312255859375,0.5035400390625
18.929999900000002,9.734824180603027,0.7709329724311829,0.9864110946655273,0.3509521484375,-0.6866455078125,0.4119873046875
18.9499999,9.732429504394531,0.751779317855835,0.9744400978088379,-0.3509521484375,0.6256103515625,-1.007080078125
18.9699999,9.725247383117676,0.751779317855835,0.9576807022094727,0.1068115234375,0.0152587890625,-1.007080078125
18.9899999,9.720458984375,0.7541735172271729,0.950498104095459,0.1220703125,0.213623046875,0.1373291015625
19.0099999,9.710882186889648,0.7637503147125244,0.9265560507774353,1.5716552734375,-0.9918212890625,0.3814697265625
19.0299999,9.703699111938477,0.7757213711738586,0.9193734526634216,0.3509521484375,0.67138671875,-0.9613037109375
19.0499999,9.696516990661621,0.7709329724311829,0.9026140570640564,-0.091552734375,1.1749267578125,-0.274658203125
19.0699999,9.68933391571045,0.7613561153411865,0.8954314589500427,0.79345703125,0.18310546875,0.91552734375
19.089999900000002,9.682151794433594,0.7469909191131592,0.9002198576927185,0.4730224609375,0.6256103515625,0.4425048828125
19.109999900000002,9.684545516967773,0.706289529800415,0.8978256583213806,-0.30517578125,1.0223388671875,0.457763671875
19.1299999,9.68933391571045,0.6655880808830261,0.8978256583213806,-0.946044921875,1.6326904296875,-0.335693359375
19.1499999,9.694122314453125,0.6607996821403503,0.9097966551780701,-0.3509521484375,2.0599365234375,-1.922607421875
19.1699999,9.701305389404297,0.6727706789970398,0.9193734526634216,-0.2593994140625,1.190185546875,-0.3204345703125
19.1899999,9.706093788146973,0.7015010714530945,0.9289502501487732,-0.6256103515625,0.701904296875,1.4495849609375
19.2099999,9.715670585632324,0.7230489253997803,0.9145850539207458,-0.335693359375,1.2359619140625,0.4425048828125
19.2299999,9.727641105651855,0.7422025203704834,0.9026140570640564,-1.2054443359375,3.1890869140625,-1.8310546875
19.249999900000002,9.746794700622559,0.7541735172271729,0.8978256583213806,-1.0833740234375,2.9144287109375,-1.03759765625
19.269999900000002,9.761159896850586,0.790086567401886,0.9217676520347595,-1.220703125,1.708984375,0.0762939453125
19.2899999,9.782708168029785,0.811634361743927,0.9648633003234863,-0.2593994140625,0.3814697265625,0.5340576171875
19.3099999,9.792284965515137,0.8259995579719543,1.0031704902648926,0.4730224609375,0.030517578125,0.1678466796875
19.3299999,9.78989028930664,0.8259995579719543,1.01753568649292,-0.1678466796875,0.1220703125,-0.640869140625
19.3499999,9.770736694335938,0.8092401623725891,0.9888052940368652,-0.0152587890625,-0.0457763671875,0.1373291015625
19.3699999,9.739612579345703,0.7972691655158997,0.9409212470054626,-0.2899169921875,0.67138671875,0.2899169921875
19.3899999,9.710882186889648,0.7757213711738586,0.8906430602073669,-1.28173828125,1.7547607421875,0.0152587890625
19.409999900000003,9.6989107131958,0.7493851184844971,0.8619126081466675,-2.0904541015625,1.6326904296875,-0.2288818359375
19.429999900000002,9.703699111938477,0.730231523513794,0.8595184087753296,-1.7547607421875,0.8392333984375,-0.3662109375
19.4499999,9.718064308166504,0.7350199222564697,0.8762778043746948,-1.1138916015625,0.79345703125,-0.8697509765625
19.4699999,9.742006301879883,0.7469909191131592,0.9097966551780701,-1.5411376953125,1.8157958984375,-0.30517578125
19.4899999,9.75637149810791,0.7829039692878723,0.9265560507774353,0.152587890625,1.28173828125,-0.06103515625
19.5099999,9.763554573059082,0.8259995579719543,0.9457096457481384,0.8087158203125,1.2054443359375,-0.5340576171875
19.5299999,9.763554573059082,0.8619126081466675,0.9624691009521484,0.213623046875,1.739501953125,0.9765625
19.5499999,9.75637149810791,0.871489405632019,0.9576807022094727,0.732421875,0.4119873046875,2.0294189453125
19.5699999,9.746794700622559,0.8571242094039917,0.950498104095459,0.9765625,0.4730224609375,1.2359619140625
19.589999900000002,9.737217903137207,0.8307880163192749,0.9265560507774353,1.0223388671875,1.495361328125,-0.579833984375
19.609999900000002,9.72285270690918,0.8164227604866028,0.912190854549408,0.579833984375,2.410888671875,-0.1678466796875
19.6299999,9.708487510681152,0.8188169598579407,0.9002198576927185,0.8087158203125,1.190185546875,1.8768310546875
19.6499999,9.691728591918945,0.8331822156906128,0.8882488012313843,1.861572265625,0.518798828125,2.3956298828125
19.6699999,9.684545516967773,0.8451532125473022,0.8643068075180054,2.4871826171875,1.5411376953125,1.1444091796875
19.6899999,9.684545516967773,0.8619126081466675,0.8403648138046265,1.251220703125,3.662109375,0.5645751953125
19.7099999,9.682151794433594,0.8858546018600464,0.7996633648872375,1.9073486328125,2.13623046875,2.197265625
19.7299999,9.6989107131958,0.9145850539207458,0.7445967197418213,3.9520263671875,0.946044921875,3.997802734375
19.749999900000002,9.75637149810791,0.9457096457481384,0.6177040338516235,6.500244140625,1.556396484375,3.3721923828125
19.769999900000002,9.885659217834473,1.0295066833496094,0.4381389021873474,8.941650390625,5.645751953125,0
19.7899999,10.091560363769531,1.2186486721038818,0.24181437492370605,10.8489990234375,7.537841796875,-0.7171630859375
19.8099999,10.359710693359375,1.4221558570861816,0.014365210197865963,12.8936767578125,-2.13623046875,10.55908203125
19.8299999,10.613495826721191,1.501164436340332,-0.395043283700943,15.716552734375,-23.529052734375,24.4293212890625
19.8499999,10.742782592773438,1.3958195447921753,-1.0606313943862915,10.3607177734375,-34.3170166015625,23.7274169921875
19.8699999,10.773907661437988,0.8020575642585754,-2.0207061767578125,2.8076171875,-30.3192138671875,26.7333984375
19.8899999,10.591948509216309,0.12928688526153564,-3.28963303565979,0.48828125,-27.099609375,10.7879638671875
19.909999900000003,10.345345497131348,-0.6799532771110535,-4.448426723480225,-0.67138671875,-0.7781982421875,-5.0506591796875
19.929999900000002,10.103530883789062,-1.3215993642807007,-5.317522048950195,4.241943359375,37.689208984375,-11.4898681640625
19.9499999,9.93354320526123,-1.6136919260025024,-5.616796970367432,-3.7689208984375,48.7213134765625,-21.759033203125
19.9699999,9.775525093078613,-1.0893617868423462,-5.4013190269470215,-11.8408203125,48.095703125,-27.557373046875
19.9899999,9.691728591918945,-0.019153613597154617,-4.639962673187256,-29.4189453125,49.2401123046875,10.68115234375
20.0099999,9.569623947143555,1.0893617868423462,-3.9001545906066895,-39.1845703125,40.46630859375,67.6422119140625
20.0299999,9.409213066101074,1.7980455160140991,-3.4165258407592773,-41.1224365234375,40.130615234375,80.0933837890625
20.0499999,9.272743225097656,1.37906014919281,-3.047818660736084,-55.72509765625,84.3048095703125,57.952880859375
20.0699999,8.971074104309082,0.3519476354122162,-2.9281086921691895,-61.798095703125,112.823486328125,38.9862060546875
20.089999900000002,8.611943244934082,-0.7469909191131592,-2.3343467712402344,-48.6602783203125,132.720947265625,21.3165283203125
20.109999900000002,8.1139497756958,-1.8962076902389526,-1.2952631711959839,-31.7840576171875,147.3236083984375,21.575927734375
20.1299999,7.400477409362793,-2.205059766769409,0.3064578175544739,-56.549072265625,126.52587890625,5.218505859375
20.1499999,6.449979305267334,-2.276885747909546,2.0877439975738525,-104.06494140625,112.823486328125,13.671875
20.1699999,5.4252610206604,-2.5522189140319824,4.240131378173828,-74.6612548828125,137.5579833984375,58.4716796875
20.1899999,4.350264549255371,-2.827552318572998,6.370970726013184,3.2501220703125,175.3082275390625,15.7928466796875
20.2099999,3.442862033843994,-3.251325845718384,8.719682693481445,18.2037353515625,185.7757568359375,-46.0662841796875
20.2299999,3.0621838569641113,-3.689464807510376,11.070788383483887,-45.47119140625,178.6651611328125,-19.9432373046875
20.249999900000002,3.3207578659057617,-3.648763418197632,13.30457878112793,-92.9107666015625,155.9295654296875,16.4642333984375
20.269999900000002,4.3622355461120605,-3.0166940689086914,15.042769432067871,-71.4263916015625,115.4937744140625,-11.1541748046875
20.2899999,6.141127586364746,-2.2361843585968018,16.51520347595215,-8.1939697265625,95.7794189453125,-52.2308349609375
20.3099999,7.8529815673828125,-0.6703764796257019,17.24543571472168,35.6903076171875,39.97802734375,-70.6787109375
20.3299999,8.80587387084961,1.0223240852355957,16.58463478088379,23.86474609375,-64.5751953125,-16.387939453125
20.3499999,8.652645111083984,2.250549554824829,14.231135368347168,-15.1824951171875,-118.95751953125,68.05419921875
20.3699999,7.740454196929932,2.0422539710998535,10.54645824432373,-29.1595458984375,-56.8389892578125,88.897705078125
20.3899999,6.6846113204956055,0.4572925269603729,6.378153324127197,-5.2337646484375,25.115966796875,23.9105224609375
20.409999900000003,6.191405773162842,-1.7094600200653076,3.5625722408294678,9.9945068359375,58.7615966796875,-40.2984619140625
20.429999900000002,6.320692539215088,-3.1028854846954346,2.7078421115875244,2.74658203125,45.989990234375,-46.81396484375
20.4499999,6.75883150100708,-3.0573954582214355,3.466804027557373,-0.54931640625,-0.1220703125,-18.646240234375
20.4699999,7.254431247711182,-2.1571757793426514,4.948814868927002,-1.2359619140625,-20.355224609375,17.8680419921875
20.4899999,7.55131196975708,-1.1252747774124146,6.102819919586182,-0.7781982421875,-17.0745849609375,25.390625
20.5099999,7.644686222076416,-0.6105214357376099,6.62236213684082,-3.021240234375,-7.0343017578125,12.3748779296875
20.5299999,7.594407558441162,-0.6248866319656372,6.593631267547607,-5.1116943359375,-1.220703125,4.2877197265625
20.5499999,7.465120792388916,-0.7948749661445618,6.308721542358398,-4.8980712890625,-3.5858154296875,2.9754638671875
20.5699999,7.331045627593994,-0.9050082564353943,6.035782337188721,-5.7373046875,-4.1656494140625,7.62939453125
20.589999900000002,7.254431247711182,-0.9768342971801758,5.801150798797607,-3.173828125,-6.9122314453125,15.3656005859375
20.609999900000002,7.249642848968506,-1.0989385843276978,5.669469833374023,-2.8839111328125,-4.364013671875,17.7001953125
20.6299999,7.307103633880615,-1.3215993642807007,5.523423194885254,-2.838134765625,-4.6844482421875,10.5438232421875
20.6499999,7.41484260559082,-1.6424223184585571,5.420472621917725,-3.11279296875,1.251220703125,3.5400390625
20.6699999,7.529764175415039,-1.8507179021835327,5.370194435119629,-2.105712890625,7.38525390625,-0.6256103515625
20.6899999,7.632715225219727,-1.8483237028121948,5.456385612487793,-2.2430419921875,9.674072265625,-0.7171630859375
20.7099999,7.738059997558594,-1.680729627609253,5.65031623840332,-0.9765625,2.5787353515625,6.34765625
20.7299999,7.838616371154785,-1.4915876388549805,5.954379558563232,0.9002685546875,1.40380859375,11.7645263671875
