# Time (seconds),Accel_X,Accel_Y,Accel_Z,Gyro_X,Gyro_Y,Gyro_Z
0.0099999,-8.44434928894043,-3.689464807510376,5.2049946784973145,19.0582275390625,1.0833740234375,-30.09033203125
0.029999900000000003,-8.916007041931152,-3.35667085647583,5.492298603057861,-18.829345703125,5.828857421875,29.8309326171875
0.0499999,-9.346963882446289,-3.3518824577331543,5.355829238891602,-12.2528076171875,-34.2864990234375,40.2374267578125
0.0699999,-9.543288230895996,-3.490746021270752,5.097255229949951,1.3275146484375,-79.8797607421875,45.41015625
0.08999990000000001,-9.533711433410645,-3.7014358043670654,4.711789131164551,-10.07080078125,-91.4306640625,40.130615234375
0.10999990000000001,-9.370905876159668,-3.885789394378662,4.168305397033691,-17.0440673828125,-82.94677734375,33.99658203125
0.1299999,-9.17936897277832,-4.015076160430908,3.5865142345428467,-18.9208984375,-64.5294189453125,30.2581787109375
0.14999990000000002,-8.916007041931152,-4.10366153717041,3.0837318897247314,-17.88330078125,-42.66357421875,28.0303955078125
0.1699999,-8.585607528686523,-4.185064792633057,2.786850690841675,-15.7318115234375,-15.56396484375,22.4456787109375
0.1899999,-8.111555099487305,-4.280832767486572,2.736572504043579,-9.368896484375,8.8653564453125,8.819580078125
0.20999990000000002,-7.625532627105713,-4.359841346740723,2.920926094055176,2.5787353515625,24.3377685546875,-9.0789794921875
0.2299999,-7.316680431365967,-4.359841346740723,3.248931646347046,10.19287109375,33.0047607421875,-26.3824462890625
0.2499999,-7.311892032623291,-4.240131378173828,3.627215623855591,9.70458984375,36.9873046875,-38.6199951171875
0.2699999,-7.560888767242432,-4.005499362945557,3.9863457679748535,3.875732421875,39.6881103515625,-44.4793701171875
0.28999990000000003,-7.86734676361084,-3.706224203109741,4.290409564971924,0.8392333984375,35.58349609375,-44.921875
0.3099999,-8.118738174438477,-3.399766445159912,4.505887508392334,7.3699951171875,19.378662109375,-38.970947265625
0.3299999,-8.255207061767578,-3.1268274784088135,4.592078685760498,12.87841796875,0.885009765625,-25.390625
0.34999990000000003,-8.324639320373535,-2.9233202934265137,4.546588897705078,7.4462890625,-4.608154296875,-6.3934326171875
0.3699999,-8.360552787780762,-2.82515811920166,4.398148536682129,-1.312255859375,5.06591796875,7.904052734375
0.3899999,-8.456320762634277,-2.8610711097717285,4.266467571258545,-12.7410888671875,26.3519287109375,8.11767578125
0.40999990000000003,-8.53532886505127,-3.0406360626220703,4.24970817565918,-17.333984375,40.496826171875,5.4931640625
0.4299999,-8.552088737487793,-3.335123062133789,4.402936935424805,-12.054443359375,35.09521484375,6.4849853515625
0.4499999,-8.56645393371582,-3.643975019454956,4.608838081359863,-5.462646484375,1.52587890625,0.79345703125
0.4699999,-8.47786808013916,-3.8762125968933105,4.726154327392578,5.615234375,-32.65380859375,0.0762939453125
0.4899999,-8.372523307800293,-3.9695863723754883,4.654327869415283,2.9449462890625,-31.829833984375,1.2054443359375
0.5099999,-8.269572257995605,-3.9193081855773926,4.393360137939453,-9.735107421875,-9.82666015625,-2.105712890625
0.5299999,-8.14028549194336,-3.7876269817352295,4.065354347229004,-5.401611328125,4.1656494140625,-0.9765625
0.5499999,-8.051700592041016,-3.6343982219696045,3.7924153804779053,3.2806396484375,3.72314453125,1.678466796875
0.5699999,-8.010998725891113,-3.5051112174987793,3.6152446269989014,5.92041015625,-2.44140625,6.89697265625
0.5899998999999999,-8.073247909545898,-3.4189200401306152,3.531447410583496,-1.3580322265625,-1.0833740234375,12.0086669921875
0.6099998999999999,-8.22887134552002,-3.399766445159912,3.555389642715454,-13.153076171875,9.918212890625,14.6636962890625
0.6299999,-8.44434928894043,-3.4620156288146973,3.6798880100250244,-14.678955078125,9.9639892578125,17.4407958984375
0.6499999,-8.607154846191406,-3.60566782951355,3.8714241981506348,-5.6304931640625,-12.0391845703125,22.7203369140625
0.6699999,-8.702922821044922,-3.773261785507202,4.039018154144287,-0.2593994140625,-32.8521728515625,23.86474609375
0.6899999,-8.746018409729004,-3.9049429893493652,4.082113742828369,-0.67138671875,-31.31103515625,20.44677734375
0.7099999,-8.791508674621582,-3.976768970489502,3.998316764831543,-2.38037109375,-10.1776123046875,18.1427001953125
0.7299998999999999,-8.841787338256836,-4.0294413566589355,3.892971992492676,-10.5133056640625,14.5263671875,12.7105712890625
0.7499998999999999,-8.815450668334961,-4.106055736541748,3.8714241981506348,-15.2130126953125,21.5606689453125,0.6866455078125
0.7699999,-8.683769226074219,-4.20421838760376,3.9647979736328125,-9.3231201171875,8.8653564453125,-14.068603515625
0.7899999,-8.449137687683105,-4.264073371887207,4.0964789390563965,5.096435546875,-3.2806396484375,-22.6287841796875
0.8099999,-8.185775756835938,-4.225766181945801,4.1874589920043945,6.591796875,-0.3509521484375,-22.8118896484375
0.8299999,-8.034940719604492,-4.05817174911499,4.175487995147705,2.0751953125,4.1961669921875,-20.3857421875
0.8499998999999999,-7.996633529663086,-3.823540210723877,4.101267337799072,2.105712890625,3.814697265625,-13.458251953125
0.8699998999999999,-8.018181800842285,-3.5889084339141846,4.003105163574219,3.0517578125,1.556396484375,-6.0882568359375
0.8899999,-8.106766700744629,-3.399766445159912,3.890577793121338,7.6904296875,2.5482177734375,-3.1585693359375
0.9099999,-8.24084186553955,-3.2776620388031006,3.825934410095215,-0.30517578125,24.0325927734375,-10.833740234375
0.9299999,-8.480262756347656,-3.2297780513763428,3.861847400665283,-11.4593505859375,49.774169921875,-17.669677734375
0.9499999,-8.78193187713623,-3.248931646347046,4.043806552886963,-11.0626220703125,52.91748046875,-14.5416259765625
0.9699998999999999,-9.016563415527344,-3.3494882583618164,4.3861775398254395,-9.674072265625,36.895751953125,-5.462646484375
0.9899998999999999,-9.045293807983398,-3.507505416870117,4.802768707275391,-17.913818359375,15.350341796875,-3.173828125
1.0099999,-8.856152534484863,-3.663128614425659,5.157110691070557,-26.1993408203125,-5.859375,-9.09423828125
1.0299999,-8.40843677520752,-3.7684733867645264,5.351040840148926,-26.1688232421875,-17.3187255859375,-11.3677978515625
1.0499999,-7.869740962982178,-3.7708675861358643,5.348646640777588,-37.3992919921875,-17.8375244140625,-13.397216796875
1.0699999,-7.374141216278076,-3.6607344150543213,5.145139217376709,-43.670654296875,-26.55029296875,-13.2904052734375
1.0899999,-6.847416877746582,-3.4835634231567383,4.8051629066467285,-40.008544921875,-35.9039306640625,-3.84521484375
1.1099999,-6.502651691436768,-3.2632968425750732,4.393360137939453,-49.49951171875,-29.510498046875,-0.6561279296875
1.1299999,-6.335057735443115,-3.0406360626220703,3.9384617805480957,-49.957275390625,-22.03369140625,6.378173828125
1.1499999,-6.358999729156494,-2.8443117141723633,3.5242648124694824,-51.727294921875,-3.173828125,17.3492431640625
1.1699998999999999,-6.7277069091796875,-2.6791117191314697,3.1962592601776123,-63.4765625,21.05712890625,17.242431640625
1.1899998999999999,-7.184999465942383,-2.6168625354766846,3.026270866394043,-65.6890869140625,37.017822265625,26.8096923828125
1.2099999,-7.706935405731201,-2.671929121017456,3.0550012588500977,-70.7244873046875,48.8128662109375,34.942626953125
1.2299999,-8.13789176940918,-2.849100112915039,3.3039982318878174,-79.3304443359375,63.0035400390625,26.55029296875
1.2499999,-8.463502883911133,-3.1028854846954346,3.7205893993377686,-79.6051025390625,61.8743896484375,15.533447265625
1.2699999,-8.746018409729004,-3.354276657104492,4.1874589920043945,-77.972412109375,34.5916748046875,18.1427001953125
1.2899999,-9.071630477905273,-3.5482068061828613,4.606443881988525,-85.6781005859375,-0.1678466796875,29.84619140625
1.3099999,-9.41639518737793,-3.6798880100250244,4.855441093444824,-90.9423828125,-36.6973876953125,44.9981689453125
1.3299999,-9.658209800720215,-3.773261785507202,4.843470096588135,-87.6007080078125,-82.0770263671875,64.3768310546875
1.3499999,-9.744400978088379,-3.847482204437256,4.558559894561768,-93.07861328125,-108.8409423828125,79.132080078125
1.3699999,-9.923966407775879,-3.8953661918640137,4.046200752258301,-107.6812744140625,-112.701416015625,89.8590087890625
1.3899999,-10.323798179626465,-3.9600095748901367,3.3734302520751953,-89.324951171875,-131.3323974609375,129.6234130859375
1.4099999,-10.737994194030762,-4.094084739685059,2.7078421115875244,-75.164794921875,-135.8642578125,174.2095947265625
1.4299998999999999,-11.049241065979004,-4.338293552398682,2.2026655673980713,-112.4725341796875,-102.6458740234375,159.3780517578125
1.4499999,-11.104307174682617,-4.675876140594482,1.9105730056762695,-131.9427490234375,-60.455322265625,113.22021484375
1.4699999,-10.864887237548828,-5.03021764755249,1.889025092124939,-112.2589111328125,-50.47607421875,94.5587158203125
1.4899999,-10.764330863952637,-5.284003257751465,1.965639591217041,-62.0269775390625,-70.7855224609375,98.57177734375
1.5099999,-10.680533409118652,-5.413290023803711,2.097320795059204,-62.19482421875,-55.4656982421875,81.1920166015625
1.5299999,-10.565611839294434,-5.434837818145752,2.2409727573394775,-98.663330078125,14.5111083984375,40.1763916015625
1.5499999,-10.524910926818848,-5.341464042663574,2.403778553009033,-96.160888671875,63.201904296875,13.092041015625
1.5699999,-10.65898609161377,-5.183446884155273,2.7293899059295654,-60.028076171875,48.5992431640625,17.0440673828125
1.5899999,-10.946290016174316,-5.0014872550964355,3.0813376903533936,0.2593994140625,-10.7574462890625,37.9638671875
1.6099999,-11.310209274291992,-4.824316501617432,3.4189200401306152,-3.1890869140625,-41.50390625,21.4996337890625
1.6299999,-11.329362869262695,-4.6734819412231445,3.584120035171509,-28.9764404296875,-32.1502685546875,-21.9879150390625
1.6499999,-11.08754825592041,-4.484339714050293,3.512293815612793,-16.9830322265625,-24.7955322265625,-50.7659912109375
1.6699999,-10.69489860534668,-4.20421838760376,3.2609026432037354,-13.397216796875,-11.71875,-59.08203125
1.6899998999999999,-10.498574256896973,-3.8091750144958496,2.8993782997131348,-34.48486328125,6.2408447265625,-64.849853515625
1.7099999,-10.500968933105469,-3.3734302520751953,2.557007312774658,-48.6297607421875,22.857666015625,-52.5054931640625
1.7299999,-10.833763122558594,-3.00711727142334,2.2649147510528564,-18.524169921875,2.9754638671875,-20.904541015625
1.7499999,-10.955866813659668,-2.8347349166870117,2.1356279850006104,26.55029296875,-10.345458984375,19.4854736328125
1.7699999,-10.946290016174316,-2.851494312286377,2.1068975925445557,29.205322265625,-2.38037109375,19.7906494140625
1.7899999,-10.541669845581055,-3.0095114707946777,2.1356279850006104,14.404296875,14.2974853515625,-11.7645263671875
1.8099999,-9.864110946655273,-3.1890766620635986,2.188300371170044,-4.669189453125,32.745361328125,-35.7208251953125
1.8299999,-9.208099365234375,-3.248931646347046,2.164358377456665,-0.3662109375,45.5169677734375,-49.2095947265625
1.8499999,-8.810662269592285,-3.155557870864868,2.1308395862579346,-6.9122314453125,69.4732666015625,-66.1468505859375
1.8699999,-8.769960403442383,-2.937685489654541,2.1068975925445557,-9.185791015625,75.0885009765625,-62.255859375
1.8899999,-9.002198219299316,-2.6839001178741455,2.099714994430542,27.4658203125,38.7115478515625,-30.0140380859375
1.9099999,-9.299078941345215,-2.499546527862549,2.1739351749420166,48.0194091796875,23.1781005859375,-6.195068359375
1.9299998999999999,-9.32541561126709,-2.4612393379211426,2.2840683460235596,46.630859375,24.2919921875,-2.2125244140625
1.9499999,-9.071630477905273,-2.535459518432617,2.367865562438965,41.1834716796875,14.46533203125,-15.9759521484375
1.9699999,-8.549694061279297,-2.6647465229034424,2.4205379486083984,26.30615234375,13.1683349609375,-34.5611572265625
1.9899999,-8.022970199584961,-2.741360902786255,2.3750481605529785,13.00048828125,25.2532958984375,-49.0875244140625
2.0099999,-7.568071365356445,-2.7246015071868896,2.3271639347076416,-1.2054443359375,50.96435546875,-59.661865234375
2.0299999,-7.491456985473633,-2.6001031398773193,2.300827741622925,5.3863525390625,45.3948974609375,-53.2379150390625
2.0499999,-7.592013359069824,-2.451662540435791,2.319981336593628,45.5169677734375,2.410888671875,-20.477294921875
2.0699999,-7.920019149780273,-2.3343467712402344,2.3367409706115723,54.4281005859375,-19.04296875,7.32421875
2.0899999,-8.22887134552002,-2.322375535964966,2.3319525718688965,25.421142578125,0.1220703125,2.9449462890625
2.1099999,-8.44195556640625,-2.4229321479797363,2.3104045391082764,11.53564453125,17.059326171875,-9.09423828125
2.1299999,-8.528146743774414,-2.6024973392486572,2.2912509441375732,27.2064208984375,5.2947998046875,-9.1552734375
2.1499999,-8.609549522399902,-2.7916390895843506,2.2864625453948975,28.961181640625,-3.5400390625,-10.1165771484375
2.1699999,-8.655038833618164,-2.9544448852539062,2.322375535964966,14.129638671875,13.9617919921875,-17.63916015625
2.1899999,-8.722076416015625,-3.0550012588500977,2.389413356781006,9.6893310546875,25.6195068359375,-25.7720947265625
2.2099999,-8.698134422302246,-3.0861260890960693,2.497152328491211,21.087646484375,15.167236328125,-27.374267578125
2.2299999,-8.592789649963379,-3.047818660736084,2.6216509342193604,23.101806640625,2.50244140625,-28.38134765625
2.2499999,-8.583212852478027,-2.9448680877685547,2.6431987285614014,19.0582275390625,-9.0789794921875,-22.9339599609375
2.2699999,-8.556877136230469,-2.8562827110290527,2.561795711517334,24.383544921875,-21.2554931640625,-2.899169921875
2.2899999,-8.537723541259766,-2.918531894683838,2.3558945655822754,33.63037109375,-24.444580078125,11.6119384765625
2.3099999,-8.47547435760498,-3.5960910320281982,2.3247697353363037,30.0750732421875,-19.9127197265625,-8.5601806640625
2.3299999,-8.305485725402832,-3.9671921730041504,2.255337953567505,70.4345703125,-31.7840576171875,-67.3370361328125
2.3499999,-8.145073890686035,-4.479551315307617,2.4181437492370605,23.284912109375,-41.3818359375,-76.9500732421875
2.3699999,-8.015787124633789,-4.271255970001221,2.5115175247192383,7.9193115234375,-34.8358154296875,-54.779052734375
2.3899999,-7.85537576675415,-3.7445313930511475,2.7533318996429443,25.390625,-10.6353759765625,-25.421142578125
2.4099999,-7.63989782333374,-3.648763418197632,2.8634653091430664,7.4005126953125,-13.5040283203125,-24.5819091796875
2.4299999,-7.433996200561523,-3.5410242080688477,3.19865345954895,8.392333984375,-10.345458984375,-82.4127197265625
2.4499999,-7.29034423828125,-4.125209331512451,3.3207578659057617,0.3509521484375,-24.84130859375,-97.0458984375
2.4699999,-7.156269073486328,-4.285621166229248,3.399766445159912,-7.6751708984375,-27.2064208984375,-72.57080078125
2.4899999,-7.242460250854492,-4.575319290161133,3.4141316413879395,-18.035888671875,-13.36669921875,-56.82373046875
2.5099999,-7.3023152351379395,-4.668693542480469,3.421314239501953,-12.7105712890625,-1.5869140625,-46.3104248046875
2.5299999,-7.3885064125061035,-4.972756862640381,3.5003228187561035,-9.857177734375,-20.263671875,-25.87890625
2.5499999,-7.2783732414245605,-5.178658485412598,3.5673606395721436,-24.169921875,-40.8477783203125,-35.15625
2.5699999,-7.194576263427734,-5.453991413116455,3.5458126068115234,-16.05224609375,-50.8270263671875,-47.607421875
2.5899999,-6.900089263916016,-5.726930618286133,3.5649664402008057,13.24462890625,-19.0582275390625,-37.4908447265625
2.6099999,-6.6630635261535645,-5.7772088050842285,3.4955344200134277,2.9144287109375,-10.894775390625,-60.48583984375
2.6299999,-6.473921298980713,-5.978321552276611,3.6367924213409424,-0.335693359375,16.29638671875,-80.2764892578125
2.6499999,-6.387730121612549,-6.1985883712768555,3.8115692138671875,-1.7547607421875,21.4080810546875,-75.74462890625
2.6699999,-6.275202751159668,-6.390124320983887,3.957615375518799,6.6680908203125,0.5340576171875,-60.4400634765625
2.6899999,-6.215347766876221,-6.768408298492432,3.952826976776123,21.8505859375,1.556396484375,-55.23681640625
2.7099999,-6.100425720214844,-7.371747016906738,3.8762125968933105,25.848388671875,28.2440185546875,-69.610595703125
2.7299999,-5.947196960449219,-7.814674377441406,3.7038300037384033,18.4326171875,34.2559814453125,-86.73095703125
2.7499999,-5.849034786224365,-8.159439086914062,3.6128504276275635,15.6097412109375,22.918701171875,-95.703125
2.7699999,-5.770026206970215,-8.29830265045166,3.643975019454956,12.115478515625,15.472412109375,-80.01708984375
2.7899999,-5.6191911697387695,-8.044517517089844,3.6822822093963623,9.918212890625,16.845703125,-74.4171142578125
2.8099999,-5.477933406829834,-7.90086555480957,3.667917013168335,17.913818359375,36.5447998046875,-84.442138671875
2.8299999,-5.475539207458496,-7.857769966125488,3.687070608139038,30.9906005859375,58.65478515625,-86.761474609375
2.8499999,-5.628767967224121,-7.999027729034424,3.7660791873931885,18.85986328125,58.5174560546875,-80.7952880859375
2.8699999,-5.916072368621826,-8.317456245422363,3.974374771118164,22.5372314453125,53.863525390625,-63.7664794921875
2.8899999,-6.066906929016113,-8.628703117370605,4.2329487800598145,33.050537109375,34.11865234375,-63.1866455078125
2.9099999,-5.916072368621826,-8.7268648147583,4.371812343597412,37.6434326171875,12.26806640625,-78.6590576171875
2.9299999,-5.56173038482666,-8.81784439086914,4.443638324737549,28.6712646484375,5.4168701171875,-95.2911376953125
2.9499999,-5.195417881011963,-8.793902397155762,4.438849925994873,25.5279541015625,6.195068359375,-97.259521484375
2.9699999,-4.9368438720703125,-8.769960403442383,4.503493309020996,25.634765625,16.8304443359375,-104.9346923828125
2.9899999,-4.774038314819336,-8.556877136230469,4.532223701477051,12.847900390625,9.46044921875,-116.63818359375
3.0099999,-4.568136692047119,-8.188169479370117,4.460397720336914,-2.3651123046875,-22.308349609375,-97.2747802734375
3.0299999,-4.23773717880249,-7.627926826477051,4.252102375030518,-11.23046875,-22.94921875,-68.4356689453125
3.0499999,-3.8786067962646484,-7.146692276000977,4.027047157287598,-28.839111328125,-14.923095703125,-59.234619140625
3.0699999,-3.5482068061828613,-6.742072105407715,3.801992416381836,-26.91650390625,-20.3857421875,-50.4913330078125
3.0899999,-3.3279404640197754,-6.646304130554199,3.737348794937134,-12.9547119140625,-24.688720703125,-15.1824951171875
3.1099999,-3.2824504375457764,-6.687005519866943,3.7469255924224854,-1.678466796875,-16.0980224609375,3.021240234375
3.1299999,-3.3446998596191406,-6.868964672088623,3.8379054069519043,-6.622314453125,-15.106201171875,12.176513671875
3.1499999,-3.3494882583618164,-7.208941459655762,3.9001545906066895,-13.7939453125,-23.6663818359375,33.172607421875
3.1699999,-3.3303346633911133,-7.522581577301025,3.9217023849487305,-22.4456787109375,-36.865234375,27.9998779296875
3.1899999,-3.220201253890991,-7.762001991271973,3.883395195007324,-31.73828125,-53.497314453125,22.03369140625
3.2099999,-3.0573954582214355,-7.86734676361084,3.7469255924224854,-30.7769775390625,-78.79638671875,29.2816162109375
3.2299999,-2.918531894683838,-7.8098859786987305,3.603273630142212,-27.5726318359375,-87.21923828125,30.5938720703125
3.2499999,-2.8179752826690674,-7.850587368011475,3.49314022064209,-22.3236083984375,-77.1484375,33.0810546875
3.2699999,-2.801215887069702,-7.848193168640137,3.4117374420166016,-17.6849365234375,-75.4241943359375,27.1759033203125
3.2899999,-2.873042106628418,-7.979874134063721,3.3854012489318848,-18.1121826171875,-95.001220703125,32.0892333984375
3.3099999,-3.0190882682800293,-8.236053466796875,3.4356794357299805,-22.0184326171875,-115.6463623046875,48.248291015625
3.3299999000000002,-3.1435868740081787,-8.501810073852539,3.488351821899414,-24.1851806640625,-116.2109375,44.1436767578125
3.3499999,-3.1699230670928955,-8.765172004699707,3.5721490383148193,-20.4620361328125,-107.086181640625,29.23583984375
3.3699999,-3.071760892868042,-9.002198219299316,3.6343982219696045,-15.2740478515625,-110.65673828125,18.829345703125
3.3899999,-2.9257144927978516,-9.172186851501465,3.670311212539673,-3.8299560546875,-113.983154296875,19.500732421875
3.4099999,-2.8826189041137695,-9.481039047241211,3.799597978591919,11.444091796875,-108.0474853515625,32.5927734375
3.4299999,-2.9712042808532715,-9.81143856048584,3.9695863723754883,-5.7220458984375,-139.7552490234375,36.407470703125
3.4499999,-3.093308687210083,-10.062829971313477,4.163516521453857,-38.9404296875,-156.3568115234375,27.3284912109375
3.4699999,-3.251325845718384,-10.108319282531738,4.357447147369385,-41.015625,-141.17431640625,10.9405517578125
3.4899999,-3.2992098331451416,-9.852140426635742,4.474762916564941,-28.9306640625,-140.106201171875,9.70458984375
3.5099999,-3.3255462646484375,-9.397241592407227,4.525041103363037,-26.458740234375,-160.5072021484375,8.8348388671875
3.5299999,-3.2297780513763428,-8.789113998413086,4.568136692047119,-32.1502685546875,-190.093994140625,5.92041015625
3.5499999,-3.2082302570343018,-8.190564155578613,4.520252704620361,-26.2298583984375,-231.4605712890625,41.9769287109375
3.5699999,-3.021482467651367,-7.515398979187012,4.359841346740723,-31.67724609375,-228.2257080078125,40.7867431640625
3.5899999,-2.853888511657715,-7.06528902053833,4.106055736541748,-54.443359375,-165.0238037109375,21.209716796875
3.6099999,-2.5905263423919678,-6.976703643798828,3.7253777980804443,-70.709228515625,-122.467041015625,15.533447265625
3.6299999,-2.4803929328918457,-7.340622425079346,3.5242648124694824,-70.49560546875,-108.6578369140625,20.660400390625
3.6499999,-2.5067291259765625,-8.030152320861816,3.5218706130981445,-64.4378662109375,-135.6964111328125,42.41943359375
3.6699999,-2.6815059185028076,-8.760383605957031,3.687070608139038,-49.6826171875,-138.61083984375,53.03955078125
3.6899999,-2.5929205417633057,-9.346963882446289,3.804386615753174,-37.689208984375,-155.609130859375,60.638427734375
3.7099999,-2.363077163696289,-9.516951560974121,3.866635799407959,-26.8096923828125,-115.447998046875,30.2734375
3.7299999,-1.8794482946395874,-9.53849983215332,3.8115692138671875,-0.6256103515625,-55.23681640625,27.5421142578125
3.7499999,-1.6519991159439087,-9.44991397857666,3.9839515686035156,16.29638671875,-44.4183349609375,40.863037109375
3.7699999,-1.886630892753601,-9.337387084960938,4.503493309020996,15.4876708984375,-65.155029296875,38.6810302734375
3.7899999,-2.3104045391082764,-9.260771751403809,5.0900726318359375,8.2244873046875,-123.3673095703125,61.4166259765625
3.8099999,-2.7940332889556885,-9.265560150146484,5.626373767852783,20.3399658203125,-111.5264892578125,78.125
3.8299999000000002,-2.9735984802246094,-9.275136947631836,5.8657941818237305,12.1612548828125,-101.4404296875,54.6875
3.8499999,-2.9975404739379883,-9.217676162719727,5.839457988739014,-3.204345703125,-103.5614013671875,1.800537109375
3.8699999,-2.9328970909118652,-9.129091262817383,5.65031623840332,-8.087158203125,-115.90576171875,-8.270263671875
3.8899999,-2.983175277709961,-8.975862503051758,5.461174011230469,-0.885009765625,-116.1956787109375,2.960205078125
3.9099999,-2.964021682739258,-8.827422142028809,5.17626428604126,2.3193359375,-132.38525390625,9.246826171875
3.9299999,-2.8419175148010254,-8.80587387084961,4.845864295959473,-16.448974609375,-139.9993896484375,-5.9051513671875
3.9499999,-2.6001031398773193,-8.856152534484863,4.467580318450928,-24.8870849609375,-133.30078125,-14.892578125
3.9699999,-2.2625205516815186,-8.863334655761719,4.027047157287598,-21.697998046875,-134.8876953125,-6.195068359375
3.9899999,-1.8507179021835327,-8.884882926940918,3.550601005554199,-19.561767578125,-143.85986328125,9.1705322265625
4.0099999,-1.4101848602294922,-8.80587387084961,3.0813376903533936,-18.24951171875,-140.6707763671875,9.124755859375
4.029999900000001,-0.9074024558067322,-8.645462036132812,2.5977089405059814,-2.4566650390625,-129.0130615234375,16.357421875
4.0499999,-0.3495534360408783,-8.446743965148926,2.1523873805999756,12.969970703125,-104.644775390625,27.9693603515625
4.069999900000001,0.15322890877723694,-8.197746276855469,1.7597382068634033,1.64794921875,-87.6312255859375,24.078369140625
4.0899999000000005,0.524330198764801,-8.066065788269043,1.5059528350830078,-17.51708984375,-75.50048828125,19.6533203125
4.1099999,0.7613561153411865,-8.1139497756958,1.400607943534851,-23.5748291015625,-76.171875,36.834716796875
4.1299999000000005,0.8834604024887085,-8.398859977722168,1.4700398445129395,-12.1002197265625,-79.986572265625,50.4913330078125
4.1499999,0.8882488012313843,-8.705317497253418,1.647210717201233,-0.335693359375,-68.8323974609375,42.0989990234375
4.1699999000000005,0.8044517636299133,-8.880094528198242,1.8842366933822632,3.9520263671875,-45.0286865234375,46.234130859375
4.1899999,0.7398083209991455,-8.899248123168945,2.0805611610412598,-4.94384765625,-42.1600341796875,48.1414794921875
4.209999900000001,0.5770025849342346,-8.762778282165527,2.2457611560821533,-4.6539306640625,-34.9884033203125,33.8592529296875
4.2299999,0.3232172429561615,-8.69095230102539,2.492363929748535,12.8326416015625,-46.112060546875,43.5028076171875
4.249999900000001,0.10055647045373917,-8.746018409729004,2.7892448902130127,33.8287353515625,-128.7078857421875,95.916748046875
4.2699999,-0.14604631066322327,-8.71489429473877,2.9664158821105957,17.08984375,-179.229736328125,108.7799072265625
4.289999900000001,-0.0933738648891449,-8.695740699768066,2.851494312286377,-59.08203125,-127.4261474609375,53.2379150390625
4.3099999,0.0694318488240242,-8.638279914855957,2.408566951751709,-97.8851318359375,-46.6156005859375,6.9122314453125
4.329999900000001,0.24181437492370605,-8.779537200927734,1.9081788063049316,-61.6912841796875,14.129638671875,18.5089111328125
4.3499999,0.15801730751991272,-9.126696586608887,1.6663644313812256,-50.8880615234375,38.57421875,25.299072265625
4.369999900000001,-0.15801730751991272,-9.694122314453125,1.7764976024627686,-56.610107421875,34.6527099609375,20.9808349609375
4.3899999,-0.586579442024231,-10.261548042297363,1.9943699836730957,-53.52783203125,38.6810302734375,23.1475830078125
4.409999900000001,-0.8762778043746948,-10.733205795288086,2.0901381969451904,-33.2183837890625,53.8787841796875,25.0701904296875
4.4299999,-1.1228805780410767,-11.099518775939941,2.075772762298584,-6.072998046875,70.0531005859375,22.27783203125
4.449999900000001,-1.2521674633026123,-11.293449401855469,2.078166961669922,-4.3487548828125,84.716796875,26.06201171875
4.4699999,-1.6208745241165161,-11.283872604370117,2.3319525718688965,8.392333984375,99.06005859375,53.1768798828125
4.489999900000001,-1.9728221893310547,-11.130643844604492,2.762908697128296,5.2642822265625,42.5872802734375,78.9031982421875
4.5099999,-2.2697031497955322,-10.857705116271973,3.114856481552124,-23.681640625,-52.1697998046875,80.078125
4.529999900000001,-2.403778553009033,-10.522516250610352,3.2130186557769775,-37.139892578125,-46.7681884765625,55.3131103515625
4.5499999,-2.319981336593628,-10.283096313476562,3.0334534645080566,-41.748046875,-37.6739501953125,40.2679443359375
4.569999900000001,-2.1787235736846924,-10.24239444732666,2.7509377002716064,-27.1759033203125,-69.854736328125,53.619384765625
4.5899999000000005,-2.011129379272461,-10.249577522277832,2.4372973442077637,-38.330078125,-123.626708984375,54.87060546875
4.609999900000001,-1.920149803161621,-10.35252857208252,2.190694570541382,-65.9637451171875,-135.3759765625,20.32470703125
4.6299999000000005,-1.8124107122421265,-10.35252857208252,1.8579005002975464,-74.0966796875,-121.795654296875,-10.4217529296875
4.6499999,-1.702277421951294,-10.251971244812012,1.292868971824646,-62.1490478515625,-126.5411376953125,-23.3917236328125
4.6699999000000005,-1.625662922859192,-10.077195167541504,0.7374141216278076,-46.7071533203125,-67.718505859375,-23.74267578125
4.6899999,-1.5921441316604614,-9.861717224121094,0.18914192914962769,-52.3223876953125,-32.440185546875,-23.1781005859375
4.709999900000001,-1.5418659448623657,-9.653421401977539,-0.2585737705230713,-77.7435302734375,-45.5322265625,-29.2816162109375
4.7299999,-1.460463047027588,-9.514557838439941,-0.6512228846549988,-121.9635009765625,-44.158935546875,-45.5474853515625
4.749999900000001,-1.3646949529647827,-9.41400146484375,-0.9816226959228516,-107.177734375,-15.777587890625,-34.5458984375
4.7699999,-1.2330138683319092,-9.500192642211914,-1.235408067703247,-39.1082763671875,4.2266845703125,0.335693359375
4.789999900000001,-1.1180921792984009,-9.586383819580078,-1.3192051649093628,-46.8597412109375,6.591796875,4.364013671875
4.8099999,-1.0319008827209473,-9.655815124511719,-1.3263877630233765,-81.4666748046875,-3.3721923828125,-13.7481689453125
4.829999900000001,-0.9385270476341248,-9.617507934570312,-1.4676456451416016,-80.474853515625,-7.568359375,-9.3536376953125
4.8499999,-0.8978256583213806,-9.5408935546875,-1.7717092037200928,-60.8978271484375,17.7459716796875,5.4473876953125
4.869999900000001,-0.9552865028381348,-9.411606788635254,-2.078166961669922,-55.9539794921875,36.163330078125,15.4266357421875
4.8899999,-1.1252747774124146,-9.378087997436523,-2.209848165512085,-61.370849609375,29.6173095703125,14.58740234375
4.909999900000001,-1.3982137441635132,-9.35654067993164,-2.094926595687866,-57.5408935546875,13.6260986328125,13.916015625
4.9299999,-1.7166426181793213,-9.361329078674316,-1.8315643072128296,-58.868408203125,1.4495849609375,11.7034912109375
4.949999900000001,-1.9153614044189453,-9.342175483703613,-1.742978811264038,-65.5975341796875,-3.265380859375,15.3045654296875
4.9699999,-2.0614075660705566,-9.32541561126709,-1.7501614093780518,-42.633056640625,11.0626220703125,30.1055908203125
4.989999900000001,-2.1092917919158936,-9.3828763961792,-1.8722656965255737,1.9073486328125,24.4293212890625,41.900634765625
5.0099999,-2.188300371170044,-9.50737476348877,-1.8602946996688843,6.4697265625,24.96337890625,26.30615234375
5.029999900000001,-2.252943754196167,-9.742006301879883,-1.764526605606079,-13.275146484375,11.932373046875,15.899658203125
5.0499999,-2.2840683460235596,-9.995792388916016,-1.647210717201233,-46.630859375,-5.096435546875,3.4027099609375
5.069999900000001,-2.2601263523101807,-10.180145263671875,-1.647210717201233,-77.5604248046875,-8.30078125,-18.4173583984375
5.0899999000000005,-2.097320795059204,-10.259154319763184,-1.8914192914962769,-68.1610107421875,-9.9334716796875,-13.0157470703125
5.109999900000001,-1.9081788063049316,-10.163386344909668,-2.3295583724975586,-38.7725830078125,-7.6751708984375,6.2255859375
5.1299999000000005,-1.7286136150360107,-9.952696800231934,-2.806004285812378,-37.445068359375,0.7781982421875,2.8228759765625
5.1499999,-1.5897499322891235,-9.651026725769043,-3.2585084438323975,-28.13720703125,-3.0364990234375,0.4425048828125
5.1699999000000005,-1.556231141090393,-9.275136947631836,-3.5051112174987793,-24.749755859375,-4.9591064453125,-1.861572265625
5.1899999,-1.6687586307525635,-8.863334655761719,-3.536235809326172,-28.5186767578125,-1.708984375,-2.01416015625
5.209999900000001,-1.886630892753601,-8.40843677520752,-3.4404678344726562,-17.1966552734375,-1.4495849609375,8.60595703125
5.2299999,-2.185906171798706,-8.04930591583252,-3.2297780513763428,6.500244140625,1.7852783203125,25.5126953125
5.249999900000001,-2.454056739807129,-7.872135162353516,-3.0550012588500977,6.7596435546875,-1.3885498046875,30.3192138671875
5.2699999,-2.6240451335906982,-7.975085735321045,-3.0166940689086914,-4.39453125,-14.2059326171875,24.627685546875
5.289999900000001,-2.7054479122161865,-8.279149055480957,-3.090914487838745,-29.8309326171875,-21.8048095703125,10.55908203125
5.3099999,-2.7102363109588623,-8.71489429473877,-3.315969467163086,-49.1790771484375,-20.32470703125,-0.0457763671875
5.329999900000001,-2.717418909072876,-9.045293807983398,-3.5913026332855225,-53.3447265625,-24.3682861328125,-5.279541015625
5.3499999,-2.741360902786255,-9.196128845214844,-3.93367338180542,-57.891845703125,-35.4461669921875,-7.781982421875
5.369999900000001,-2.762908697128296,-9.114726066589355,-4.335899353027344,-69.549560546875,-29.0679931640625,-5.8441162109375
5.3899999,-2.846705913543701,-8.851364135742188,-4.699818134307861,-50.7659912109375,-8.1939697265625,4.3182373046875
5.409999900000001,-2.9328970909118652,-8.544905662536621,-4.994304656982422,-13.7786865234375,1.9378662109375,23.5137939453125
5.4299999,-3.043030261993408,-8.355764389038086,-5.094861030578613,12.847900390625,1.03759765625,39.7186279296875
5.449999900000001,-3.1268274784088135,-8.355764389038086,-5.023035049438477,9.2926025390625,0.48828125,37.3687744140625
5.4699999,-3.1292216777801514,-8.506598472595215,-4.903325080871582,-11.1541748046875,-1.46484375,25.8026123046875
5.489999900000001,-3.0621838569641113,-8.746018409729004,-4.759673118591309,-26.3214111328125,-4.9896240234375,17.4560546875
5.5099999,-2.96162748336792,-8.939949035644531,-4.661510944366455,-22.0794677734375,-7.4005126953125,14.3890380859375
5.529999900000001,-2.9041666984558105,-9.0859956741333,-4.572925090789795,-6.744384765625,-0.1220703125,13.458251953125
5.5499999,-2.9305028915405273,-9.131484985351562,-4.501099109649658,-9.3536376953125,-0.3814697265625,7.5225830078125
5.569999900000001,-3.0837318897247314,-9.090784072875977,-4.443638324737549,-23.101806640625,-3.662109375,-1.3580322265625
5.5899999000000005,-3.318363666534424,-9.038111686706543,-4.364629745483398,-24.810791015625,-0.640869140625,0.579833984375
5.609999900000001,-3.5913026332855225,-9.002198219299316,-4.2329487800598145,-16.9219970703125,3.4027099609375,3.814697265625
5.6299999000000005,-3.8570590019226074,-9.02135181427002,-4.02465295791626,-15.9454345703125,-0.1068115234375,-2.6397705078125
5.6499999,-4.005499362945557,-9.083600997924805,-3.8786067962646484,-22.4761962890625,-16.3726806640625,-6.7596435546875
5.6699999000000005,-4.060565948486328,-9.08838939666748,-3.864241600036621,-18.3868408203125,-16.90673828125,-7.32421875
5.6899999,-4.010287761688232,-9.014169692993164,-3.97916316986084,-17.51708984375,-4.364013671875,-9.5367431640625
5.709999900000001,-3.9001545906066895,-8.927978515625,-4.220977783203125,-21.1639404296875,-3.0517578125,-11.6424560546875
5.7299999,-3.7708675861358643,-8.779537200927734,-4.469974517822266,-14.3280029296875,-7.049560546875,-12.5579833984375
5.749999900000001,-3.6750996112823486,-8.614337921142578,-4.611232280731201,-7.87353515625,-1.3885498046875,-12.5274658203125
5.7699999,-3.579331636428833,-8.413225173950195,-4.659116744995117,-14.0228271484375,-0.396728515625,-9.82666015625
5.789999900000001,-3.529053211212158,-8.166622161865234,-4.580107688903809,-15.0299072265625,-1.8157958984375,-9.7198486328125
5.8099999,-3.4979286193847656,-7.951143741607666,-4.4723687171936035,-11.53564453125,-2.3040771484375,-9.6282958984375
5.829999900000001,-3.4979286193847656,-7.802703380584717,-4.422090530395508,-1.861572265625,1.40380859375,-5.2490234375
5.8499999,-3.4955344200134277,-7.733271598815918,-4.534617900848389,6.0577392578125,10.223388671875,0.6561279296875
5.869999900000001,-3.5003228187561035,-7.733271598815918,-4.707000732421875,-3.173828125,19.8822021484375,0.3814697265625
5.8899999,-3.4979286193847656,-7.795520782470703,-4.831499099731445,-8.48388671875,23.895263671875,-0.823974609375
5.909999900000001,-3.488351821899414,-7.903259754180908,-4.797980308532715,-2.7923583984375,13.36669921875,0.79345703125
5.9299999,-3.450044631958008,-8.04930591583252,-4.699818134307861,-3.173828125,0.48828125,2.86865234375
5.949999900000001,-3.3877954483032227,-8.159439086914062,-4.707000732421875,-1.495361328125,1.7852783203125,-0.91552734375
5.9699999,-3.2992098331451416,-8.250418663024902,-4.836287498474121,-3.8909912109375,9.9334716796875,-1.8768310546875
5.989999900000001,-3.2154128551483154,-8.286332130432129,-5.0254292488098145,-4.3792724609375,13.3056640625,-0.3509521484375
6.0099999,-3.1866824626922607,-8.283937454223633,-5.078101634979248,-4.486083984375,12.6190185546875,-1.5716552734375
6.029999900000001,-3.2297780513763428,-8.279149055480957,-4.896142482757568,-1.800537109375,10.3607177734375,-3.204345703125
6.0499999,-3.3207578659057617,-8.279149055480957,-4.596867084503174,3.692626953125,8.11767578125,-5.5084228515625
6.069999900000001,-3.4332852363586426,-8.267178535461426,-4.321534156799316,11.23046875,7.6751708984375,-6.1492919921875
6.0899999000000005,-3.5266590118408203,-8.2312650680542,-4.156333923339844,11.688232421875,5.2947998046875,-5.67626953125
6.109999900000001,-3.5458126068115234,-8.209717750549316,-4.067748546600342,0.2288818359375,-0.5950927734375,-6.6375732421875
6.1299999000000005,-3.49314022064209,-8.20492935180664,-4.015076160430908,-6.5765380859375,-7.2174072265625,-11.138916015625
6.149999900000001,-3.383007049560547,-8.212111473083496,-3.957615375518799,-2.3651123046875,-11.71875,-14.95361328125
6.1699999000000005,-3.265691041946411,-8.192957878112793,-3.9624037742614746,-2.5482177734375,-14.4805908203125,-14.7705078125
6.1899999,-3.1292216777801514,-8.154650688171387,-4.1180267333984375,-22.5372314453125,-18.2952880859375,-11.3677978515625
6.209999900000001,-3.047818660736084,-8.08282470703125,-4.359841346740723,-24.0478515625,-12.1612548828125,-4.5928955078125
6.2299999,-3.0406360626220703,-8.006210327148438,-4.580107688903809,1.6937255859375,-1.434326171875,4.241943359375
6.249999900000001,-3.0885202884674072,-8.006210327148438,-4.642356872558594,29.1900634765625,-3.9215087890625,18.12744140625
6.2699999,-3.220201253890991,-8.037335395812988,-4.405331134796143,49.3316650390625,-10.5743408203125,27.40478515625
6.289999900000001,-3.375824451446533,-8.128314971923828,-3.93367338180542,46.9818115234375,-16.6015625,21.4996337890625
6.3099999,-3.4811692237854004,-8.396465301513672,-3.5051112174987793,54.656982421875,-27.40478515625,18.5089111328125
6.329999900000001,-3.5003228187561035,-8.700529098510742,-3.3518824577331543,51.9866943359375,-30.1971435546875,10.0555419921875
6.3499999,-3.471592426300049,-9.02135181427002,-3.536235809326172,14.801025390625,-24.84130859375,-8.4686279296875
6.369999900000001,-3.3662476539611816,-9.2033109664917,-4.082113742828369,-0.48828125,-18.0816650390625,-14.5416259765625
6.3899999,-3.2992098331451416,-9.165003776550293,-4.5394062995910645,26.18408203125,-2.8533935546875,-7.232666015625
6.409999900000001,-3.2776620388031006,-8.959102630615234,-4.704606533050537,50.1861572265625,0.91552734375,-1.7547607421875
6.4299999,-3.2800562381744385,-8.71728801727295,-4.570530891418457,38.970947265625,-12.725830078125,-3.7384033203125
6.449999900000001,-3.28963303565979,-8.540117263793945,-4.311957359313965,23.7884521484375,-21.97265625,-9.33837890625
6.4699999,-3.265691041946411,-8.461109161376953,-4.182670593261719,19.622802734375,-18.5699462890625,-10.7879638671875
6.489999900000001,-3.2369606494903564,-8.44434928894043,-4.256890773773193,13.48876953125,-8.453369140625,-11.53564453125
6.5099999,-3.2369606494903564,-8.418013572692871,-4.395754337310791,7.9498291015625,2.4871826171875,-12.1002197265625
6.529999900000001,-3.2776620388031006,-8.367734909057617,-4.398148536682129,16.6473388671875,10.986328125,-6.103515625
6.5499999,-3.3255462646484375,-8.372523307800293,-4.156333923339844,34.60693359375,13.7481689453125,1.800537109375
6.569999900000001,-3.315969467163086,-8.542511940002441,-3.758896589279175,32.2265625,10.07080078125,-1.64794921875
6.5899999000000005,-3.2297780513763428,-8.825027465820312,-3.4117374420166016,19.22607421875,3.936767578125,-15.5487060546875
6.609999900000001,-3.114856481552124,-9.114726066589355,-3.227383852005005,7.2784423828125,-0.732421875,-25.32958984375
6.6299999000000005,-2.9759926795959473,-9.294290542602539,-3.2417490482330322,-9.9945068359375,-1.495361328125,-28.6712646484375
6.649999900000001,-2.868253707885742,-9.299078941345215,-3.380612850189209,-14.5263671875,-2.2430419921875,-25.45166015625
6.6699999000000005,-2.784456491470337,-9.215282440185547,-3.5003228187561035,-3.326416015625,-1.28173828125,-28.228759765625
6.6899999,-2.7246015071868896,-9.105149269104004,-3.5649664402008057,4.8370361328125,-0.1220703125,-33.721923828125
6.709999900000001,-2.6886885166168213,-9.016563415527344,-3.5960910320281982,9.735107421875,-1.0986328125,-33.3709716796875
6.7299999,-2.6599581241607666,-8.959102630615234,-3.646369218826294,8.2855224609375,-3.692626953125,-28.1829833984375
6.749999900000001,-2.631227731704712,-8.904036521911621,-3.708618402481079,6.89697265625,-2.0904541015625,-22.7203369140625
6.7699999,-2.5522189140319824,-8.932766914367676,-3.7397429943084717,14.5721435546875,1.8463134765625,-18.310546875
6.789999900000001,-2.4468741416931152,-8.96149730682373,-3.670311212539673,25.4669189453125,3.11279296875,-20.233154296875
6.8099999,-2.319981336593628,-8.983044624328613,-3.536235809326172,34.85107421875,-3.8604736328125,-22.27783203125
6.829999900000001,-2.190694570541382,-8.949525833129883,-3.4093432426452637,24.4903564453125,-11.444091796875,-18.585205078125
6.8499999,-2.10210919380188,-8.87291145324707,-3.332728862762451,4.852294921875,-5.1422119140625,-12.451171875
6.869999900000001,-2.0470423698425293,-8.851364135742188,-3.28963303565979,8.2244873046875,1.4190673828125,-4.608154296875
6.8899999,-2.0398597717285156,-8.899248123168945,-3.2417490482330322,16.41845703125,1.3275146484375,-3.936767578125
6.909999900000001,-2.0422539710998535,-9.035717010498047,-3.1914708614349365,11.2457275390625,-3.5247802734375,-5.9661865234375
6.9299999,-2.0398597717285156,-9.2033109664917,-3.179499864578247,3.41796875,-3.814697265625,-8.1329345703125
6.949999900000001,-2.0231003761291504,-9.349357604980469,-3.2417490482330322,4.33349609375,2.74658203125,-6.2103271484375
6.9699999,-2.032677173614502,-9.421183586120605,-3.3016040325164795,4.4708251953125,9.307861328125,-4.6234130859375
6.989999900000001,-2.049436569213867,-9.459490776062012,-3.315969467163086,2.5177001953125,6.9122314453125,-2.1209716796875
7.0099999,-2.0877439975738525,-9.452308654785156,-3.268085241317749,-3.1280517578125,1.8463134765625,-4.180908203125
7.029999900000001,-2.10210919380188,-9.440337181091309,-3.1914708614349365,-0.54931640625,1.1749267578125,-6.0577392578125
7.0499999,-2.0661959648132324,-9.411606788635254,-3.160346269607544,4.9285888671875,1.46484375,-6.378173828125
7.069999900000001,-2.0039467811584473,-9.378087997436523,-3.162740468978882,1.89208984375,1.4801025390625,-7.9345703125
7.0899999000000005,-1.941697597503662,-9.318233489990234,-3.1699230670928955,0.67138671875,3.662109375,-8.453369140625
7.109999900000001,-1.9249382019042969,-9.224859237670898,-3.1196448802948,2.5787353515625,5.4168701171875,-9.2620849609375
7.1299999000000005,-1.944091796875,-9.131484985351562,-3.0190882682800293,6.2408447265625,2.227783203125,-6.011962890625
7.149999900000001,-2.0254945755004883,-9.01895809173584,-2.873042106628418,14.1448974609375,0.762939453125,-2.227783203125
7.1699999000000005,-2.099714994430542,-8.925583839416504,-2.762908697128296,15.0299072265625,-1.3580322265625,0.4425048828125
7.1899999,-2.1116859912872314,-8.87051773071289,-2.7485435009002686,6.1492919921875,-5.2947998046875,2.1209716796875
7.209999900000001,-2.0446481704711914,-8.877699851989746,-2.832340717315674,5.584716796875,-2.960205078125,1.953125
7.2299999,-1.8914192914962769,-8.987833023071289,-2.9664158821105957,15.56396484375,5.5999755859375,3.0364990234375
7.249999900000001,-1.7381904125213623,-9.124302864074707,-3.0621838569641113,17.7154541015625,10.9405517578125,1.1749267578125
7.2699999,-1.6089035272598267,-9.27034854888916,-3.0597896575927734,19.1192626953125,10.955810546875,2.1209716796875
7.289999900000001,-1.522712230682373,-9.342175483703613,-2.9233202934265137,17.242431640625,8.514404296875,4.364013671875
7.3099999,-1.4437036514282227,-9.351752281188965,-2.7222073078155518,10.9710693359375,5.43212890625,5.2490234375
7.329999900000001,-1.3718775510787964,-9.313444137573242,-2.516305923461914,3.2958984375,4.730224609375,1.251220703125
7.3499999,-1.3048399686813354,-9.265560150146484,-2.3798365592956543,2.5482177734375,4.791259765625,1.0223388671875
7.369999900000001,-1.2665326595306396,-9.220070838928223,-2.343923568725586,8.880615234375,6.317138671875,6.3018798828125
7.3899999,-1.280897855758667,-9.2033109664917,-2.3295583724975586,17.51708984375,9.857177734375,14.3280029296875
7.409999900000001,-1.2880805730819702,-9.232041358947754,-2.3367409706115723,15.6707763671875,7.2479248046875,16.4947509765625
7.4299999,-1.3263877630233765,-9.315838813781738,-2.2864625453948975,11.2762451171875,1.708984375,14.6636962890625
7.449999900000001,-1.314416766166687,-9.454702377319336,-2.1978771686553955,7.0343017578125,-1.434326171875,11.6119384765625
7.4699999,-1.2952631711959839,-9.57441234588623,-2.1380221843719482,3.35693359375,-1.8463134765625,9.3231201171875
7.489999900000001,-1.2832920551300049,-9.643844604492188,-2.1140801906585693,10.4522705078125,-4.5013427734375,11.0321044921875
7.5099999,-1.290474772453308,-9.62947940826416,-2.1284453868865967,7.6141357421875,-8.8348388671875,2.2125244140625
7.529999900000001,-1.3120225667953491,-9.567230224609375,-2.205059766769409,2.44140625,-14.0380859375,-6.256103515625
7.5499999,-1.3527239561080933,-9.495404243469238,-2.2457611560821533,15.2740478515625,-6.4544677734375,-6.65283203125
7.569999900000001,-1.359906554222107,-9.48343276977539,-2.22660756111145,28.8848876953125,3.3111572265625,-2.7618408203125
7.5899999000000005,-1.3718775510787964,-9.50498104095459,-2.1595699787139893,30.4107666015625,1.0223388671875,-2.2125244140625
7.609999900000001,-1.3886369466781616,-9.588777542114258,-2.0231003761291504,19.8211669921875,-6.53076171875,-8.6212158203125
7.6299999000000005,-1.4245500564575195,-9.651026725769043,-1.8938134908676147,32.2113037109375,-2.38037109375,-7.2479248046875
7.649999900000001,-1.4915876388549805,-9.730035781860352,-1.7573440074920654,45.5322265625,3.0670166015625,-7.5225830078125
7.6699999000000005,-1.53707754611969,-9.806650161743164,-1.625662922859192,21.0723876953125,-3.2196044921875,-12.7105712890625
7.6899999,-1.5849615335464478,-9.86650562286377,-1.4221558570861816,13.3514404296875,-11.322021484375,-9.1400146484375
7.709999900000001,-1.6519991159439087,-9.837775230407715,-1.213860273361206,5.218505859375,-17.0135498046875,-3.23486328125
7.7299999,-1.7764976024627686,-9.742006301879883,-1.0295066833496094,-5.6304931640625,-22.2015380859375,3.8299560546875
7.749999900000001,-1.965639591217041,-9.514557838439941,-0.9744400978088379,-20.0958251953125,-34.1033935546875,7.1563720703125
7.7699999,-2.10210919380188,-9.378087997436523,-1.1013327836990356,-46.661376953125,-39.459228515625,13.8092041015625
7.789999900000001,-2.1475989818573,-9.35654067993164,-1.3024457693099976,-41.2445068359375,-40.2679443359375,17.9443359375
7.8099999,-2.049436569213867,-9.445125579833984,-1.522712230682373,-29.144287109375,-48.4466552734375,14.09912109375
7.829999900000001,-1.8842366933822632,-9.514557838439941,-1.7310078144073486,-35.5987548828125,-59.0972900390625,8.6669921875
7.8499999,-1.8100165128707886,-9.50498104095459,-1.9033904075622559,-47.8973388671875,-52.7496337890625,9.6435546875
7.869999900000001,-1.886630892753601,-9.445125579833984,-2.0614075660705566,-48.614501953125,-36.773681640625,10.4827880859375
7.8899999,-2.094926595687866,-9.342175483703613,-2.250549554824829,-22.64404296875,-33.3251953125,13.3819580078125
7.909999900000001,-2.425326347351074,-9.232041358947754,-2.33913516998291,28.86962890625,-30.1513671875,25.4058837890625
7.9299999,-2.7222073078155518,-9.141061782836914,-2.343923568725586,54.3670654296875,-33.38623046875,36.1785888671875
7.949999900000001,-2.940079689025879,-9.133879661560059,-2.248155355453491,39.5355224609375,-41.412353515625,38.421630859375
7.9699999,-3.050212860107422,-9.220070838928223,-2.032677173614502,19.5159912109375,-43.060302734375,12.26806640625
7.989999900000001,-3.1004912853240967,-9.35893440246582,-1.623268723487854,19.2413330078125,-51.177978515625,-10.2386474609375
8.0099999,-3.0813376903533936,-9.442731857299805,-1.2521674633026123,2.044677734375,-106.048583984375,-19.3023681640625
8.0299999,-3.1100680828094482,-9.284713745117188,-1.1061211824417114,-8.9111328125,-143.12744140625,-18.2952880859375
8.049999900000001,-3.1268274784088135,-9.287108421325684,-1.0558429956436157,12.8936767578125,-90.1031494140625,20.050048828125
8.069999900000001,-3.1699230670928955,-9.334992408752441,-1.1468225717544556,45.83740234375,-43.5333251953125,20.1873779296875
8.0899999,-3.1938650608062744,-9.59596061706543,-1.3718775510787964,50.689697265625,-59.7381591796875,-4.791259765625
8.1099999,-3.2082302570343018,-9.66539192199707,-1.2497732639312744,74.615478515625,-31.7840576171875,-2.166748046875
8.129999900000001,-3.2106244564056396,-9.593565940856934,-1.1851298809051514,9.4451904296875,-39.5355224609375,22.003173828125
8.149999900000001,-3.1531636714935303,-9.399636268615723,-1.0606313943862915,-60.9130859375,-65.2313232421875,30.914306640625
8.1699999,-3.1483752727508545,-9.227252960205078,-0.828393816947937,-62.80517578125,-38.4979248046875,14.312744140625
8.1899999,-3.1316158771514893,-9.275136947631836,-0.6991068720817566,-28.86962890625,-14.404296875,8.97216796875
8.2099999,-3.181894063949585,-9.337387084960938,-0.5219359993934631,-13.0767822265625,-4.8980712890625,9.1400146484375
8.229999900000001,-3.2537200450897217,-9.318233489990234,-0.47405192255973816,-11.1083984375,-5.0048828125,12.054443359375
8.2499999,-3.3470940589904785,-9.277531623840332,-0.5506663918495178,-32.012939453125,-13.3819580078125,18.00537109375
8.2699999,-3.4404678344726562,-9.227252960205078,-0.6224924325942993,-28.62548828125,0.3509521484375,17.9290771484375
8.2899999,-3.507505416870117,-9.287108421325684,-0.7086837291717529,-7.99560546875,6.6375732421875,13.2904052734375
8.309999900000001,-3.5625722408294678,-9.35893440246582,-0.7182605266571045,-6.28662109375,-4.0130615234375,7.3699951171875
8.3299999,-3.6320040225982666,-9.435548782348633,-0.6823474764823914,-14.1448974609375,-6.988525390625,6.5765380859375
8.3499999,-3.6750996112823486,-9.425971984863281,-0.7374141216278076,-14.4195556640625,-7.354736328125,5.828857421875
8.3699999,-3.73016619682312,-9.421183586120605,-0.8930372595787048,-31.0821533203125,-8.514404296875,8.453369140625
8.389999900000001,-3.794809579849243,-9.521739959716797,-1.290474772453308,-12.39013671875,0.5950927734375,6.8511962890625
8.4099999,-3.7924153804779053,-9.603142738342285,-1.3527239561080933,115.2191162109375,45.9442138671875,-15.68603515625
8.4299999,-3.8283286094665527,-9.655815124511719,-1.2330138683319092,122.7874755859375,44.677734375,-21.30126953125
8.4499999,-3.8139634132385254,-9.660603523254395,-0.8140285611152649,7.6751708984375,-11.871337890625,0.457763671875
8.469999900000001,-3.7708675861358643,-9.418789863586426,-0.2801215946674347,-26.9775390625,-33.599853515625,0.1983642578125
8.4899999,-3.7397429943084717,-9.260771751403809,0.002394201699644327,-19.5159912109375,-23.4832763671875,0.6103515625
8.5099999,-3.6798880100250244,-9.040505409240723,-0.05027823522686958,-16.571044921875,-14.678955078125,-2.25830078125
8.5299999,-3.603273630142212,-8.983044624328613,-0.2992752194404602,-30.487060546875,-10.009765625,-8.636474609375
8.549999900000001,-3.5410242080688477,-9.047688484191895,-0.586579442024231,-37.6739501953125,-6.195068359375,-11.7340087890625
8.569999900000001,-3.442862033843994,-9.215282440185547,-0.8403648138046265,-21.8353271484375,2.74658203125,-19.59228515625
8.5899999,-3.399766445159912,-9.3828763961792,-1.0031704902648926,-4.8065185546875,15.5487060546875,-27.2064208984375
8.6099999,-3.3446998596191406,-9.459490776062012,-1.1013327836990356,15.9912109375,29.0985107421875,-25.1922607421875
8.629999900000001,-3.339911460876465,-9.440337181091309,-1.0845733880996704,35.491943359375,39.215087890625,-23.0712890625
8.649999900000001,-3.308786630630493,-9.368511199951172,-1.0342950820922852,66.4825439453125,30.6549072265625,-27.28271484375
8.6699999,-3.24414324760437,-9.277531623840332,-0.8690952062606812,81.756591796875,25.20751953125,-33.050537109375
8.6899999,-3.1866824626922607,-9.181763648986816,-0.5674257874488831,32.440185546875,18.6614990234375,-29.449462890625
8.709999900000001,-3.069366693496704,-9.141061782836914,-0.31603461503982544,-18.2647705078125,-15.625,-13.580322265625
8.729999900000001,-2.9664158821105957,-9.150638580322266,-0.08140286058187485,-44.921875,-28.1829833984375,-14.6636962890625
8.7499999,-2.829946517944336,-9.311050415039062,-0.05506663769483566,-45.1812744140625,-12.1002197265625,-20.3704833984375
8.7699999,-2.738966703414917,-9.430760383605957,-0.2513911724090576,-27.3284912109375,2.74658203125,-22.4151611328125
8.7899999,-2.6240451335906982,-9.588777542114258,-0.5937620401382446,-36.163330078125,11.0321044921875,-34.271240234375
8.809999900000001,-2.537853717803955,-9.696516990661621,-0.8930372595787048,-29.84619140625,27.2216796875,-31.67724609375
8.8299999,-2.3918075561523438,-9.734824180603027,-1.0558429956436157,11.932373046875,29.022216796875,-15.2740478515625
8.8499999,-2.319981336593628,-9.792284965515137,-0.9696516990661621,26.9317626953125,22.2930908203125,7.598876953125
8.8699999,-2.2361843585968018,-9.81143856048584,-0.7015010714530945,25.1922607421875,8.3770751953125,18.3868408203125
8.889999900000001,-2.1739351749420166,-9.797073364257812,-0.45010992884635925,3.173828125,-11.5966796875,16.326904296875
8.9099999,-2.212242364883423,-9.840168952941895,-0.36152446269989014,-46.478271484375,-13.885498046875,18.463134765625
8.9299999,-2.231395959854126,-9.919178009033203,-0.45489832758903503,-24.7955322265625,-4.2877197265625,4.3487548828125
8.9499999,-2.276885747909546,-9.995792388916016,-0.6512228846549988,-13.580322265625,-5.401611328125,-19.073486328125
8.969999900000001,-2.3487119674682617,-10.000580787658691,-0.9217676520347595,-38.0859375,-4.180908203125,-26.18408203125
8.9899999,-2.315192937850952,-9.950302124023438,-1.115697979927063,4.5013427734375,22.1405029296875,-13.00048828125
9.0099999,-2.2649147510528564,-9.832986831665039,-1.192312479019165,74.7528076171875,35.980224609375,-2.593994140625
9.0299999,-2.164358377456665,-9.785101890563965,-1.170764684677124,65.3228759765625,29.1748046875,6.7901611328125
9.049999900000001,-2.0925323963165283,-9.763554573059082,-1.0606313943862915,43.182373046875,20.9197998046875,9.94873046875
9.069999900000001,-2.0925323963165283,-9.727641105651855,-0.9672574996948242,31.9366455078125,41.32080078125,16.2506103515625
9.0899999,-2.1595699787139893,-9.62947940826416,-0.9624691009521484,26.9012451171875,91.5069580078125,23.3154296875
9.1099999,-2.3271639347076416,-9.481039047241211,-1.0630255937576294,-2.5177001953125,162.7655029296875,22.4609375
9.129999900000001,-2.5306711196899414,-9.38048267364502,-0.8619126081466675,-36.407470703125,180.755615234375,15.68603515625
9.149999900000001,-2.736572504043579,-9.38048267364502,-0.6727706789970398,-7.01904296875,25.1922607421875,12.3443603515625
9.1699999,-2.8371291160583496,-9.493009567260742,-0.2849099934101105,42.144775390625,-23.8494873046875,24.6124267578125
9.1899999,-2.894589900970459,-9.610325813293457,-0.047884032130241394,25.634765625,-9.552001953125,27.252197265625
9.209999900000001,-2.8562827110290527,-9.679757118225098,-0.05746084079146385,2.8076171875,-10.07080078125,19.04296875
9.229999900000001,-2.779668092727661,-9.655815124511719,-0.2801215946674347,-13.12255859375,-9.2315673828125,12.1917724609375
9.2499999,-2.7437551021575928,-9.581595420837402,-0.5602431893348694,-17.059326171875,-1.4190673828125,2.86865234375
9.2699999,-2.736572504043579,-9.521739959716797,-0.8307880163192749,5.7373046875,6.988525390625,14.2974853515625
9.2899999,-2.7748796939849854,-9.48343276977539,-0.9576807022094727,28.3660888671875,30.33447265625,41.7327880859375
9.309999900000001,-2.8634653091430664,-9.478644371032715,-0.9481038451194763,23.284912109375,47.0733642578125,38.7420654296875
9.3299999,-2.8802247047424316,-9.495404243469238,-0.993593692779541,-5.706787109375,37.2467041015625,22.0947265625
9.3499999,-2.9281086921691895,-9.466673851013184,-1.0223240852355957,-13.6566162109375,38.0096435546875,17.7459716796875
9.3699999,-2.9472622871398926,-9.435548782348633,-1.0845733880996704,2.716064453125,39.6728515625,23.6053466796875
9.389999900000001,-3.004723072052002,-9.370905876159668,-1.137245774269104,9.4757080078125,27.9541015625,21.30126953125
9.4099999,-3.028665065765381,-9.320627212524414,-1.1683704853057861,-3.2501220703125,22.003173828125,8.2855224609375
9.4299999,-3.0621838569641113,-9.318233489990234,-1.1540051698684692,-12.8021240234375,20.3857421875,-13.4429931640625
9.4499999,-3.098097085952759,-9.339780807495117,-1.1468225717544556,-11.9476318359375,23.1781005859375,-22.003173828125
9.469999900000001,-3.157952070236206,-9.390059471130371,-1.0869675874710083,-13.641357421875,20.599365234375,-11.0015869140625
9.4899999,-3.292027235031128,-9.38048267364502,-0.9888052940368652,-13.18359375,11.5509033203125,-1.52587890625
9.5099999,-3.404554843902588,-9.361329078674316,-0.9193734526634216,1.4495849609375,9.1705322265625,13.519287109375
9.5299999,-3.5242648124694824,-9.311050415039062,-0.8954314589500427,28.2135009765625,7.3699951171875,23.0255126953125
9.549999900000001,-3.5960910320281982,-9.277531623840332,-0.8954314589500427,23.62060546875,9.307861328125,21.3775634765625
9.569999900000001,-3.6320040225982666,-9.287108421325684,-0.9241618514060974,6.7901611328125,8.636474609375,14.2822265625
9.5899999,-3.6607344150543213,-9.263166427612305,-0.9241618514060974,-6.6986083984375,17.974853515625,8.1634521484375
9.6099999,-3.687070608139038,-9.23443603515625,-0.8619126081466675,-2.777099609375,21.0723876953125,9.0789794921875
9.629999900000001,-3.706224203109741,-9.193734169006348,-0.7757213711738586,20.172119140625,9.765625,14.9993896484375
9.649999900000001,-3.754108190536499,-9.100360870361328,-0.6440402865409851,31.829833984375,5.7373046875,13.824462890625
9.6699999,-3.780444383621216,-9.026140213012695,-0.5315127968788147,27.64892578125,3.570556640625,6.2103271484375
9.6899999,-3.77565598487854,-9.016563415527344,-0.5123591423034668,16.9219970703125,2.166748046875,-0.4425048828125
9.709999900000001,-3.7205893993377686,-9.040505409240723,-0.6033388376235962,-1.678466796875,-1.5869140625,0.9918212890625
9.729999900000001,-3.6391866207122803,-9.114726066589355,-0.7829039692878723,-23.8494873046875,-5.0048828125,3.0364990234375
9.7499999,-3.5482068061828613,-9.222464561462402,-0.9552865028381348,-35.21728515625,0.4730224609375,4.8065185546875
9.7699999,-3.509899616241455,-9.220070838928223,-1.0678139925003052,-24.7802734375,5.1727294921875,6.744384765625
9.7899999,-3.509899616241455,-9.150638580322266,-1.1516109704971313,-15.869140625,4.974365234375,7.99560546875
9.809999900000001,-3.60566782951355,-8.99740982055664,-1.1276689767837524,-15.7318115234375,6.8817138671875,4.4403076171875
9.8299999,-3.7014358043670654,-8.832210540771484,-1.1276689767837524,-19.5159912109375,3.509521484375,5.889892578125
9.8499999,-3.801992416381836,-8.707711219787598,-1.113303780555725,-20.7366943359375,-0.42724609375,10.894775390625
9.8699999,-3.8738183975219727,-8.674192428588867,-1.0630255937576294,-7.9803466796875,4.0130615234375,12.664794921875
9.889999900000001,-3.8953661918640137,-8.746018409729004,-1.0462661981582642,4.8980712890625,3.936767578125,13.8397216796875
9.9099999,-3.93367338180542,-8.834604263305664,-1.0295066833496094,2.105712890625,1.556396484375,12.908935546875
9.9299999,-3.9408559799194336,-8.944737434387207,-1.0821791887283325,-7.0953369140625,-0.9918212890625,13.1683349609375
9.9499999,-3.9408559799194336,-9.05247688293457,-1.1875240802764893,-12.2222900390625,0.518798828125,12.9852294921875
9.969999900000001,-3.9432501792907715,-9.14345645904541,-1.2880805730819702,-11.2762451171875,7.9193115234375,6.4849853515625
9.9899999,-3.9432501792907715,-9.232041358947754,-1.357512354850769,-11.8560791015625,8.056640625,2.5482177734375
10.0099999,-3.9839515686035156,-9.265560150146484,-1.3646949529647827,-1.068115234375,1.1138916015625,0.9002685546875
10.0299999,-4.046200752258301,-9.20091724395752,-1.3862427473068237,1.9378662109375,-3.7384033203125,-0.54931640625
10.049999900000001,-4.089296340942383,-9.129091262817383,-1.4437036514282227,-13.3209228515625,-2.7008056640625,-2.2735595703125
10.069999900000001,-4.060565948486328,-9.062053680419922,-1.5825673341751099,-21.9879150390625,-0.244140625,-7.0648193359375
10.0899999,-3.971980571746826,-9.059659004211426,-1.7166426181793213,-8.8653564453125,8.544921875,-6.77490234375
10.1099999,-3.866635799407959,-9.107542991638184,-1.7573440074920654,15.4571533203125,14.373779296875,-3.7994384765625
10.129999900000001,-3.773261785507202,-9.17697525024414,-1.7046716213226318,33.172607421875,11.688232421875,5.0048828125
10.149999900000001,-3.7612907886505127,-9.215282440185547,-1.5849615335464478,4.45556640625,2.593994140625,8.9874267578125
10.1699999,-3.778050184249878,-9.26795482635498,-1.4867992401123047,-31.829833984375,-4.5928955078125,2.74658203125
10.1899999,-3.8331170082092285,-9.277531623840332,-1.4652514457702637,-35.4156494140625,-0.701904296875,0.4730224609375
10.209999900000001,-3.8738183975219727,-9.265560150146484,-1.5322890281677246,-18.341064453125,4.119873046875,6.591796875
10.229999900000001,-3.9217023849487305,-9.188945770263672,-1.656787633895874,1.1444091796875,6.0577392578125,12.6953125
10.2499999,-3.9671921730041504,-9.05487060546875,-1.8124107122421265,-4.119873046875,6.5155029296875,14.5111083984375
10.2699999,-4.003105163574219,-8.846575736999512,-2.0039467811584473,-25.543212890625,5.6304931640625,21.209716796875
10.2899999,-4.050989151000977,-8.604761123657227,-2.1787235736846924,-18.2342529296875,9.3841552734375,27.83203125
10.309999900000001,-4.110844135284424,-8.327033042907715,-2.296039342880249,-4.0130615234375,15.716552734375,31.92138671875
10.3299999,-4.19224739074707,-8.121131896972656,-2.3247697353363037,6.561279296875,22.796630859375,35.1104736328125
10.3499999,-4.316745758056641,-8.04930591583252,-2.1811177730560303,51.025390625,33.2794189453125,41.9769287109375
10.3699999,-4.422090530395508,-8.147468566894531,-1.9488801956176758,61.187744140625,24.5819091796875,39.764404296875
10.389999900000001,-4.55616569519043,-8.422801971435547,-1.6424223184585571,31.0516357421875,19.6075439453125,27.0843505859375
10.4099999,-4.666299343109131,-8.767566680908203,-1.3766659498214722,19.22607421875,22.796630859375,17.5933837890625
10.4299999,-4.766855716705322,-9.071630477905273,-1.192312479019165,-3.875732421875,7.38525390625,9.6588134765625
10.4499999,-4.841075897216797,-9.23443603515625,-1.1252747774124146,-7.5531005859375,5.0048828125,9.185791015625
10.469999900000001,-4.891354084014893,-9.196128845214844,-1.0654197931289673,3.753662109375,10.009765625,12.8326416015625
10.4899999,-4.90571928024292,-9.040505409240723,-1.0199298858642578,17.8680419921875,8.6517333984375,16.1895751953125
10.5099999,-4.896142482757568,-8.810662269592285,-0.9840168952941895,18.463134765625,-3.0364990234375,13.641357421875
10.5299999,-4.833893299102783,-8.647856712341309,-1.0797849893569946,-6.7596435546875,-6.4849853515625,5.584716796875
10.549999900000001,-4.754884719848633,-8.549694061279297,-1.2737152576446533,-3.631591796875,5.6915283203125,4.1351318359375
10.569999900000001,-4.685452938079834,-8.53532886505127,-1.482010841369629,23.86474609375,15.7318115234375,4.791259765625
10.5899999,-4.661510944366455,-8.552088737487793,-1.5825673341751099,9.5672607421875,16.510009765625,0.42724609375
10.6099999,-4.692635536193848,-8.643068313598633,-1.4437036514282227,-9.552001953125,9.368896484375,-3.47900390625
10.629999900000001,-4.76924991607666,-8.678980827331543,-1.194706678390503,-12.725830078125,5.2032470703125,-9.94873046875
10.649999900000001,-4.817133903503418,-8.75080680847168,-0.9744400978088379,-15.960693359375,0.9613037109375,-5.2032470703125
10.6699999,-4.836287498474121,-8.738836288452148,-0.950498104095459,-22.796630859375,-0.946044921875,-4.1351318359375
10.6899999,-4.7836151123046875,-8.695740699768066,-1.1755530834197998,-3.9215087890625,3.1585693359375,0.9613037109375
10.709999900000001,-4.707000732421875,-8.635885238647461,-1.4939818382263184,-2.227783203125,8.3160400390625,-3.3416748046875
10.729999900000001,-4.639962673187256,-8.578424453735352,-1.7956513166427612,-35.9954833984375,11.2762451171875,-15.9912109375
10.7499999,-4.6734819412231445,-8.525752067565918,-1.8770540952682495,-36.4990234375,6.6375732421875,-12.237548828125
10.7699999,-4.7405195236206055,-8.497021675109863,-1.802833914756775,-7.0953369140625,0,7.3394775390625
10.7899999,-4.841075897216797,-8.458714485168457,-1.721431016921997,-11.627197265625,-7.7972412109375,12.3443603515625
10.809999900000001,-4.845864295959473,-8.432378768920898,-1.8195933103561401,-19.287109375,-2.7923583984375,10.5743408203125
10.8299999,-4.821922302246094,-8.446743965148926,-1.9752163887023926,23.5137939453125,19.805908203125,14.5416259765625
10.8499999,-4.786009311676025,-8.49941635131836,-2.123656988143921,17.0745849609375,8.9874267578125,13.4735107421875
10.8699999,-4.876988887786865,-8.487444877624512,-1.9297266006469727,-0.06103515625,1.2969970703125,11.3677978515625
10.889999900000001,-5.0014872550964355,-8.40843677520752,-1.7190368175506592,1.3885498046875,1.3427734375,14.16015625
10.9099999,-5.104437828063965,-8.310274124145508,-1.558625340461731,-8.7738037109375,4.180908203125,16.0675048828125
10.9299999,-5.140350818634033,-8.219294548034668,-1.5969325304031372,-21.6522216796875,-1.129150390625,13.8702392578125
10.9499999,-5.116408824920654,-8.154650688171387,-1.7549498081207275,-15.1519775390625,1.15966796875,10.80322265625
10.969999900000001,-5.054159641265869,-8.128314971923828,-1.9919757843017578,8.270263671875,13.8397216796875,11.871337890625
10.9899999,-5.0014872550964355,-8.106766700744629,-2.2170307636260986,2.3040771484375,14.312744140625,11.8865966796875
11.0099999,-5.0014872550964355,-8.090007781982422,-2.3032219409942627,-1.9073486328125,11.4593505859375,12.8936767578125
11.0299999,-5.0254292488098145,-8.106766700744629,-2.296039342880249,4.974365234375,8.4228515625,17.852783203125
11.049999900000001,-5.0876784324646,-8.159439086914062,-2.212242364883423,-1.251220703125,7.26318359375,16.754150390625
11.069999900000001,-5.161899089813232,-8.248024940490723,-2.099714994430542,-2.9449462890625,6.0272216796875,13.6566162109375
11.0899999,-5.233725070953369,-8.343792915344238,-2.008735179901123,2.288818359375,2.1820068359375,16.0064697265625
11.1099999,-5.322310447692871,-8.370129585266113,-1.9321208000183105,1.28173828125,0.06103515625,14.46533203125
11.129999900000001,-5.360617637634277,-8.38449478149414,-1.8770540952682495,-1.6021728515625,-1.953125,17.5018310546875
11.149999900000001,-5.370194435119629,-8.355764389038086,-1.8818424940109253,-7.5836181640625,-3.936767578125,15.56396484375
11.1699999,-5.339069843292236,-8.312667846679688,-1.9321208000183105,-10.498046875,-4.4097900390625,11.5966796875
11.1899999,-5.286397457122803,-8.291120529174805,-2.0207061767578125,-5.5999755859375,-1.64794921875,14.5416259765625
11.209999900000001,-5.2480902671813965,-8.243236541748047,-2.1499931812286377,6.988525390625,1.28173828125,16.41845703125
11.229999900000001,-5.25527286529541,-8.169015884399414,-2.2577321529388428,9.0179443359375,3.3111572265625,15.19775390625
11.2499999,-5.2696380615234375,-8.106766700744629,-2.300827741622925,4.2266845703125,4.6234130859375,17.2576904296875
11.2699999,-5.322310447692871,-8.020575523376465,-2.2697031497955322,6.439208984375,6.0272216796875,18.9666748046875
11.2899999,-5.374982833862305,-7.936778545379639,-2.207453966140747,1.40380859375,7.7056884765625,17.7764892578125
11.309999900000001,-5.418078422546387,-7.862558364868164,-2.169146776199341,-2.38037109375,7.9345703125,17.9290771484375
11.3299999,-5.477933406829834,-7.814674377441406,-2.1380221843719482,-2.5177001953125,10.80322265625,18.157958984375
11.3499999,-5.52821159362793,-7.812280178070068,-2.166752576828003,-0.8087158203125,12.3291015625,19.47021484375
11.3699999,-5.5976433753967285,-7.8529815673828125,-2.1571757793426514,2.8839111328125,14.434814453125,23.956298828125
11.389999900000001,-5.57370138168335,-7.955932140350342,-2.10210919380188,16.7388916015625,15.838623046875,41.656494140625
11.4099999,-5.477933406829834,-8.180987358093262,-2.006340980529785,11.9171142578125,17.4560546875,55.023193359375
11.4299999,-5.324704647064209,-8.755595207214355,-1.7381904125213623,8.331298828125,22.2625732421875,62.1185302734375
11.4499999,-5.027823448181152,-10.065223693847656,-1.2425906658172607,12.6800537109375,22.735595703125,71.319580078125
11.469999900000001,-4.666299343109131,-12.543222427368164,-0.4572925269603729,2.6702880859375,12.02392578125,61.5081787109375
11.4899999,-4.292803764343262,-16.488866806030273,0.5386953949928284,7.0037841796875,14.4500732421875,32.379150390625
11.5099999,-3.9911341667175293,-22.443246841430664,2.1811177730560303,27.252197265625,25.32958984375,-16.845703125
11.5299999,-4.28322696685791,-30.164546966552734,4.271255970001221,30.0750732421875,7.32421875,-139.09912109375
11.549999900000001,-5.774814605712891,-38.77888488769531,5.463568210601807,18.585205078125,-47.1343994140625,-291.7938232421875
11.569999900000001,-9.157821655273438,-46.76115417480469,5.2049946784973145,24.0325927734375,-57.373046875,-422.6226806640625
11.5899999,-14.609418869018555,-52.643707275390625,3.1196448802948,57.708740234375,-38.0096435546875,-500
11.6099999,-21.81117820739746,-54.69314193725586,-1.170764684677124,37.017822265625,-65.3839111328125,-500
11.629999900000001,-29.235597610473633,-52.210357666015625,-6.370970726013184,-34.393310546875,-74.9664306640625,-500
11.649999900000001,-35.53713607788086,-45.84178161621094,-11.662156105041504,98.358154296875,0.42724609375,-500
11.6699999,-39.32715606689453,-36.15723419189453,-16.057910919189453,171.5850830078125,51.8035888671875,-500
11.6899999,-40.06696701049805,-25.167848587036133,-18.624494552612305,104.9041748046875,52.79541015625,-500
11.709999900000001,-38.0702018737793,-14.077905654907227,-18.1719913482666,82.611083984375,59.0057373046875,-500
11.729999900000001,-33.863590240478516,-3.7181951999664307,-16.000450134277344,71.2432861328125,44.2657470703125,-472.4578857421875
11.7499999,-28.352136611938477,5.0469770431518555,-12.222399711608887,8.544921875,74.89013671875,-372.61962890625
11.7699999,-22.191856384277344,11.63103199005127,-8.209717750549316,18.5089111328125,111.114501953125,-254.150390625
11.7899999,-16.244659423828125,15.346833229064941,-4.6950297355651855,66.253662109375,112.1063232421875,-183.502197265625
11.809999900000001,-11.010933876037598,15.76581859588623,-1.7884687185287476,21.0723876953125,101.2115478515625,-156.7840576171875
11.8299999,-6.88332986831665,13.979743957519531,0.5171475410461426,-36.6363525390625,95.03173828125,-151.153564453125
11.8499999,-3.8977603912353516,10.800244331359863,1.8818424940109253,-46.38671875,74.6917724609375,-125.8392333984375
11.8699999,-1.8171991109848022,7.568071365356445,2.920926094055176,-9.5977783203125,51.4373779296875,-82.4432373046875
11.889999900000001,-0.3423708379268646,4.929661273956299,3.3877954483032227,29.2510986328125,27.34375,-52.24609375
11.9099999,0.8259995579719543,3.138798475265503,3.4596214294433594,25.3448486328125,14.2364501953125,-39.6728515625
11.9299999,1.8842366933822632,2.22660756111145,3.181894063949585,36.2091064453125,13.092041015625,-26.55029296875
11.9499999,2.918531894683838,2.0685901641845703,2.762908697128296,38.3148193359375,8.1329345703125,-22.0489501953125
11.969999900000001,3.936067581176758,2.4875755310058594,2.408566951751709,6.9122314453125,3.8299560546875,-24.871826171875
11.9899999,4.865017890930176,3.138798475265503,2.2409727573394775,-8.4686279296875,0.2899169921875,-16.78466796875
12.0099999,5.66228723526001,3.7852327823638916,2.2625205516815186,-3.8604736328125,-6.9732666015625,-3.8299560546875
12.0299999,6.277596950531006,4.20421838760376,2.3343467712402344,-1.7852783203125,-18.280029296875,6.6070556640625
12.049999900000001,6.7708024978637695,4.259284973144531,2.3104045391082764,-10.80322265625,-24.2156982421875,12.7410888671875
12.069999900000001,7.144298076629639,4.106055736541748,2.2673089504241943,-5.55419921875,-15.3961181640625,14.7552490234375
12.0899999,7.443572998046875,3.77565598487854,2.161964178085327,-6.805419921875,-10.68115234375,18.3563232421875
12.1099999,7.726089000701904,3.3662476539611816,2.1284453868865967,-11.23046875,-19.7906494140625,28.38134765625
12.129999900000001,8.001421928405762,2.918531894683838,2.166752576828003,0.213623046875,-25.787353515625,33.02001953125
12.149999900000001,8.329427719116211,2.425326347351074,2.118868589401245,8.758544921875,-24.1546630859375,34.3780517578125
12.1699999,8.702922821044922,1.9033904075622559,2.008735179901123,16.6015625,-18.3258056640625,36.102294921875
12.1899999,9.066842079162598,1.4460978507995605,1.8602946996688843,8.575439453125,-20.1873779296875,32.7606201171875
12.209999900000001,9.387664794921875,1.0989385843276978,1.7166426181793213,-6.744384765625,-27.6031494140625,26.5655517578125
12.229999900000001,9.624691009521484,0.8547300100326538,1.5729905366897583,4.791259765625,-27.4810791015625,27.7862548828125
12.2499999,9.77791976928711,0.6607996821403503,1.522712230682373,27.40478515625,-17.120361328125,33.69140625
12.2699999,9.84256362915039,0.5482721924781799,1.4101848602294922,19.9127197265625,-19.4091796875,30.4718017578125
12.289999900000002,9.797073364257812,0.47405192255973816,1.3623007535934448,2.7923583984375,-25.665283203125,25.2532958984375
12.309999900000001,9.646238327026367,0.47644615173339844,1.338358759880066,2.0751953125,-27.1759033203125,27.099609375
12.3299999,9.394847869873047,0.5195417404174805,1.256955862045288,6.5765380859375,-28.2440185546875,32.5775146484375
12.3499999,9.08838939666748,0.545877993106842,1.173158884048462,-3.570556640625,-29.60205078125,34.9578857421875
12.3699999,8.743624687194824,0.5506663918495178,1.1420341730117798,-4.913330078125,-28.778076171875,34.0728759765625
12.389999900000001,8.453926086425781,0.5147533416748047,1.115697979927063,-7.3394775390625,-35.2630615234375,33.7066650390625
12.4099999,8.248024940490723,0.4596867263317108,1.1300631761550903,-20.5841064453125,-43.02978515625,34.088134765625
12.4299999,8.190564155578613,0.44532153010368347,0.933738648891449,-18.1884765625,-48.583984375,35.70556640625
12.4499999,8.219294548034668,0.49320554733276367,0.5602431893348694,-11.383056640625,-43.6553955078125,36.3616943359375
12.469999900000001,8.307879447937012,0.5363011956214905,-0.05027823522686958,-13.519287109375,-33.5235595703125,42.5872802734375
12.4899999,8.38688850402832,0.5219359993934631,-0.5315127968788147,-18.3563232421875,-24.3072509765625,52.6885986328125
12.5099999,8.401253700256348,0.3495534360408783,-0.7230489253997803,-16.90673828125,-24.8260498046875,55.4351806640625
12.5299999,8.315062522888184,0.09576806426048279,-0.5291185975074768,-12.054443359375,-35.6292724609375,53.1768798828125
12.549999900000001,8.176198959350586,-0.16998831927776337,-0.22266076505184174,-8.1787109375,-45.0592041015625,60.24169921875
12.569999900000001,8.030152320861816,-0.3423708379268646,-0.12689268589019775,-3.936767578125,-42.8924560546875,74.0966796875
12.5899999,7.903259754180908,-0.3998316824436188,-0.2801215946674347,29.6478271484375,-24.7039794921875,87.3260498046875
12.6099999,7.790732383728027,-0.4692635238170624,-0.608127236366272,49.0264892578125,-12.1002197265625,94.940185546875
12.629999900000001,7.615955829620361,-0.6009446382522583,-0.7637503147125244,42.6788330078125,-11.688232421875,98.2666015625
12.649999900000001,7.453149795532227,-0.8643068075180054,-0.6392518281936646,46.81396484375,-18.2037353515625,111.0382080078125
12.6699999,7.287950038909912,-1.2186486721038818,-0.2753331959247589,37.0941162109375,-27.1759033203125,113.76953125
12.6899999,7.2113356590271,-1.6208745241165161,0.043095629662275314,9.0179443359375,-33.8134765625,107.4066162109375
12.709999900000001,7.115567684173584,-1.9536685943603516,0.181959331035614,-0.42724609375,-29.632568359375,110.4736328125
12.729999900000001,6.983886241912842,-2.2409727573394775,0.14604631066322327,21.78955078125,-16.54052734375,128.2196044921875
12.7499999,6.698976516723633,-2.537853717803955,0.11971008777618408,34.4390869140625,-12.2833251953125,140.8843994140625
12.7699999,6.27280855178833,-2.9017724990844727,0.24181437492370605,24.627685546875,-17.7154541015625,135.7879638671875
12.789999900000002,5.801150798797607,-3.4308910369873047,0.31603461503982544,7.110595703125,-30.9600830078125,136.16943359375
12.809999900000001,5.360617637634277,-3.971980571746826,0.19153612852096558,-2.044677734375,-29.1748046875,145.5535888671875
12.8299999,4.960785865783691,-4.532223701477051,-0.043095629662275314,25.2685546875,-2.8076171875,158.538818359375
12.8499999,4.627991676330566,-5.056553840637207,-0.304063618183136,45.7916259765625,9.4146728515625,166.290283203125
12.8699999,4.228160381317139,-5.537788391113281,-0.20350714027881622,25.32958984375,2.227783203125,159.0728759765625
12.889999900000001,3.734954595565796,-5.978321552276611,0.014365210197865963,-16.2200927734375,-20.6146240234375,151.6876220703125
12.9099999,3.2752678394317627,-6.335057735443115,0.1867477297782898,19.927978515625,-24.0325927734375,178.16162109375
12.9299999,2.80361008644104,-6.543353080749512,0.45250412821769714,113.006591796875,14.1448974609375,211.85302734375
12.9499999,2.497152328491211,-6.964732646942139,0.8044517636299133,101.01318359375,20.93505859375,211.2274169921875
12.969999900000001,2.2026655673980713,-7.575253963470459,1.3431471586227417,-8.1939697265625,-21.484375,172.9583740234375
12.9899999,1.889025092124939,-8.549694061279297,1.6160861253738403,-66.619873046875,-67.1539306640625,155.975341796875
13.0099999,1.647210717201233,-9.907206535339355,1.1492167711257935,13.458251953125,-56.8695068359375,188.6444091796875
13.0299999,1.3934253454208374,-11.070788383483887,0.1843535304069519,80.74951171875,5.706787109375,197.8912353515625
13.049999900000001,1.158793568611145,-12.174515724182129,-0.9313444495201111,47.3785400390625,44.097900390625,170.623779296875
13.069999900000001,0.9768342971801758,-13.127408027648926,-1.6687586307525635,17.9901123046875,30.6396484375,156.31103515625
13.0899999,0.7493851184844971,-13.759477615356445,-1.7310078144073486,3.326416015625,24.7955322265625,146.7132568359375
13.1099999,0.47405192255973816,-14.18564510345459,-1.381454348564148,29.11376953125,32.1502685546875,133.6517333984375
13.129999900000001,0.06464344263076782,-14.111424446105957,-0.8331822156906128,18.7530517578125,33.2183837890625,117.4163818359375
13.149999900000001,-0.4620809257030487,-13.57512378692627,-0.17477671802043915,3.7689208984375,34.1796875,120.849609375
13.1699999,-1.0965443849563599,-12.90953540802002,0.43335050344467163,16.9219970703125,36.3006591796875,133.2244873046875
13.1899999,-1.7334020137786865,-12.559982299804688,0.7972691655158997,26.336669921875,37.8570556640625,128.173828125
13.209999900000001,-2.2673089504241943,-12.627019882202148,1.0821791887283325,-5.889892578125,36.6973876953125,101.9744873046875
13.229999900000001,-2.6408045291900635,-13.06515884399414,1.1899182796478271,-55.419921875,18.890380859375,77.0111083984375
13.2499999,-2.829946517944336,-13.55357551574707,1.235408067703247,-60.2874755859375,7.62939453125,74.1424560546875
13.2699999,-2.8874073028564453,-13.869610786437988,1.1563993692398071,-45.196533203125,6.866455078125,75.13427734375
13.289999900000002,-2.8562827110290527,-14.018051147460938,0.9169792532920837,-52.7496337890625,9.552001953125,67.87109375
13.309999900000001,-2.827552318572998,-13.996502876281738,0.5817909836769104,-56.1370849609375,8.4686279296875,61.553955078125
13.3299999,-2.8131868839263916,-13.838485717773438,0.3232172429561615,-55.8013916015625,1.739501953125,50.23193359375
13.3499999,-2.806004285812378,-13.51766300201416,0.2082955539226532,-53.8177490234375,-7.6904296875,39.0777587890625
13.3699999,-2.832340717315674,-13.072340965270996,0.2346317619085312,-33.5845947265625,-18.8140869140625,33.4625244140625
13.389999900000001,-2.873042106628418,-12.574347496032715,0.26336219906806946,-30.33447265625,-27.34375,29.7698974609375
13.4099999,-2.942473888397217,-12.02846908569336,0.023942016065120697,-66.253662109375,-41.0614013671875,16.78466796875
13.4299999,-3.0190882682800293,-11.525687217712402,-0.47405192255973816,-72.9217529296875,-41.473388671875,12.2528076171875
13.4499999,-3.1100680828094482,-11.006145477294922,-1.1276689767837524,-38.2080078125,-25.238037109375,16.510009765625
13.469999900000001,-3.222595453262329,-10.498574256896973,-1.7142484188079834,-26.4434814453125,-18.096923828125,18.524169921875
13.4899999,-3.3494882583618164,-10.077195167541504,-2.011129379272461,-21.209716796875,-18.310546875,20.965576171875
13.5099999,-3.442862033843994,-9.785101890563965,-2.0398597717285156,-10.4522705078125,-18.890380859375,24.5513916015625
13.5299999,-3.488351821899414,-9.66299819946289,-1.9608511924743652,-9.857177734375,-18.280029296875,22.4151611328125
13.549999900000001,-3.4596214294433594,-9.679757118225098,-1.9393033981323242,-6.256103515625,-13.824462890625,19.7601318359375
13.569999900000001,-3.4189200401306152,-9.75637149810791,-1.946485996246338,-4.82177734375,-5.6610107421875,16.4031982421875
13.5899999,-3.380612850189209,-9.854534149169922,-1.9345149993896484,-3.6773681640625,-2.6702880859375,15.3656005859375
13.6099999,-3.3686418533325195,-9.947908401489258,-1.889025092124939,4.82177734375,-2.6092529296875,15.106201171875
13.629999900000001,-3.383007049560547,-10.038887977600098,-1.7741034030914307,15.2130126953125,1.3580322265625,12.87841796875
13.649999900000001,-3.421314239501953,-10.125079154968262,-1.7166426181793213,7.904052734375,4.8065185546875,5.4473876953125
13.6699999,-3.4811692237854004,-10.163386344909668,-1.7046716213226318,-5.3863525390625,7.171630859375,0.213623046875
13.6899999,-3.555389642715454,-10.122684478759766,-1.678335428237915,-16.357421875,10.772705078125,-2.9296875
13.709999900000001,-3.646369218826294,-10.02452278137207,-1.5921441316604614,-28.13720703125,10.0555419921875,-5.8441162109375
13.729999900000001,-3.7253777980804443,-9.876082420349121,-1.4532804489135742,-28.4423828125,5.828857421875,-4.486083984375
13.7499999,-3.8115692138671875,-9.737217903137207,-1.3096283674240112,-22.2015380859375,1.15966796875,-5.3253173828125
13.7699999,-3.8810009956359863,-9.591172218322754,-1.2497732639312744,-24.96337890625,-3.173828125,-6.2408447265625
13.789999900000002,-3.928884983062744,-9.445125579833984,-1.3311761617660522,-31.7230224609375,-3.9520263671875,-9.9029541015625
13.809999900000001,-3.955221176147461,-9.251194953918457,-1.5203180313110352,-32.8369140625,-3.7689208984375,-11.3525390625
13.8299999,-3.9671921730041504,-9.02135181427002,-1.766920804977417,-40.618896484375,-3.753662109375,-12.14599609375
13.8499999,-3.9695863723754883,-8.796297073364258,-1.9991583824157715,-29.632568359375,-0.18310546875,-5.9051513671875
13.8699999,-3.952826976776123,-8.62630844116211,-2.1930887699127197,-4.39453125,5.3558349609375,2.0904541015625
13.889999900000001,-3.9217023849487305,-8.540117263793945,-2.3487119674682617,-1.89208984375,7.01904296875,2.62451171875
13.9099999,-3.8786067962646484,-8.556877136230469,-2.427720546722412,-8.697509765625,8.9263916015625,0.457763671875
13.9299999,-3.8570590019226074,-8.614337921142578,-2.410961151123047,-12.5274658203125,11.1846923828125,-1.03759765625
13.9499999,-3.8522706031799316,-8.702922821044922,-2.293645143508911,-13.0157470703125,6.500244140625,-0.0152587890625
13.969999900000001,-3.8762125968933105,-8.78193187713623,-2.121262788772583,-20.08056640625,0.9918212890625,-0.9613037109375
13.9899999,-3.88818359375,-8.844181060791016,-1.9967641830444336,-33.02001953125,-1.52587890625,-3.41796875
14.0099999,-3.8810009956359863,-8.892065048217773,-2.032677173614502,-43.9300537109375,-1.9073486328125,-6.0272216796875
14.0299999,-3.861847400665283,-8.908824920654297,-2.2146365642547607,-34.5001220703125,1.1749267578125,-5.1422119140625
14.049999900000001,-3.8355112075805664,-8.901641845703125,-2.4851813316345215,-18.85986328125,5.462646484375,-0.701904296875
14.069999900000001,-3.818751811981201,-8.865729331970215,-2.693476915359497,-7.99560546875,8.6517333984375,2.01416015625
14.0899999,-3.8139634132385254,-8.83939266204834,-2.7748796939849854,-0.518798828125,8.331298828125,3.7078857421875
14.1099999,-3.818751811981201,-8.827422142028809,-2.738966703414917,-4.5318603515625,3.6773681640625,1.4495849609375
14.129999900000001,-3.821146011352539,-8.834604263305664,-2.6862943172454834,-9.8419189453125,0,-1.373291015625
14.149999900000001,-3.8163576126098633,-8.860940933227539,-2.693476915359497,-17.1966552734375,3.265380859375,-3.2958984375
14.1699999,-3.8091750144958496,-8.83939266204834,-2.784456491470337,-18.8140869140625,7.8582763671875,-3.387451171875
14.1899999,-3.7900211811065674,-8.80587387084961,-2.889801502227783,-5.401611328125,9.918212890625,2.50244140625
14.209999900000001,-3.7852327823638916,-8.7484130859375,-2.937685489654541,2.4566650390625,8.636474609375,5.55419921875
14.229999900000001,-3.7852327823638916,-8.707711219787598,-2.935291290283203,-0.335693359375,5.9051513671875,3.47900390625
14.2499999,-3.7924153804779053,-8.688557624816895,-2.9328970909118652,-12.0391845703125,3.0670166015625,1.434326171875
14.2699999,-3.7924153804779053,-8.702922821044922,-2.978386878967285,-14.7705078125,4.7149658203125,1.190185546875
14.289999900000002,-3.7876269817352295,-8.71728801727295,-3.0597896575927734,-7.4462890625,8.97216796875,2.1514892578125
14.309999900000001,-3.780444383621216,-8.736441612243652,-3.117250680923462,-1.800537109375,11.0015869140625,2.8839111328125
14.3299999,-3.780444383621216,-8.757989883422852,-3.114856481552124,2.2125244140625,9.6282958984375,3.5247802734375
14.3499999,-3.799597978591919,-8.762778282165527,-3.043030261993408,4.33349609375,7.2174072265625,3.0670166015625
14.3699999,-3.825934410095215,-8.78193187713623,-2.940079689025879,-0.91552734375,4.8980712890625,1.0528564453125
14.389999900000001,-3.840299606323242,-8.772355079650879,-2.913743495941162,-8.026123046875,2.13623046875,-0.8544921875
14.4099999,-3.84269380569458,-8.75080680847168,-2.9472622871398926,-8.544921875,4.1351318359375,-0.4425048828125
14.4299999,-3.8331170082092285,-8.71489429473877,-3.0310592651367188,-4.0740966796875,7.62939453125,0.946044921875
14.4499999,-3.823540210723877,-8.669404029846191,-3.117250680923462,-0.0762939453125,7.4615478515625,1.373291015625
14.469999900000001,-3.8115692138671875,-8.635885238647461,-3.160346269607544,-3.387451171875,5.1727294921875,0.579833984375
14.4899999,-3.804386615753174,-8.604761123657227,-3.157952070236206,-10.223388671875,3.2958984375,-0.9765625
14.5099999,-3.7852327823638916,-8.573636054992676,-3.181894063949585,-11.3525390625,1.8463134765625,-1.251220703125
14.5299999,-3.7708675861358643,-8.53293514251709,-3.246537446975708,-7.781982421875,3.5400390625,-0.396728515625
14.549999900000001,-3.7708675861358643,-8.497021675109863,-3.31118106842041,-9.6588134765625,6.6375732421875,-0.518798828125
14.569999900000001,-3.778050184249878,-8.461109161376953,-3.3734302520751953,-13.12255859375,7.2021484375,-2.86865234375
14.5899999,-3.8067808151245117,-8.432378768920898,-3.3734302520751953,-1.129150390625,5.157470703125,4.0435791015625
14.6099999,-3.799597978591919,-8.439560890197754,-3.3470940589904785,14.739990234375,4.6844482421875,10.3759765625
14.629999900000001,-3.797203779220581,-8.468291282653809,-3.315969467163086,16.7694091796875,6.072998046875,7.049560546875
14.649999900000001,-3.7636849880218506,-8.504204750061035,-3.3303346633911133,9.429931640625,4.57763671875,4.39453125
14.6699999,-3.756502389907837,-8.537723541259766,-3.332728862762451,-4.9285888671875,3.4332275390625,1.4190673828125
14.6899999,-3.7708675861358643,-8.544905662536621,-3.337517261505127,-11.41357421875,0.396728515625,0.0762939453125
14.709999900000001,-3.8115692138671875,-8.51138687133789,-3.332728862762451,2.1820068359375,3.4332275390625,5.18798828125
14.729999900000001,-3.8594532012939453,-8.453926086425781,-3.339911460876465,5.7525634765625,6.3323974609375,8.1787109375
14.7499999,-3.8810009956359863,-8.403648376464844,-3.3925838470458984,-10.1318359375,-1.6326904296875,5.2337646484375
14.7699999,-3.8714241981506348,-8.348581314086914,-3.514688014984131,-8.941650390625,-1.0986328125,5.1422119140625
14.789999900000002,-3.8307228088378906,-8.355764389038086,-3.6535518169403076,24.5819091796875,8.48388671875,10.650634765625
14.809999900000001,-3.7924153804779053,-8.379706382751465,-3.7421371936798096,29.60205078125,16.2811279296875,13.5650634765625
14.8299999,-3.7660791873931885,-8.451532363891602,-3.7469255924224854,10.19287109375,13.85498046875,12.1307373046875
14.8499999,-3.7660791873931885,-8.537723541259766,-3.6367924213409424,9.0179443359375,7.843017578125,9.82666015625
14.8699999,-3.801992416381836,-8.595184326171875,-3.469198226928711,5.2490234375,4.1656494140625,4.9285888671875
14.889999900000001,-3.8546648025512695,-8.604761123657227,-3.3446998596191406,-4.058837890625,2.5634765625,1.89208984375
14.9099999,-3.928884983062744,-8.540117263793945,-3.268085241317749,0.4425048828125,7.6141357421875,5.3558349609375
14.9299999,-4.01268196105957,-8.434772491455078,-3.2178070545196533,8.72802734375,12.8326416015625,8.11767578125
14.9499999,-4.0749311447143555,-8.324639320373535,-3.1723172664642334,6.683349609375,11.04736328125,7.38525390625
14.969999900000001,-4.125209331512451,-8.245630264282227,-3.098097085952759,-3.2501220703125,7.4615478515625,5.55419921875
14.9899999,-4.1395745277404785,-8.20732307434082,-3.0358476638793945,-8.819580078125,6.2713623046875,7.0648193359375
15.0099999,-4.141968727111816,-8.221688270568848,-3.00711727142334,-1.0986328125,8.4991455078125,10.3302001953125
15.0299999,-4.120420932769775,-8.269572257995605,-3.0334534645080566,0.579833984375,9.0789794921875,7.8125
15.049999900000001,-4.125209331512451,-8.334216117858887,-3.0550012588500977,1.0223388671875,7.5836181640625,7.5225830078125
15.069999900000001,-4.1156325340271,-8.382100105285645,-3.112462282180786,7.7362060546875,3.9520263671875,10.1165771484375
15.0899999,-4.113238334655762,-8.403648376464844,-3.162740468978882,3.5400390625,2.7313232421875,9.3231201171875
15.1099999,-4.0964789390563965,-8.38688850402832,-3.2345664501190186,3.143310546875,3.662109375,8.9874267578125
15.129999900000001,-4.082113742828369,-8.346187591552734,-3.287238836288452,4.638671875,5.2642822265625,8.8653564453125
15.149999900000001,-4.0749311447143555,-8.307879447937012,-3.3039982318878174,3.35693359375,4.5013427734375,9.429931640625
15.1699999,-4.072536945343018,-8.267178535461426,-3.318363666534424,2.99072265625,2.7008056640625,10.345458984375
15.1899999,-4.0749311447143555,-8.267178535461426,-3.313575267791748,8.544921875,5.615234375,11.3372802734375
15.209999900000001,-4.065354347229004,-8.288725852966309,-3.3231520652770996,9.368896484375,8.1329345703125,11.5203857421875
15.229999900000001,-4.062960147857666,-8.334216117858887,-3.31118106842041,9.0179443359375,7.4310302734375,11.5966796875
15.2499999,-4.089296340942383,-8.374917984008789,-3.2585084438323975,8.8043212890625,6.0272216796875,12.969970703125
15.2699999,-4.144362926483154,-8.391676902770996,-3.1531636714935303,7.080078125,3.4027099609375,13.8702392578125
15.289999900000002,-4.223371982574463,-8.382100105285645,-3.043030261993408,-5.035400390625,-4.3182373046875,10.7574462890625
15.309999900000001,-4.28322696685791,-8.377311706542969,-2.999934673309326,-14.5111083984375,-8.9874267578125,10.0555419921875
15.3299999,-4.314351558685303,-8.394071578979492,-3.004723072052002,-17.1356201171875,-2.99072265625,10.8489990234375
15.3499999,-4.326322555541992,-8.394071578979492,-3.064578056335449,-12.6953125,2.5634765625,10.31494140625
15.3699999,-4.333505153656006,-8.413225173950195,-3.1220390796661377,-8.7738037109375,1.9683837890625,11.0015869140625
15.389999900000001,-4.357447147369385,-8.389283180236816,-3.1459810733795166,-4.3182373046875,1.617431640625,14.4195556640625
15.4099999,-4.388571739196777,-8.334216117858887,-3.136404275894165,-5.3558349609375,0.8392333984375,14.190673828125
15.4299999,-4.41969633102417,-8.279149055480957,-3.1100680828094482,-1.8768310546875,1.251220703125,13.0615234375
15.4499999,-4.455609321594238,-8.176198959350586,-3.138798475265503,5.3863525390625,-0.4730224609375,16.1895751953125
15.469999900000001,-4.467580318450928,-8.135497093200684,-3.2393548488616943,-0.4119873046875,-4.1046142578125,19.2108154296875
15.4899999,-4.489128112792969,-8.10437297821045,-3.380612850189209,-17.51708984375,-2.25830078125,14.46533203125
15.5099999,-4.49870491027832,-8.14028549194336,-3.550601005554199,-24.993896484375,1.2969970703125,11.4288330078125
15.5299999,-4.508281707763672,-8.216899871826172,-3.646369218826294,-0.091552734375,8.2855224609375,18.798828125
15.549999900000001,-4.55616569519043,-8.283937454223633,-3.620033025741577,13.9617919921875,10.8489990234375,20.56884765625
15.569999900000001,-4.618414878845215,-8.324639320373535,-3.536235809326172,4.5928955078125,4.7760009765625,15.228271484375
15.5899999,-4.711789131164551,-8.300697326660156,-3.4165258407592773,2.2125244140625,2.166748046875,11.749267578125
15.6099999,-4.812345504760742,-8.20732307434082,-3.318363666534424,8.5906982421875,4.5623779296875,10.6201171875
15.629999900000001,-4.90571928024292,-8.08282470703125,-3.265691041946411,2.7313232421875,4.547119140625,9.4146728515625
15.649999900000001,-4.9799394607543945,-7.951143741607666,-3.224989652633667,-4.2877197265625,5.4473876953125,9.6282958984375
15.6699999,-5.020640850067139,-7.884106159210205,-3.181894063949585,-6.561279296875,7.0953369140625,11.1541748046875
15.6899999,-5.039794445037842,-7.843404769897461,-3.162740468978882,-16.387939453125,2.8076171875,9.1094970703125
15.709999900000001,-5.020640850067139,-7.860164165496826,-3.224989652633667,-35.5987548828125,-6.591796875,6.5155029296875
15.729999900000001,-4.972756862640381,-7.8960771560668945,-3.4165258407592773,-41.412353515625,-8.2855224609375,6.4544677734375
15.7499999,-4.9368438720703125,-7.903259754180908,-3.648763418197632,-18.2037353515625,2.960205078125,5.4931640625
15.7699999,-4.9152960777282715,-7.8960771560668945,-3.8786067962646484,1.5106201171875,9.979248046875,7.9803466796875
15.789999900000002,-4.944026470184326,-7.838616371154785,-3.9671921730041504,9.368896484375,6.6680908203125,12.5579833984375
15.809999900000001,-5.0014872550964355,-7.771578788757324,-3.9480385780334473,24.8260498046875,1.64794921875,16.632080078125
15.8299999,-5.070919036865234,-7.6782050132751465,-3.8953661918640137,18.7835693359375,0.9307861328125,14.95361328125
15.8499999,-5.130774021148682,-7.637503623962402,-3.8738183975219727,-23.5137939453125,0.7781982421875,6.6375732421875
15.869999900000002,-5.16429328918457,-7.620744228363037,-3.883395195007324,-27.6336669921875,1.434326171875,9.21630859375
15.889999900000001,-5.190629482269287,-7.623138427734375,-3.8810009956359863,4.8370361328125,3.23486328125,15.289306640625
15.9099999,-5.195417881011963,-7.6111674308776855,-3.8498764038085938,4.94384765625,1.3885498046875,15.80810546875
15.9299999,-5.17626428604126,-7.6111674308776855,-3.8307228088378906,-4.364013671875,1.03759765625,17.15087890625
15.9499999,-5.142745018005371,-7.603984832763672,-3.892971992492676,14.4805908203125,7.1258544921875,21.6522216796875
15.969999900000001,-5.128379821777344,-7.5848307609558105,-3.9049429893493652,20.4315185546875,16.4642333984375,21.484375
15.9899999,-5.128379821777344,-7.60637903213501,-3.8283286094665527,3.021240234375,15.0299072265625,20.0653076171875
16.0099999,-5.125985622406006,-7.599195957183838,-3.689464807510376,6.011962890625,6.5765380859375,24.658203125
16.0299999,-5.12119722366333,-7.556100368499756,-3.557783842086792,2.532958984375,4.45556640625,25.604248046875
16.0499999,-5.006275653839111,-7.556100368499756,-3.5745432376861572,-12.4969482421875,3.4637451171875,32.3333740234375
16.0699999,-4.853046894073486,-7.592013359069824,-3.7038300037384033,-28.25927734375,3.96728515625,35.858154296875
16.089999900000002,-4.6471452713012695,-7.778761386871338,-4.041412353515625,-38.8641357421875,-1.3275146484375,38.726806640625
16.109999900000002,-4.455609321594238,-8.176198959350586,-4.462791919708252,-49.37744140625,-1.0528564453125,43.8079833984375
16.1299999,-4.355052947998047,-8.765172004699707,-4.843470096588135,-24.47509765625,8.544921875,50.10986328125
16.1499999,-4.28322696685791,-9.579200744628906,-5.080495834350586,25.4974365234375,26.8402099609375,62.01171875
16.1699999,-4.216189384460449,-10.94150161743164,-4.948814868927002,31.097412109375,24.9786376953125,74.03564453125
16.1899999,-4.170699596405029,-13.409923553466797,-4.8267107009887695,10.5438232421875,-3.448486328125,80.535888671875
16.2099999,-4.417302131652832,-19.045873641967773,-3.7900211811065674,121.6888427734375,27.435302734375,91.2628173828125
16.2299999,-5.018246650695801,-29.419950485229492,-2.161964178085327,197.5860595703125,58.5174560546875,-6.9580078125
16.249999900000002,-7.462726593017578,-41.64234924316406,-0.7805097699165344,81.207275390625,-42.8619384765625,-263.1072998046875
16.269999900000002,-12.188880920410156,-54.14008331298828,-0.47644615173339844,54.5196533203125,-67.718505859375,-464.874267578125
16.2899999,-19.788076400756836,-62.07207489013672,-2.3247697353363037,17.364501953125,-34.3780517578125,-500
16.3099999,-29.613880157470703,-62.919620513916016,-6.766014099121094,-105.5450439453125,-4.1351318359375,-500
16.3299999,-39.638404846191406,-57.312400817871094,-12.109871864318848,-87.40234375,65.399169921875,-500
16.3499999,-47.900794982910156,-46.11471939086914,-16.71631622314453,-43.670654296875,142.5628662109375,-500
16.3699999,-52.46653747558594,-30.43509292602539,-18.825607299804688,-128.509521484375,199.493408203125,-500
16.3899999,-52.07149124145508,-13.141773223876953,-17.719486236572266,-124.664306640625,228.851318359375,-500
16.4099999,-47.03169631958008,2.9305028915405273,-13.93664836883545,-20.4010009765625,217.5140380859375,-422.698974609375
16.429999900000002,-38.52749252319336,15.081076622009277,-8.489839553833008,13.9312744140625,209.2132568359375,-308.074951171875
16.4499999,-28.541278839111328,21.13361930847168,-3.3518824577331543,-25.054931640625,194.244384765625,-245.5596923828125
16.4699999,-19.19910430908203,21.655553817749023,0.5937620401382446,-64.0869140625,171.4019775390625,-198.9288330078125
16.4899999,-11.772290229797363,18.385074615478516,3.224989652633667,-96.1151123046875,143.402099609375,-165.8172607421875
16.5099999,-6.540958881378174,13.39316463470459,4.4508209228515625,-51.2847900390625,111.053466796875,-123.0010986328125
16.5299999,-3.2154128551483154,8.329427719116211,4.580107688903809,5.9356689453125,79.5745849609375,-84.1064453125
16.5499999,-1.2090718746185303,4.244919776916504,4.036623954772949,3.0670166015625,66.34521484375,-70.7244873046875
16.5699999,-0.004788403399288654,1.53707754611969,3.0573954582214355,-52.093505859375,56.8695068359375,-80.13916015625
16.589999900000002,0.9145850539207458,0.21787235140800476,2.188300371170044,-54.9774169921875,45.166015625,-74.981689453125
16.609999900000002,1.7118542194366455,0.16519992053508759,1.7142484188079834,-12.5579833984375,32.40966796875,-56.2286376953125
16.6299999,2.5785553455352783,0.8786720037460327,1.6950948238372803,33.9508056640625,24.169921875,-29.7393798828125
16.6499999,3.5003228187561035,1.824381709098816,1.922544002532959,62.3931884765625,21.1181640625,-5.8746337890625
16.6699999,4.426878929138184,2.5713725090026855,2.279279947280884,66.0247802734375,16.3726806640625,-0.4119873046875
16.6899999,5.317522048950195,2.959233283996582,2.5713725090026855,42.48046875,-0.1678466796875,-7.2174072265625
16.7099999,6.0836663246154785,3.1004912853240967,2.63362193107605,33.111572265625,-15.19775390625,-5.4931640625
16.7299999,6.761225700378418,3.07415509223938,2.4875755310058594,28.9459228515625,-15.899658203125,7.2174072265625
16.749999900000002,7.338228225708008,2.985569477081299,2.0614075660705566,20.4925537109375,-14.739990234375,13.0462646484375
16.769999900000002,7.848193168640137,2.760514497756958,1.558625340461731,21.270751953125,-16.0980224609375,12.51220703125
16.7899999,8.329427719116211,2.434903144836426,1.139639973640442,27.7862548828125,-17.333984375,12.4664306640625
16.8099999,8.729259490966797,2.1380221843719482,0.7972691655158997,45.501708984375,-17.822265625,15.7012939453125
16.8299999,9.059659004211426,1.9081788063049316,0.5506663918495178,49.7283935546875,-18.157958984375,21.484375
16.8499999,9.32302188873291,1.742978811264038,0.3208230137825012,34.48486328125,-16.29638671875,26.5045166015625
16.8699999,9.5408935546875,1.6089035272598267,0.1843535304069519,24.4293212890625,-15.1519775390625,27.34375
16.8899999,9.720458984375,1.4867992401123047,0.07661445438861847,23.3154296875,-16.17431640625,24.261474609375
16.9099999,9.828198432922363,1.3934253454208374,-0.0071826050989329815,18.4173583984375,-17.9290771484375,25.1922607421875
16.929999900000002,9.854534149169922,1.3072341680526733,-0.16759411990642548,16.4642333984375,-16.876220703125,30.3192138671875
16.9499999,9.823410034179688,1.113303780555725,-0.24899697303771973,21.4691162109375,-8.5601806640625,35.8428955078125
16.9699999,9.763554573059082,0.7757213711738586,-0.3280056416988373,9.3536376953125,-8.148193359375,27.679443359375
16.9899999,9.68694019317627,0.4596867263317108,-0.2992752194404602,-14.1448974609375,-15.19775390625,10.6658935546875
17.0099999,9.586383819580078,0.2513911724090576,-0.28969839215278625,-23.3154296875,-16.8914794921875,7.38525390625
17.0299999,9.481039047241211,0.2082955539226532,-0.26096799969673157,-0.8087158203125,-10.5133056640625,23.25439453125
17.0499999,9.390059471130371,0.24181437492370605,-0.26815059781074524,28.01513671875,-3.7078857421875,35.369873046875
17.0699999,9.35654067993164,0.20111294090747833,-0.24420857429504395,29.0374755859375,-5.7830810546875,30.3802490234375
17.089999900000002,9.361329078674316,0.12210428714752197,-0.2801215946674347,6.6070556640625,-10.6201171875,18.85986328125
17.109999900000002,9.399636268615723,0.0454898327589035,-0.2753331959247589,-5.7373046875,-6.805419921875,18.1732177734375
17.1299999,9.473855972290039,0.026336219161748886,-0.28730419278144836,4.638671875,-2.9296875,29.1748046875
17.1499999,9.567230224609375,0.05506663769483566,-0.20111294090747833,27.64892578125,-2.7313232421875,32.501220703125
17.1699999,9.651026725769043,0.011971008032560349,-0.05267243832349777,28.7933349609375,-7.4615478515625,27.0233154296875
17.1899999,9.651026725769043,-0.043095629662275314,-0.004788403399288654,22.216796875,-10.345458984375,23.4832763671875
17.2099999,9.560047149658203,-0.12210428714752197,-0.004788403399288654,16.7083740234375,-7.5225830078125,28.656005859375
17.2299999,9.402029991149902,-0.19393034279346466,-0.12210428714752197,35.2783203125,-5.7220458984375,33.1268310546875
17.249999900000002,9.17936897277832,-0.272938996553421,-0.2322375625371933,45.2880859375,-6.439208984375,34.7137451171875
17.269999900000002,8.959102630615234,-0.3758896589279175,-0.3064578175544739,44.3115234375,-6.134033203125,35.0341796875
17.2899999,8.722076416015625,-0.4644751250743866,-0.35673606395721436,1.739501953125,-10.1776123046875,31.8450927734375
17.3099999,8.523358345031738,-0.5147533416748047,-0.3902548849582672,-23.4375,-15.2587890625,30.7159423828125
17.3299999,8.307879447937012,-0.49320554733276367,-0.4381389021873474,-12.9547119140625,-16.29638671875,30.5023193359375
17.3499999,8.08282470703125,-0.3878606855869293,-0.45250412821769714,-14.7552490234375,-17.5323486328125,30.6243896484375
17.3699999,7.8745293617248535,-0.2777273952960968,-0.3998316824436188,-6.3018798828125,-19.6380615234375,44.708251953125
17.3899999,7.644686222076416,-0.22266076505184174,-0.23702596127986908,22.3236083984375,-17.547607421875,57.6171875
17.409999900000003,7.422025203704834,-0.24181437492370605,-0.09816227108240128,46.56982421875,-19.0887451171875,61.3861083984375
17.429999900000002,7.134721279144287,-0.3711012601852417,0.016759412363171577,41.748046875,-21.636962890625,60.4705810546875
17.4499999,6.871358871459961,-0.5626373887062073,0.016759412363171577,20.172119140625,-25.4974365234375,69.4580078125
17.4699999,6.629544734954834,-0.9457096457481384,0.10534487664699554,31.341552734375,-23.6053466796875,81.634521484375
17.4899999,6.471527099609375,-1.4173674583435059,0.16519992053508759,36.407470703125,-36.8804931640625,75.8056640625
17.5099999,6.375759124755859,-1.9081788063049316,0.13168109953403473,27.8472900390625,-55.4046630859375,69.305419921875
17.5299999,6.354211330413818,-2.2577321529388428,-0.026336219161748886,26.7486572265625,-49.7589111328125,78.6895751953125
17.5499999,6.40927791595459,-2.5474305152893066,-0.27054479718208313,35.0799560546875,-37.261962890625,98.3428955078125
17.5699999,6.596025466918945,-2.7772738933563232,-0.5051765441894531,36.0107421875,-42.724609375,101.4862060546875
17.589999900000002,6.823474884033203,-3.0861260890960693,-0.6775590777397156,2.8533935546875,-61.0198974609375,89.752197265625
17.609999900000002,7.0341644287109375,-3.380612850189209,-0.9768342971801758,-6.7138671875,-67.169189453125,91.9342041015625
17.6299999,7.1921820640563965,-3.7038300037384033,-1.5538369417190552,19.6685791015625,-55.4351806640625,116.485595703125
17.6499999,7.292738437652588,-4.1180267333984375,-2.2026655673980713,23.895263671875,-40.8172607421875,125.3662109375
17.6699999,7.3023152351379395,-4.639962673187256,-2.7988216876983643,-9.2315673828125,-40.1763916015625,104.43115234375
17.6899999,7.115567684173584,-5.207388877868652,-3.0861260890960693,-24.993896484375,-42.938232421875,93.963623046875
17.7099999,6.739677906036377,-5.7341132164001465,-2.942473888397217,7.14111328125,-35.5224609375,118.2403564453125
17.7299999,6.246472358703613,-6.27280855178833,-2.5234885215759277,44.891357421875,-33.0963134765625,145.721435546875
17.749999900000002,5.825092792510986,-7.0126166343688965,-2.1811177730560303,39.1845703125,-45.71533203125,139.678955078125
17.769999900000002,5.5114521980285645,-7.910442352294922,-2.0183119773864746,-9.4451904296875,-53.985595703125,110.321044921875
17.7899999,5.293580055236816,-8.734047889709473,-2.1763293743133545,-50.3387451171875,-53.2379150390625,88.2415771484375
17.8099999,5.183446884155273,-9.289502143859863,-2.5665841102600098,-39.581298828125,-52.215576171875,98.57177734375
17.8299999,5.142745018005371,-9.495404243469238,-3.064578056335449,-2.62451171875,-47.6837158203125,107.5286865234375
17.8499999,5.1595048904418945,-9.612719535827637,-3.646369218826294,5.950927734375,-46.2646484375,97.10693359375
17.8699999,5.128379821777344,-9.708487510681152,-4.213795185089111,-12.298583984375,-42.54150390625,80.74951171875
17.8899999,4.876988887786865,-9.653421401977539,-4.522646903991699,-9.94873046875,-31.341552734375,79.8187255859375
17.909999900000003,4.462791919708252,-9.555258750915527,-4.364629745483398,45.5780029296875,-20.99609375,115.081787109375
17.929999900000002,3.9217023849487305,-9.428366661071777,-3.754108190536499,94.90966796875,-25.0701904296875,136.2152099609375
17.9499999,3.375824451446533,-9.495404243469238,-2.920926094055176,102.3101806640625,-32.9742431640625,126.03759765625
17.9699999,2.9305028915405273,-9.718064308166504,-2.1523873805999756,79.89501953125,-44.6624755859375,105.5145263671875
17.9899999,2.5929205417633057,-9.93593692779541,-1.6328455209732056,14.2669677734375,-58.2733154296875,91.8121337890625
18.0099999,2.406172752380371,-10.163386344909668,-1.5705963373184204,-19.287109375,-61.248779296875,103.7750244140625
18.0299999,2.33913516998291,-10.366893768310547,-1.8914192914962769,25.1007080078125,-49.530029296875,110.382080078125
18.0499999,2.298433542251587,-10.733205795288086,-2.454056739807129,17.5933837890625,-37.1856689453125,85.8306884765625
18.0699999,2.2864625453948975,-11.307814598083496,-2.9735984802246094,-63.720703125,-41.6107177734375,59.7686767578125
18.089999900000002,2.2194249629974365,-11.865663528442383,-3.1052796840667725,-67.3980712890625,-47.5616455078125,54.9163818359375
18.109999900000002,2.121262788772583,-12.306197166442871,-2.9496564865112305,1.3427734375,-60.394287109375,63.96484375
18.1299999,2.0231003761291504,-12.51449203491211,-2.8586769104003906,-1.922607421875,-70.037841796875,53.5125732421875
18.1499999,1.843535304069519,-12.416330337524414,-2.896984100341797,-46.32568359375,-57.8460693359375,37.53662109375
18.1699999,1.6687586307525635,-12.193669319152832,-3.272873640060425,-36.2548828125,-40.130615234375,42.083740234375
18.1899999,1.4460978507995605,-11.951854705810547,-3.6511576175689697,10.894775390625,-29.5562744140625,53.070068359375
18.2099999,1.2210428714752197,-11.719616889953613,-3.9671921730041504,53.6651611328125,-32.196044921875,48.3245849609375
18.2299999,0.9840168952941895,-11.556811332702637,-4.177882194519043,24.1851806640625,-36.529541015625,30.82275390625
18.249999900000002,0.6823474764823914,-11.305420875549316,-4.137180328369141,-24.7955322265625,-27.5115966796875,22.247314453125
18.269999900000002,0.35434186458587646,-10.975020408630371,-3.9025487899780273,-30.670166015625,-26.30615234375,27.740478515625
18.2899999,-0.028730420395731926,-10.565611839294434,-3.3734302520751953,-4.669189453125,-29.815673828125,36.1175537109375
18.3099999,-0.4165911078453064,-10.141838073730469,-2.738966703414917,11.77978515625,-43.1671142578125,42.1600341796875
18.3299999,-0.8475474119186401,-9.770736694335938,-2.3319525718688965,-8.6212158203125,-62.5152587890625,45.5322265625
18.3499999,-1.1204863786697388,-9.600749015808105,-2.3104045391082764,-49.3011474609375,-50.7049560546875,55.267333984375
18.3699999,-1.3862427473068237,-9.600749015808105,-2.612074136734009,-60.577392578125,-21.0723876953125,47.332763671875
18.3899999,-1.4915876388549805,-9.847352027893066,-2.9712042808532715,1.2969970703125,-10.2691650390625,43.4417724609375
18.409999900000003,-1.5945383310317993,-10.086771965026855,-3.098097085952759,34.36279296875,-18.5699462890625,51.2237548828125
18.429999900000002,-1.721431016921997,-10.333374977111816,-2.8874073028564453,23.284912109375,-34.8663330078125,51.1932373046875
18.4499999,-1.8483237028121948,-10.522516250610352,-2.561795711517334,30.242919921875,-45.7305908203125,51.116943359375
18.4699999,-1.9752163887023926,-10.613495826721191,-2.2146365642547607,33.966064453125,-40.8477783203125,47.9278564453125
18.4899999,-2.1356279850006104,-10.647014617919922,-1.968033790588379,4.669189453125,-43.1671142578125,26.885986328125
18.5099999,-2.2457611560821533,-10.572794914245605,-1.9967641830444336,-15.167236328125,-58.4259033203125,26.3671875
18.5299999,-2.4181437492370605,-10.33098030090332,-2.078166961669922,22.369384765625,-58.5174560546875,37.0635986328125
18.5499999,-2.5306711196899414,-10.067618370056152,-2.343923568725586,54.351806640625,-39.2913818359375,41.534423828125
18.5699999,-2.650381326675415,-9.801861763000488,-2.585737943649292,15.80810546875,-30.57861328125,36.376953125
18.589999900000002,-2.7246015071868896,-9.612719535827637,-2.6791117191314697,-4.8675537109375,-24.932861328125,29.7088623046875
18.609999900000002,-2.832340717315674,-9.378087997436523,-2.5785553455352783,-7.75146484375,-26.3519287109375,30.364990234375
18.6299999,-2.983175277709961,-9.138668060302734,-2.293645143508911,-78.9794921875,-30.9600830078125,22.6898193359375
18.6499999,-3.1100680828094482,-8.908824920654297,-2.0374655723571777,-123.1231689453125,-45.989990234375,13.00048828125
18.6699999,-3.2752678394317627,-8.611943244934082,-1.821987509727478,-82.51953125,-56.488037109375,4.8828125
18.6899999,-3.4189200401306152,-8.44434928894043,-1.7860745191574097,-55.572509765625,-72.0367431640625,-21.5301513671875
18.7099999,-3.751713991165161,-8.214506149291992,-2.2242133617401123,-56.21337890625,-97.9461669921875,-40.52734375
18.7299999,-3.9480385780334473,-8.118738174438477,-2.669534921646118,95.5657958984375,-52.91748046875,48.095703125
18.749999900000002,-4.264073371887207,-8.121131896972656,-2.853888511657715,171.142578125,17.63916015625,102.9205322265625
18.769999900000002,-4.434061527252197,-8.26478385925293,-2.892195701599121,24.2462158203125,-41.839599609375,64.51416015625
18.7899999,-4.496310710906982,-8.559270858764648,-2.5546131134033203,-59.9212646484375,-95.489501953125,24.7650146484375
18.8099999,-4.5609540939331055,-8.846575736999512,-2.3056161403656006,-75.897216796875,-80.657958984375,8.8958740234375
18.8299999,-4.651933670043945,-9.2033109664917,-2.1595699787139893,-66.58935546875,-58.502197265625,14.7247314453125
18.8499999,-4.797980308532715,-9.464279174804688,-2.205059766769409,-43.1976318359375,-82.3516845703125,26.336669921875
18.8699999,-4.95120906829834,-9.751583099365234,-2.365471363067627,-46.08154296875,-105.0262451171875,39.8101806640625
18.8899999,-5.049371242523193,-10.038887977600098,-2.801215887069702,20.782470703125,-79.833984375,65.1702880859375
18.909999900000003,-5.102043628692627,-10.218452453613281,-3.268085241317749,143.7835693359375,-19.4244384765625,100.7232666015625
18.929999900000002,-5.12119722366333,-10.20887565612793,-3.4332852363586426,122.1466064453125,-0.640869140625,71.1212158203125
18.9499999,-5.183446884155273,-10.002974510192871,-3.0358476638793945,57.3577880859375,-36.468505859375,39.1693115234375
18.9699999,-5.284003257751465,-9.53849983215332,-2.1308395862579346,43.853759765625,-65.704345703125,33.3709716796875
18.9899999,-5.43723201751709,-9.002198219299316,-1.1468225717544556,21.728515625,-56.1981201171875,22.491455078125
19.0099999,-5.564124584197998,-8.504204750061035,-0.5051765441894531,11.7645263671875,-40.46630859375,13.0462646484375
19.0299999,-5.671864032745361,-8.094796180725098,-0.22505496442317963,34.0118408203125,-34.2559814453125,13.2904052734375
19.0499999,-5.772420406341553,-7.807491779327393,-0.30885201692581177,13.9923095703125,-46.0968017578125,11.0626220703125
19.0699999,-5.896918773651123,-7.65186882019043,-0.5003881454467773,-24.139404296875,-44.647216796875,6.561279296875
19.089999900000002,-5.963956356048584,-7.694964408874512,-0.8355764150619507,-21.392822265625,-51.94091796875,15.1214599609375
19.109999900000002,-6.050147533416748,-7.857769966125488,-1.072602391242981,-23.8494873046875,-47.393798828125,12.3291015625
19.1299999,-6.090848922729492,-8.066065788269043,-1.2737152576446533,-17.63916015625,-32.257080078125,4.7607421875
19.1499999,-6.1267619132995605,-8.20492935180664,-1.3215993642807007,-1.52587890625,-21.1029052734375,3.96728515625
19.1699999,-6.18182897567749,-8.197746276855469,-1.0797849893569946,16.845703125,-12.9547119140625,5.9356689453125
19.1899999,-6.200982570648193,-8.066065788269043,-0.706289529800415,13.6566162109375,-21.453857421875,13.12255859375
19.2099999,-6.2201361656188965,-7.884106159210205,-0.31603461503982544,-16.1285400390625,-23.98681640625,9.6282958984375
19.2299999,-6.155492782592773,-7.692570209503174,-0.20350714027881622,-28.5491943359375,-12.420654296875,7.5225830078125
19.249999900000002,-6.133944988250732,-7.527369976043701,-0.2346317619085312,5.7830810546875,13.153076171875,6.4544677734375
19.269999900000002,-6.145915985107422,-7.407660007476807,-0.35434186458587646,-0.8697509765625,21.148681640625,7.0953369140625
19.2899999,-6.215347766876221,-7.3454108238220215,-0.40222588181495667,-33.111572265625,8.1939697265625,13.3209228515625
19.3099999,-6.3302693367004395,-7.321468830108643,-0.3232172429561615,-19.9737548828125,9.002685546875,14.1754150390625
19.3299999,-6.392518520355225,-7.331045627593994,-0.36152446269989014,4.8828125,21.697998046875,15.68603515625
19.3499999,-6.469132900238037,-7.3454108238220215,-0.4620809257030487,-25.0396728515625,33.69140625,10.1470947265625
19.3699999,-6.550535678863525,-7.359776020050049,-0.5147533416748047,-41.3665771484375,33.14208984375,10.498046875
19.3899999,-6.6391215324401855,-7.407660007476807,-0.42616790533065796,-19.5465087890625,13.4429931640625,17.8375244140625
19.409999900000003,-6.703764915466309,-7.462726593017578,-0.2777273952960968,2.86865234375,-6.0882568359375,21.5606689453125
19.429999900000002,-6.715735912322998,-7.513004779815674,-0.20111294090747833,-2.25830078125,-8.331298828125,14.923095703125
19.4499999,-6.670246124267578,-7.534552574157715,-0.2944868206977844,-8.6517333984375,-0.7781982421875,11.4898681640625
19.4699999,-6.619967937469482,-7.508216381072998,-0.49559974670410156,-6.744384765625,3.0059814453125,10.55908203125
19.4899999,-6.596025466918945,-7.503427982330322,-0.6584054827690125,-1.8310546875,0.3204345703125,11.3525390625
19.5099999,-6.598419666290283,-7.513004779815674,-0.7110779285430908,-4.8065185546875,-4.6844482421875,7.843017578125
19.5299999,-6.605602264404297,-7.544129371643066,-0.7469909191131592,-9.857177734375,-6.04248046875,4.0435791015625
19.5499999,-6.607996463775635,-7.5417351722717285,-0.8140285611152649,-4.7760009765625,-4.425048828125,2.6702880859375
19.5699999,-6.598419666290283,-7.469909191131592,-0.9959878921508789,-5.6304931640625,-2.1209716796875,0.54931640625
19.589999900000002,-6.5912370681762695,-7.374141216278076,-1.2234370708465576,-6.0577392578125,0.8087158203125,2.7923583984375
19.609999900000002,-6.627150535583496,-7.2568254470825195,-1.414973258972168,5.828857421875,5.6915283203125,6.7596435546875
19.6299999,-6.648698329925537,-7.228095054626465,-1.644816517829895,36.224365234375,6.9427490234375,14.9688720703125
19.6499999,-6.67982292175293,-7.180211067199707,-1.8746598958969116,48.6297607421875,16.0980224609375,23.4527587890625
19.6699999,-6.677428722381592,-7.089231014251709,-2.142810583114624,28.3050537109375,30.8990478515625,29.3731689453125
19.6899999,-6.562506675720215,-7.228095054626465,-2.7054479122161865,20.08056640625,40.95458984375,43.792724609375
19.7099999,-6.4164605140686035,-7.285555839538574,-3.5027170181274414,14.5263671875,50.6744384765625,35.8734130859375
19.7299999,-6.174646377563477,-7.493851184844971,-4.623203277587891,10.528564453125,62.9119873046875,31.036376953125
19.749999900000002,-5.963956356048584,-7.927201747894287,-6.186617374420166,30.9295654296875,78.0487060546875,49.7589111328125
19.769999900000002,-5.832275390625,-9.641449928283691,-8.705317497253418,17.3492431640625,102.5848388671875,61.7828369140625
19.7899999,-5.9088897705078125,-13.984532356262207,-13.007698059082031,-47.6837158203125,140.472412109375,48.614501953125
19.8099999,-6.53377628326416,-22.402545928955078,-18.394651412963867,-54.5654296875,242.7215576171875,-31.55517578125
19.8299999,-8.702922821044922,-34.61058044433594,-25.26361656188965,6.134033203125,349.7314453125,-189.3157958984375
19.8499999,-13.582305908203125,-47.551239013671875,-31.905132293701172,-14.068603515625,423.4619140625,-393.3258056640625
19.8699999,-21.114465713500977,-57.1902961730957,-36.722267150878906,-133.026123046875,477.0050048828125,-500
19.8899999,-30.662540435791016,-60.350643157958984,-38.77170181274414,-146.2860107421875,499.9847412109375,-500
19.909999900000003,-40.18906784057617,-55.322818756103516,-36.7031135559082,-64.3463134765625,499.9847412109375,-500
19.929999900000002,-47.43871307373047,-43.50503921508789,-30.55719566345215,-114.56298828125,499.9847412109375,-500
19.9499999,-51.10902404785156,-27.94033432006836,-21.057003021240234,-91.4306640625,499.9847412109375,-433.7005615234375
19.9699999,-50.41231155395508,-12.401965141296387,-9.90241813659668,21.0113525390625,477.6763916015625,-277.2216796875
19.9899999,-46.00458526611328,0.3495534360408783,0.7254431247711182,43.4417724609375,393.3868408203125,-204.9560546875
20.0099999,-38.793251037597656,7.630321025848389,8.83699893951416,53.0548095703125,306.549072265625,-161.651611328125
20.0299999,-30.640993118286133,10.218452453613281,13.266271591186523,-35.400390625,240.90576171875,-171.356201171875
20.0499999,-22.814348220825195,9.057265281677246,14.338873863220215,-59.967041015625,202.545166015625,-168.0908203125
20.0699999,-16.292543411254883,6.4380083084106445,13.010091781616211,-35.9039306640625,155.2581787109375,-149.566650390625
20.089999900000002,-11.173739433288574,3.8163576126098633,10.919954299926758,-13.73291015625,99.456787109375,-129.119873046875
20.109999900000002,-7.259219646453857,1.9967641830444336,8.595184326171875,-14.46533203125,49.3011474609375,-111.1907958984375
