# Time (seconds),Accel_X,Accel_Y,Accel_Z,Gyro_X,Gyro_Y,Gyro_Z
0.0099999,-3.043030261993408,-6.907271862030029,5.95677375793457,99.12109375,-81.3751220703125,35.2020263671875
0.029999900000000003,-2.806004285812378,-6.933608055114746,5.966350555419922,88.592529296875,-81.9244384765625,34.60693359375
0.0499999,-2.5785553455352783,-7.132327079772949,5.827486991882324,85.0067138671875,-81.7108154296875,21.3623046875
0.0699999,-2.406172752380371,-7.280767440795898,5.688623428344727,61.676025390625,-81.4208984375,-3.7689208984375
0.08999990000000001,-2.346317768096924,-7.285555839538574,5.580883979797363,73.8677978515625,-81.451416015625,-13.8092041015625
0.10999990000000001,-2.3127987384796143,-7.046135425567627,5.60722017288208,68.4814453125,-71.7620849609375,-3.0364990234375
0.1299999,-2.346317768096924,-6.584054470062256,5.75326681137085,29.5257568359375,-52.947998046875,-5.340576171875
0.14999990000000002,-2.3247697353363037,-6.074089527130127,5.95677375793457,59.7686767578125,-35.186767578125,-1.5106201171875
0.1699999,-2.248155355453491,-5.705382823944092,6.160281181335449,86.8377685546875,-13.0462646484375,24.810791015625
0.1899999,-2.1116859912872314,-5.626373767852783,6.435614109039307,21.7132568359375,29.5562744140625,43.1060791015625
0.20999990000000002,-1.98958158493042,-5.8442463874816895,6.890512466430664,-76.8585205078125,66.864013671875,30.6549072265625
0.2299999,-1.8483237028121948,-6.428431510925293,7.630321025848389,-96.5423583984375,60.48583984375,25.1312255859375
0.2499999,-1.7812861204147339,-7.132327079772949,8.473079681396484,-18.951416015625,24.6124267578125,29.449462890625
0.2699999,-1.7334020137786865,-7.7883381843566895,9.059659004211426,30.426025390625,-5.218505859375,25.360107421875
0.28999990000000003,-1.6615760326385498,-8.252813339233398,9.227252960205078,-11.993408203125,-3.9215087890625,11.932373046875
0.3099999,-1.6639702320098877,-8.367734909057617,8.815450668334961,-21.3165283203125,13.397216796875,-2.7008056640625
0.3299999,-1.680729627609253,-8.090007781982422,8.248024940490723,-34.0118408203125,24.3988037109375,-10.162353515625
0.34999990000000003,-1.7741034030914307,-7.620744228363037,7.709329605102539,-57.8155517578125,25.9857177734375,7.0953369140625
0.3699999,-1.9369091987609863,-7.108384609222412,7.333439826965332,-0.9307861328125,23.590087890625,21.9573974609375
0.3899999,-2.1595699787139893,-6.734889507293701,7.182605266571045,-22.5830078125,19.4091796875,13.24462890625
0.40999990000000003,-2.38462495803833,-6.564900875091553,7.15387487411499,-44.1436767578125,16.754150390625,5.2947998046875
0.4299999,-2.585737943649292,-6.512228488922119,7.1706342697143555,-46.1273193359375,8.148193359375,6.988525390625
0.4499999,-2.7988216876983643,-6.449979305267334,7.003039836883545,-50.4302978515625,-0.152587890625,16.41845703125
0.4699999,-2.9281086921691895,-6.552929878234863,6.813898086547852,-135.07080078125,1.4801025390625,26.763916015625
0.4899999,-2.983175277709961,-6.919242858886719,6.536170482635498,-89.84375,16.41845703125,21.942138671875
0.5099999,-2.985569477081299,-7.3454108238220215,6.390124320983887,-46.142578125,8.9874267578125,-20.7672119140625
0.5299999,-2.937685489654541,-7.608773231506348,6.299144744873047,-45.7611083984375,-15.411376953125,-42.2515869140625
0.5499999,-2.8634653091430664,-7.630321025848389,6.174646377563477,-25.5584716796875,-22.3541259765625,-3.5858154296875
0.5699999,-2.82515811920166,-7.448361396789551,5.8657941818237305,-16.66259765625,-10.040283203125,34.149169921875
0.5899998999999999,-2.7892448902130127,-7.328651428222656,5.4252610206604,-49.2095947265625,5.2947998046875,24.1851806640625
0.6099998999999999,-2.760514497756958,-7.51779317855835,4.999093055725098,-77.9571533203125,17.9901123046875,10.0555419921875
0.6299999,-2.7509377002716064,-8.032546997070312,4.754884719848633,-84.77783203125,22.3541259765625,19.47021484375
0.6499999,-2.782062292098999,-8.71728801727295,4.730942726135254,-38.3148193359375,17.9290771484375,22.5372314453125
0.6699999,-2.8155810832977295,-9.35654067993164,4.8937482833862305,-5.096435546875,6.256103515625,-4.3792724609375
0.6899999,-2.8443117141723633,-9.739612579345703,5.123591423034668,16.9219970703125,-9.27734375,-28.106689453125
0.7099999,-2.832340717315674,-9.746794700622559,5.303156852722168,49.6368408203125,-19.0582275390625,-22.3846435546875
0.7299998999999999,-2.7676970958709717,-9.402029991149902,5.4013190269470215,41.6412353515625,-23.468017578125,-10.0555419921875
0.7499998999999999,-2.674323320388794,-8.9064302444458,5.374982833862305,36.2091064453125,-28.86962890625,-8.97216796875
0.7699999,-2.535459518432617,-8.463502883911133,5.2672438621521,33.7066650390625,-31.9366455078125,-9.3994140625
0.7899999,-2.3942017555236816,-8.125920295715332,5.080495834350586,31.097412109375,-28.5491943359375,-5.3558349609375
0.8099999,-2.252943754196167,-7.927201747894287,4.850652694702148,19.9127197265625,-20.599365234375,2.2125244140625
0.8299999,-2.1380221843719482,-7.888894557952881,4.613626480102539,3.60107421875,-11.505126953125,5.828857421875
0.8499998999999999,-2.070984363555908,-8.030152320861816,4.410119533538818,-13.73291015625,-2.532958984375,0.91552734375
0.8699998999999999,-2.027888774871826,-8.26239013671875,4.2544965744018555,-36.07177734375,7.50732421875,-9.918212890625
0.8899999,-2.0254945755004883,-8.513781547546387,4.144362926483154,-56.1981201171875,21.331787109375,-14.4805908203125
0.9099999,-2.0446481704711914,-8.779537200927734,4.158728122711182,-88.409423828125,37.17041015625,-8.97216796875
0.9299999,-2.0925323963165283,-9.028534889221191,4.285621166229248,-93.414306640625,39.97802734375,-9.8419189453125
0.9499999,-2.1715409755706787,-9.289502143859863,4.577713489532471,-77.45361328125,29.327392578125,-19.7601318359375
0.9699998999999999,-2.2409727573394775,-9.459490776062012,4.917690277099609,-52.55126953125,12.8021240234375,-27.83203125
0.9899998999999999,-2.2888567447662354,-9.485827445983887,5.169081687927246,-9.9029541015625,0.5645751953125,-21.1181640625
1.0099999,-2.2840683460235596,-9.370905876159668,5.238513469696045,15.31982421875,-2.0294189453125,-10.3912353515625
1.0299999,-2.183511972427368,-9.30386734008789,5.173870086669922,4.6844482421875,4.7760009765625,-4.3182373046875
1.0499999,-2.0254945755004883,-9.44752025604248,5.080495834350586,-5.2947998046875,4.3487548828125,-9.33837890625
1.0699999,-1.86508309841156,-9.751583099365234,5.003881454467773,33.3404541015625,-9.3841552734375,-27.6947021484375
1.0899999,-1.7501614093780518,-10.031704902648926,4.963180065155029,55.2825927734375,-17.76123046875,-40.374755859375
1.1099999,-1.778891921043396,-10.04846477508545,4.8937482833862305,56.82373046875,-13.3819580078125,-39.306640625
1.1299999,-1.9608511924743652,-9.634267807006836,4.759673118591309,46.4019775390625,-4.119873046875,-34.2254638671875
1.1499999,-2.1954829692840576,-8.87051773071289,4.620809078216553,27.7557373046875,8.636474609375,-26.42822265625
1.1699998999999999,-2.3965959548950195,-7.999027729034424,4.532223701477051,6.5155029296875,24.4140625,-9.521484375
1.1899998999999999,-2.456450939178467,-7.319074630737305,4.563348293304443,-12.847900390625,37.139892578125,9.796142578125
1.2099999,-2.360682964324951,-7.048529624938965,4.683058738708496,-14.2059326171875,37.139892578125,17.6544189453125
1.2299999,-2.2218191623687744,-7.273584842681885,4.807557106018066,11.6119384765625,26.397705078125,14.7552490234375
1.2499999,-2.0805611610412598,-7.845798969268799,4.898536682128906,15.472412109375,21.91162109375,0.244140625
1.2699999,-2.03507137298584,-8.44195556640625,4.912901878356934,-14.8468017578125,28.717041015625,-19.59228515625
1.2899999,-2.051830768585205,-8.868123054504395,4.927267074584961,-27.2369384765625,37.567138671875,-23.8494873046875
1.3099999,-2.094926595687866,-9.026140213012695,5.032611846923828,-28.01513671875,35.430908203125,-18.3868408203125
1.3299999,-2.1045033931732178,-8.956708908081055,5.2265424728393555,-10.7574462890625,20.1873779296875,-19.0277099609375
1.3499999,-2.075772762298584,-8.810662269592285,5.418078422546387,21.1944580078125,3.96728515625,-16.78466796875
1.3699999,-1.9847931861877441,-8.643068313598633,5.420472621917725,65.155029296875,-1.40380859375,-14.7705078125
1.3899999,-1.8291701078414917,-8.470685958862305,5.212177276611328,49.1790771484375,13.671875,-21.1639404296875
1.4099999,-1.7070658206939697,-8.415618896484375,4.955997467041016,-15.289306640625,32.3486328125,-16.3116455078125
1.4299998999999999,-1.577778935432434,-8.461109161376953,4.7620673179626465,-11.9171142578125,35.70556640625,-16.693115234375
1.4499999,-1.501164436340332,-8.571242332458496,4.747702121734619,18.5089111328125,20.9503173828125,-28.9306640625
1.4699999,-1.482010841369629,-8.5903959274292,4.833893299102783,17.5933837890625,8.8348388671875,-35.0189208984375
1.4899999,-1.534683346748352,-8.33182144165039,4.817133903503418,13.824462890625,17.2271728515625,-24.322509765625
1.5099999,-1.647210717201233,-7.91283655166626,4.716577529907227,-14.83154296875,38.2843017578125,5.43212890625
1.5299999,-1.843535304069519,-7.536946773529053,4.5609540939331055,-35.2630615234375,51.513671875,33.0657958984375
1.5499999,-2.0829553604125977,-7.481880187988281,4.4723687171936035,-28.01513671875,52.24609375,36.31591796875
1.5699999,-2.408566951751709,-7.8098859786987305,4.525041103363037,-39.276123046875,46.8902587890625,16.4642333984375
1.5899999,-2.676717519760132,-8.307879447937012,4.637568473815918,-44.3878173828125,42.510986328125,-9.09423828125
1.6099999,-2.736572504043579,-8.710105895996094,4.776432514190674,-39.7491455078125,36.773681640625,-21.1029052734375
1.6299999,-2.4205379486083984,-8.889671325683594,4.841075897216797,-10.7879638671875,18.035888671875,-15.3656005859375
1.6499999,-1.867477297782898,-8.916007041931152,4.797980308532715,26.55029296875,-6.500244140625,-2.5787353515625
1.6699999,-1.3527239561080933,-8.89685344696045,4.594472885131836,54.1839599609375,-17.9595947265625,-0.2593994140625
1.6899998999999999,-1.0749965906143188,-8.882488250732422,4.304774761199951,43.365478515625,-14.22119140625,-8.270263671875
1.7099999,-1.1037269830703735,-8.848969459533691,3.974374771118164,17.88330078125,-6.011962890625,-8.056640625
1.7299999,-1.3263877630233765,-8.700529098510742,3.7038300037384033,-20.5230712890625,3.6468505859375,8.6517333984375
1.7499999,-1.5897499322891235,-8.525752067565918,3.598485231399536,-65.948486328125,8.026123046875,25.5126953125
1.7699999,-1.8818424940109253,-8.367734909057617,3.778050184249878,-65.00244140625,1.4495849609375,35.9649658203125
1.7899999,-2.1475989818573,-8.38449478149414,4.211400985717773,-59.1888427734375,-26.1688232421875,45.1507568359375
1.8099999,-2.38462495803833,-8.449137687683105,4.60165548324585,40.0238037109375,-48.2177734375,32.5469970703125
1.8299999,-2.5019407272338867,-8.508993148803711,4.896142482757568,64.63623046875,-46.56982421875,16.265869140625
1.8499999,-2.5067291259765625,-8.53293514251709,4.73573112487793,88.8214111328125,-28.564453125,24.35302734375
1.8699999,-2.518700122833252,-8.461109161376953,4.240131378173828,90.9271240234375,-8.3465576171875,35.33935546875
1.8899999,-2.5067291259765625,-8.267178535461426,3.6320040225982666,38.6810302734375,15.9759521484375,35.8428955078125
1.9099999,-2.5234885215759277,-8.11634349822998,3.1866824626922607,-1.15966796875,40.9393310546875,51.483154296875
1.9299998999999999,-2.631227731704712,-8.044517517089844,3.160346269607544,-21.575927734375,58.868408203125,63.1103515625
1.9499999,-2.736572504043579,-8.11634349822998,3.598485231399536,-30.914306640625,56.182861328125,52.3681640625
1.9699999,-2.911349296569824,-8.259995460510254,4.369418144226074,-30.2276611328125,28.5186767578125,28.106689453125
1.9899999,-3.1196448802948,-8.281543731689453,5.114014625549316,-7.7056884765625,2.62451171875,17.2119140625
2.0099999,-3.3279404640197754,-8.099584579467773,5.638344764709473,-14.2669677734375,-8.6212158203125,28.2745361328125
2.0299999,-3.6080620288848877,-7.762001991271973,5.760449409484863,-15.8843994140625,-10.406494140625,48.126220703125
2.0499999,-3.821146011352539,-7.493851184844971,5.566518783569336,0.823974609375,-11.9171142578125,61.859130859375
2.0699999,-3.866635799407959,-7.438784599304199,5.212177276611328,-12.63427734375,-15.0146484375,53.5736083984375
2.0899999,-3.9217023849487305,-7.5201873779296875,4.9368438720703125,-59.5703125,-24.1546630859375,40.8782958984375
2.1099999,-3.8570590019226074,-7.795520782470703,4.738125324249268,-32.71484375,-38.4063720703125,44.6319580078125
2.1299999,-4.022258758544922,-8.020575523376465,4.728548526763916,0.9002685546875,-57.373046875,39.3524169921875
2.1499999,-4.225766181945801,-8.130708694458008,4.778826713562012,29.6478271484375,-71.0601806640625,35.8123779296875
2.1699999,-4.462791919708252,-8.17380428314209,4.771644115447998,42.633056640625,-77.08740234375,44.586181640625
2.1899999,-4.599261283874512,-8.128314971923828,4.656722068786621,37.078857421875,-70.709228515625,49.468994140625
2.2099999,-4.627991676330566,-8.018181800842285,4.441244125366211,20.6298828125,-50.7965087890625,35.9344482421875
2.2299999,-4.513070106506348,-8.097189903259277,4.180276393890381,4.9896240234375,-30.120849609375,30.6854248046875
2.2499999,-4.441244125366211,-8.195352554321289,3.9839515686035156,-8.9569091796875,-19.59228515625,18.1121826171875
2.2699999,-4.304774761199951,-8.197746276855469,3.976768970489502,-35.9649658203125,-10.711669921875,-1.8463134765625
2.2899999,-4.2951979637146,-8.145073890686035,4.175487995147705,-38.360595703125,-7.3699951171875,2.50244140625
2.3099999,-4.474762916564941,-7.7883381843566895,4.455609321594238,-0.9613037109375,-19.317626953125,15.8233642578125
2.3299999,-4.455609321594238,-7.275979042053223,4.73573112487793,30.6243896484375,-31.158447265625,36.651611328125
2.3499999,-4.575319290161133,-7.0126166343688965,5.281609058380127,29.96826171875,-21.1944580078125,66.3299560546875
2.3699999,-4.417302131652832,-6.821080684661865,5.492298603057861,74.89013671875,-49.3316650390625,56.9610595703125
2.3899999,-4.225766181945801,-7.000645637512207,5.633556365966797,101.9439697265625,-58.4716796875,46.2646484375
2.4099999,-4.137180328369141,-7.285555839538574,5.408501625061035,60.394287109375,-20.1263427734375,34.3017578125
2.4299999,-4.225766181945801,-7.400477409362793,5.008669853210449,-19.8516845703125,17.8375244140625,10.9710693359375
2.4499999,-4.46518611907959,-7.24485445022583,4.879383087158203,-78.3843994140625,33.8592529296875,4.150390625
2.4699999,-4.790797710418701,-6.885724067687988,5.2049946784973145,-70.7855224609375,19.2108154296875,25.7568359375
2.4899999,-5.0900726318359375,-6.567295074462891,6.071695327758789,-43.64013671875,-10.3912353515625,46.6766357421875
2.5099999,-5.341464042663574,-6.507440090179443,6.921637058258057,30.242919921875,-59.3719482421875,41.56494140625
2.5299999,-5.16429328918457,-6.9240312576293945,7.357381820678711,88.7451171875,-103.1646728515625,24.7802734375
2.5499999,-5.018246650695801,-7.438784599304199,7.022193431854248,109.8785400390625,-100.494384765625,-9.2315673828125
2.5699999,-4.630385875701904,-7.752425193786621,6.145915985107422,34.9884033203125,-46.5545654296875,-32.7606201171875
2.5899999,-4.280832767486572,-7.673416614532471,5.17626428604126,-48.0194091796875,8.72802734375,-27.64892578125
2.6099999,-4.206612586975098,-7.242460250854492,4.458003520965576,-34.2559814453125,24.3072509765625,-20.0042724609375
2.6299999,-4.302380561828613,-6.8162922859191895,4.422090530395508,-51.0711669921875,38.330078125,-17.913818359375
2.6499999,-4.431667327880859,-6.478709697723389,4.766855716705322,-79.8797607421875,41.4581298828125,-20.050048828125
2.6699999,-4.55616569519043,-6.382941722869873,5.3797712326049805,-52.1087646484375,27.03857421875,-17.39501953125
2.6899999,-4.508281707763672,-6.4380083084106445,6.042964935302734,-21.514892578125,7.7972412109375,-10.4217529296875
2.7099999,-4.527435302734375,-6.658275127410889,6.588842868804932,-7.8277587890625,3.3111572265625,-11.260986328125
2.7299999,-4.424484729766846,-6.938396453857422,6.92881965637207,-37.65869140625,7.0343017578125,-17.63916015625
2.7499999,-4.448426723480225,-7.163451671600342,6.979097843170166,-30.9295654296875,-7.568359375,-26.7486572265625
2.7699999,-4.355052947998047,-7.292738437652588,6.847416877746582,-20.263671875,-13.824462890625,-22.6898193359375
2.7899999,-4.206612586975098,-7.4555439949035645,6.426037311553955,18.6614990234375,-24.1546630859375,-8.270263671875
2.8099999,-3.9217023849487305,-7.668628215789795,5.841852188110352,-5.9661865234375,-16.9830322265625,-22.1099853515625
2.8299999,-3.643975019454956,-7.819462776184082,5.281609058380127,-75.164794921875,9.5367431640625,-65.1702880859375
2.8499999,-3.361459255218506,-7.843404769897461,4.8267107009887695,-67.840576171875,19.4244384765625,-70.9686279296875
2.8699999,-3.0765492916107178,-7.704541206359863,4.683058738708496,-31.829833984375,3.5858154296875,-42.4346923828125
2.8899999,-3.050212860107422,-7.654263019561768,4.697423934936523,26.2298583984375,-16.387939453125,-37.4908447265625
2.9099999,-2.9496564865112305,-7.841010570526123,4.616020679473877,46.173095703125,-18.9666748046875,-65.4144287109375
2.9299999,-3.07415509223938,-8.516175270080566,4.443638324737549,-51.605224609375,28.4881591796875,-94.3756103515625
2.9499999,-3.1004912853240967,-9.006986618041992,4.326322555541992,-151.3824462890625,82.3974609375,-137.847900390625
2.9699999,-3.2968156337738037,-9.241618156433105,4.422090530395508,-91.796875,71.563720703125,-144.012451171875
2.9899999,-3.3255462646484375,-9.0859956741333,4.99669885635376,-30.6243896484375,42.572021484375,-96.5576171875
3.0099999,-3.220201253890991,-8.621520042419434,5.585672378540039,5.6915283203125,-0.335693359375,-66.7266845703125
3.0299999,-2.918531894683838,-8.224082946777344,5.872976779937744,36.31591796875,-26.2298583984375,-69.9920654296875
3.0499999,-2.4229321479797363,-8.006210327148438,5.705382823944092,-2.99072265625,-7.5225830078125,-66.8182373046875
3.0699999,-1.941697597503662,-7.931990146636963,5.080495834350586,-57.342529296875,10.8489990234375,-64.02587890625
3.0899999,-1.5825673341751099,-8.08282470703125,4.367023944854736,-69.7479248046875,22.125244140625,-51.513671875
3.1099999,-1.2880805730819702,-8.329427719116211,3.794809579849243,-102.3101806640625,27.8167724609375,-47.4700927734375
3.1299999,-1.1180921792984009,-8.810662269592285,3.203441858291626,-69.88525390625,19.5159912109375,-52.825927734375
3.1499999,-0.9265560507774353,-9.5408935546875,2.674323320388794,-49.560546875,26.2908935546875,-61.7828369140625
3.1699999,-0.8164227604866028,-10.163386344909668,2.4205379486083984,-134.27734375,51.3458251953125,-102.9510498046875
3.1899999,-0.7086837291717529,-10.589553833007812,2.5929205417633057,-142.2119140625,44.0673828125,-125.4119873046875
3.2099999,-0.569819986820221,-10.644620895385742,3.021482467651367,-15.5792236328125,-13.2293701171875,-110.107421875
3.2299999,-0.3974374830722809,-10.228029251098633,3.4332852363586426,50.2471923828125,-50.2471923828125,-111.1907958984375
3.2499999,-0.05746084079146385,-9.445125579833984,3.514688014984131,-5.767822265625,-48.065185546875,-117.8436279296875
3.2699999,0.38067805767059326,-8.762778282165527,3.1196448802948,-1.861572265625,-46.3409423828125,-74.7833251953125
3.2899999,0.849941611289978,-8.197746276855469,2.631227731704712,29.6783447265625,-44.708251953125,-34.6832275390625
3.3099999,1.3024457693099976,-8.015787124633789,2.298433542251587,10.2691650390625,-36.8499755859375,-28.3355712890625
3.3299999000000002,1.6160861253738403,-8.118738174438477,2.030282974243164,-25.787353515625,-41.44287109375,-18.341064453125
3.3499999,1.7549498081207275,-8.348581314086914,1.6879122257232666,-5.0201416015625,-43.4722900390625,1.8463134765625
3.3699999,1.721431016921997,-8.638279914855957,1.216254472732544,7.965087890625,-12.2833251953125,19.5465087890625
3.3899999,1.558625340461731,-8.956708908081055,0.9552865028381348,-48.8433837890625,34.0118408203125,24.5513916015625
3.4099999,1.3287819623947144,-9.248801231384277,1.05105459690094,-89.4927978515625,33.8592529296875,23.6053466796875
3.4299999,1.1563993692398071,-9.744400978088379,1.4915876388549805,-45.6085205078125,1.983642578125,36.468505859375
3.4499999,1.0414776802062988,-10.156203269958496,1.9847931861877441,-14.34326171875,-20.6756591796875,18.8140869140625
3.4699999,0.9983820915222168,-10.44350814819336,2.2649147510528564,-56.0150146484375,-9.6282958984375,-10.6201171875
3.4899999,1.0079588890075684,-10.558429718017578,2.188300371170044,-77.301025390625,5.0811767578125,-3.387451171875
3.5099999,1.0773907899856567,-10.532093048095703,1.9823989868164062,-36.0107421875,2.5177001953125,18.0511474609375
3.5299999,1.1875240802764893,-10.44350814819336,1.7956513166427612,-12.3291015625,-9.765625,6.34765625
3.5499999,1.2976573705673218,-10.273519515991211,1.6184803247451782,-31.341552734375,-15.716552734375,-19.8974609375
3.5699999,1.436521053314209,-10.141838073730469,1.3694833517074585,-31.4788818359375,-16.4031982421875,-12.115478515625
3.5899999,1.5298948287963867,-10.02691650390625,0.9864110946655273,0.0762939453125,-14.373779296875,10.5743408203125
3.6099999,1.5442601442337036,-9.861717224121094,0.7134721279144287,-16.7236328125,-1.708984375,-3.753662109375
3.6299999,1.5203180313110352,-9.861717224121094,0.6177040338516235,-43.914794921875,3.8909912109375,-11.9171142578125
3.6499999,1.4676456451416016,-10.017339706420898,0.5913678407669067,-2.7008056640625,-12.4969482421875,5.0811767578125
3.6699999,1.4101848602294922,-10.283096313476562,0.7445967197418213,14.007568359375,-16.937255859375,5.67626953125
3.6899999,1.4197616577148438,-10.663774490356445,0.8978256583213806,-27.557373046875,-8.087158203125,-17.88330078125
3.7099999,1.4221558570861816,-10.958261489868164,0.768538773059845,-36.3006591796875,-21.331787109375,-37.9638671875
3.7299999,1.3718775510787964,-10.845733642578125,0.629675030708313,-41.3665771484375,-22.9644775390625,-38.9862060546875
3.7499999,1.2425906658172607,-10.405200958251953,0.47644615173339844,-57.1746826171875,-8.819580078125,-15.0146484375
3.7699999,1.0869675874710083,-9.727641105651855,0.2992752194404602,-38.665771484375,-11.749267578125,1.9683837890625
3.7899999,1.0654197931289673,-9.428366661071777,0.038307227194309235,-9.27734375,-23.8800048828125,6.561279296875
3.8099999,1.161187767982483,-9.435548782348633,-0.35434186458587646,-18.2952880859375,-16.7388916015625,-9.6588134765625
3.8299999000000002,1.3479355573654175,-9.579200744628906,-0.8212111592292786,-66.070556640625,3.4027099609375,-30.4107666015625
3.8499999,1.534683346748352,-9.701305389404297,-1.1971008777618408,-69.3511962890625,11.2762451171875,-10.7421875
3.8699999,1.6639702320098877,-9.63187313079834,-1.316810965538025,-27.374267578125,1.9683837890625,8.9874267578125
3.8899999,1.7405846118927002,-9.47146224975586,-1.2761094570159912,7.38525390625,-9.246826171875,4.6844482421875
3.9099999,1.778891921043396,-9.342175483703613,-1.259350061416626,10.2691650390625,-6.6070556640625,1.6326904296875
3.9299999,1.8195933103561401,-9.411606788635254,-1.3311761617660522,15.0146484375,11.566162109375,22.5982666015625
3.9499999,1.8626888990402222,-9.72285270690918,-1.4245500564575195,21.331787109375,22.2930908203125,32.1807861328125
3.9699999,1.889025092124939,-10.125079154968262,-1.4269442558288574,17.578125,21.7132568359375,9.979248046875
3.9899999,1.889025092124939,-10.539276123046875,-1.259350061416626,11.04736328125,23.834228515625,-4.9896240234375
4.0099999,1.8148049116134644,-10.685321807861328,-0.9816226959228516,16.7999267578125,28.62548828125,8.2244873046875
4.029999900000001,1.6663644313812256,-10.493785858154297,-0.7015010714530945,29.632568359375,29.083251953125,31.3262939453125
4.0499999,1.4867992401123047,-10.218452453613281,-0.40462008118629456,35.247802734375,36.2548828125,50.9033203125
4.069999900000001,1.2880805730819702,-9.983820915222168,-0.0694318488240242,24.5361328125,44.342041015625,55.511474609375
4.0899999000000005,1.1228805780410767,-9.93354320526123,0.3064578175544739,37.5518798828125,39.3218994140625,59.6771240234375
4.1099999,0.9744400978088379,-10.15141487121582,0.8355764150619507,60.7757568359375,25.146484375,65.887451171875
4.1299999000000005,0.8236053586006165,-10.405200958251953,1.4221558570861816,71.7010498046875,5.7830810546875,41.015625
4.1499999,0.7134721279144287,-10.627861022949219,1.8818424940109253,74.0814208984375,-16.387939453125,13.7939453125
4.1699999000000005,0.5817909836769104,-10.752359390258789,2.0254945755004883,63.5528564453125,-30.1971435546875,13.4735107421875
4.1899999,0.4692635238170624,-10.627861022949219,1.845929503440857,36.0260009765625,-20.3704833984375,12.603759765625
4.209999900000001,0.33279404044151306,-10.283096313476562,1.3982137441635132,-2.7313232421875,0.4425048828125,6.622314453125
4.2299999,0.11252748221158981,-9.859322547912598,0.8690952062606812,-31.79931640625,11.5509033203125,17.120361328125
4.249999900000001,-0.12210428714752197,-9.457097053527832,0.5722141861915588,-33.7982177734375,26.06201171875,38.9404296875
4.2699999,-0.33039984107017517,-9.255983352661133,0.4357447028160095,-3.5552978515625,32.318115234375,49.1485595703125
4.289999900000001,-0.5554547905921936,-9.35654067993164,0.5315127968788147,32.4554443359375,29.052734375,50.445556640625
4.3099999,-0.6009446382522583,-9.890447616577148,0.7948749661445618,17.364501953125,20.751953125,42.6788330078125
4.329999900000001,-0.6727706789970398,-10.512939453125,1.1420341730117798,-40.95458984375,4.2572021484375,-5.2337646484375
4.3499999,-0.6703764796257019,-10.639832496643066,1.5658079385757446,-82.7484130859375,-13.3209228515625,-67.93212890625
4.369999900000001,-0.6488286852836609,-10.47702693939209,1.6089035272598267,-32.3944091796875,-39.85595703125,-37.750244140625
4.3899999,-0.5410895943641663,-9.9000244140625,1.2761094570159912,27.008056640625,-36.43798828125,2.8076171875
4.409999900000001,-0.38067805767059326,-9.188945770263672,0.5506663918495178,18.2952880859375,6.3629150390625,-2.7313232421875
4.4299999,-0.15083470940589905,-8.856152534484863,-0.3016694188117981,1.1444091796875,26.1077880859375,-1.068115234375
4.449999900000001,0.021547814831137657,-8.858546257019043,-0.9385270476341248,22.8271484375,26.9012451171875,10.0860595703125
4.4699999,0.10295066982507706,-9.090784072875977,-0.9433154463768005,-5.67626953125,40.9393310546875,0.67138671875
4.489999900000001,0.10773907601833344,-9.490615844726562,-0.5171475410461426,-32.562255859375,30.9600830078125,-16.021728515625
4.5099999,0.021547814831137657,-9.821015357971191,0.07900865375995636,3.9520263671875,1.9378662109375,-19.317626953125
4.529999900000001,-0.047884032130241394,-10.000580787658691,0.5985504388809204,19.805908203125,2.105712890625,-10.0860595703125
4.5499999,-0.12689268589019775,-9.981427192687988,0.7781155705451965,-19.6685791015625,13.85498046875,-11.993408203125
4.569999900000001,-0.2753331959247589,-9.495404243469238,0.8858546018600464,-83.5418701171875,15.44189453125,11.3372802734375
4.5899999000000005,-0.23702596127986908,-9.600749015808105,0.7445967197418213,-36.2548828125,-17.1356201171875,30.2276611328125
4.609999900000001,-0.08379705995321274,-9.931148529052734,0.4165911078453064,-7.9498291015625,-16.4947509765625,-12.6953125
4.6299999000000005,0.15083470940589905,-10.42195987701416,-0.0071826050989329815,-32.0892333984375,29.72412109375,-50.35400390625
4.6499999,0.33518823981285095,-10.673351287841797,-0.3974374830722809,-27.2369384765625,34.332275390625,-47.6531982421875
4.6699999000000005,0.40940847992897034,-10.438719749450684,-0.45250412821769714,28.8848876953125,6.103515625,-27.3590087890625
4.6899999,0.4165911078453064,-9.976638793945312,-0.21308395266532898,55.2825927734375,-3.0364990234375,-4.241943359375
4.709999900000001,0.35913026332855225,-9.521739959716797,0.090979665517807,51.9256591796875,8.270263671875,4.364013671875
4.7299999,0.33518823981285095,-9.366117477416992,0.38307225704193115,29.693603515625,9.613037109375,4.6234130859375
4.749999900000001,0.31842881441116333,-9.469067573547363,0.6129156351089478,28.4881591796875,-6.1492919921875,2.0294189453125
4.7699999,0.2992752194404602,-9.701305389404297,0.8020575642585754,35.308837890625,-11.5203857421875,-2.9296875
4.789999900000001,0.29209262132644653,-9.849745750427246,0.871489405632019,11.444091796875,-9.1094970703125,-3.6468505859375
4.8099999,0.2992752194404602,-9.979032516479492,0.667982280254364,13.824462890625,-9.2010498046875,9.7808837890625
4.829999900000001,0.3232172429561615,-10.010157585144043,0.524330198764801,19.439697265625,5.828857421875,15.56396484375
4.8499999,0.3902548849582672,-10.11789608001709,0.42377370595932007,23.3917236328125,11.23046875,8.5296630859375
4.869999900000001,0.45250412821769714,-10.316615104675293,0.3878606855869293,49.224853515625,-0.2593994140625,3.4637451171875
4.8899999,0.5267243981361389,-10.438719749450684,0.5554547905921936,36.163330078125,2.655029296875,-7.232666015625
4.909999900000001,0.5817909836769104,-10.450690269470215,0.751779317855835,13.4429931640625,7.01904296875,-12.63427734375
4.9299999,0.6177040338516235,-10.316615104675293,0.8954314589500427,15.3350830078125,-0.7476806640625,-8.453369140625
4.949999900000001,0.6512228846549988,-10.120290756225586,1.0582371950149536,6.28662109375,3.448486328125,-3.1585693359375
4.9699999,0.6919242739677429,-9.9000244140625,1.290474772453308,-24.9176025390625,13.3056640625,-8.636474609375
4.989999900000001,0.7589619159698486,-9.828198432922363,1.4987702369689941,-24.23095703125,1.5869140625,-8.6822509765625
5.0099999,0.8092401623725891,-9.742006301879883,1.6376339197158813,-6.9580078125,-15.838623046875,-11.0626220703125
5.029999900000001,0.8930372595787048,-9.832986831665039,1.623268723487854,-7.293701171875,-9.8419189453125,-5.584716796875
5.0499999,0.9193734526634216,-9.93593692779541,1.4293384552001953,-15.594482421875,3.662109375,-9.552001953125
5.069999900000001,0.9002198576927185,-9.93354320526123,1.2090718746185303,-24.5361328125,6.195068359375,-28.1982421875
5.0899999000000005,0.8092401623725891,-9.765948295593262,1.0247182846069336,-17.5323486328125,-3.9825439453125,-26.031494140625
5.109999900000001,0.7134721279144287,-9.50737476348877,0.9528923034667969,-13.641357421875,-3.35693359375,-3.0059814453125
5.1299999000000005,0.629675030708313,-9.315838813781738,0.9050082564353943,-16.448974609375,7.0648193359375,7.75146484375
5.1499999,0.608127236366272,-9.311050415039062,0.8762778043746948,-30.1055908203125,7.4005126953125,-3.7384033203125
5.1699999000000005,0.6248866319656372,-9.552865028381348,0.8307880163192749,-27.2979736328125,2.0294189453125,-7.171630859375
5.1899999,0.6512228846549988,-9.849745750427246,0.8858546018600464,-22.64404296875,6.683349609375,-3.1585693359375
5.209999900000001,0.6584054827690125,-10.036493301391602,0.9002198576927185,-17.547607421875,4.5623779296875,-2.5482177734375
5.2299999,0.646434485912323,-10.113107681274414,0.871489405632019,2.5634765625,-5.615234375,-0.030517578125
5.249999900000001,0.6512228846549988,-10.177751541137695,0.8595184087753296,12.39013671875,-1.89208984375,7.110595703125
5.2699999,0.6775590777397156,-10.18493366241455,0.7781155705451965,12.6495361328125,-1.068115234375,1.3275146484375
5.289999900000001,0.7038952708244324,-10.177751541137695,0.6967126727104187,14.9688720703125,-6.8206787109375,-11.4593505859375
5.3099999,0.7374141216278076,-10.093954086303711,0.6536170840263367,12.2833251953125,-7.50732421875,-17.7764892578125
5.329999900000001,0.751779317855835,-9.945513725280762,0.5267243981361389,9.4757080078125,-10.43701171875,-10.6201171875
5.3499999,0.7350199222564697,-9.579200744628906,0.48602294921875,-20.56884765625,-4.364013671875,-12.1307373046875
5.369999900000001,0.7972691655158997,-9.375694274902344,0.44532153010368347,-30.1361083984375,-1.2359619140625,4.57763671875
5.3899999,0.8259995579719543,-9.260771751403809,0.3064578175544739,-9.521484375,-10.9100341796875,16.78466796875
5.409999900000001,0.9528923034667969,-9.351752281188965,0.2753331959247589,-36.5753173828125,-6.7901611328125,5.6915283203125
5.4299999,0.9983820915222168,-9.526528358459473,0.11013327538967133,-36.9873046875,3.90625,-4.3487548828125
5.449999900000001,1.015141487121582,-9.605537414550781,0.040701430290937424,-24.658203125,5.889892578125,0.8087158203125
5.4699999,1.0079588890075684,-9.68933391571045,0.038307227194309235,-23.4375,-0.54931640625,18.646240234375
5.489999900000001,0.9600749015808105,-9.72285270690918,-0.023942016065120697,-7.080078125,-8.2855224609375,15.9912109375
5.5099999,0.9457096457481384,-9.859322547912598,-0.07182604819536209,-12.5274658203125,-1.77001953125,1.03759765625
5.529999900000001,0.9361328482627869,-10.043676376342773,-0.2322375625371933,-17.4102783203125,0.48828125,-3.60107421875
5.5499999,0.9097966551780701,-10.105925559997559,-0.42377370595932007,-8.5601806640625,-3.3721923828125,-2.3956298828125
5.569999900000001,0.8906430602073669,-10.120290756225586,-0.6009446382522583,-2.86865234375,-0.9765625,6.0577392578125
5.5899999000000005,0.849941611289978,-10.055646896362305,-0.7757213711738586,-1.8768310546875,5.096435546875,6.89697265625
5.609999900000001,0.811634361743927,-9.99100399017334,-0.8571242094039917,-4.8980712890625,11.322021484375,2.25830078125
5.6299999000000005,0.790086567401886,-10.012551307678223,-0.8355764150619507,-9.5062255859375,10.6658935546875,4.852294921875
5.6499999,0.7541735172271729,-9.962273597717285,-0.7326257228851318,-9.9945068359375,3.509521484375,-1.6326904296875
5.6699999000000005,0.7637503147125244,-9.988609313964844,-0.6368576288223267,-4.1961669921875,3.265380859375,0.457763671875
5.6899999,0.7948749661445618,-10.04846477508545,-0.5650315880775452,1.068115234375,10.07080078125,4.425048828125
5.709999900000001,0.8427590131759644,-10.127472877502441,-0.49320554733276367,-4.2572021484375,13.1988525390625,-5.37109375
5.7299999,0.8690952062606812,-10.20887565612793,-0.3687070608139038,4.5013427734375,6.4697265625,-16.0369873046875
5.749999900000001,0.8451532125473022,-10.168174743652344,-0.16998831927776337,11.2152099609375,1.46484375,-18.85986328125
5.7699999,0.7709329724311829,-10.046070098876953,-0.026336219161748886,13.7176513671875,0.518798828125,-8.819580078125
5.789999900000001,0.6799532771110535,-9.861717224121094,0.07182604819536209,11.5509033203125,6.683349609375,-0.732421875
5.8099999,0.6009446382522583,-9.77791976928711,0.17477671802043915,1.9378662109375,12.6953125,-1.03759765625
5.829999900000001,0.586579442024231,-9.840168952941895,0.33279404044151306,0.9002685546875,6.8817138671875,-6.7291259765625
5.8499999,0.6057330369949341,-9.959878921508789,0.5123591423034668,7.4005126953125,-8.60595703125,-17.08984375
5.869999900000001,0.6488286852836609,-10.010157585144043,0.6105214357376099,3.4332275390625,-15.1519775390625,-24.1241455078125
5.8899999,0.6991068720817566,-9.904812812805176,0.5363011956214905,-8.3160400390625,-9.5062255859375,-16.387939453125
5.909999900000001,0.7805097699165344,-9.792284965515137,0.31842881441116333,-14.3280029296875,-1.4495849609375,0.5645751953125
5.9299999,0.8858546018600464,-9.77791976928711,0.023942016065120697,-9.3841552734375,-0.091552734375,1.708984375
5.949999900000001,1.0007762908935547,-9.84495735168457,-0.18914192914962769,-17.974853515625,2.777099609375,-11.7340087890625
5.9699999,1.1037269830703735,-9.979032516479492,-0.26096799969673157,-25.8331298828125,7.2479248046875,-12.1002197265625
5.989999900000001,1.1300631761550903,-9.931148529052734,-0.1867477297782898,-22.369384765625,3.2501220703125,-3.60107421875
6.0099999,1.1635819673538208,-9.928754806518555,0,-19.3939208984375,-3.5247802734375,7.38525390625
6.029999900000001,1.2090718746185303,-10.070012092590332,0.1173158809542656,-11.1236572265625,-11.7034912109375,3.448486328125
6.0499999,1.2186486721038818,-10.141838073730469,0.10534487664699554,-16.3421630859375,-11.962890625,-25.054931640625
6.069999900000001,1.237802267074585,-10.235212326049805,-0.011971008032560349,-29.937744140625,-5.401611328125,-22.705078125
6.0899999000000005,1.2210428714752197,-10.223240852355957,-0.2106897532939911,-17.51708984375,-5.79833984375,2.7008056640625
6.109999900000001,1.1779472827911377,-10.098742485046387,-0.4141969084739685,-10.345458984375,-9.796142578125,-4.425048828125
6.1299999000000005,1.115697979927063,-9.976638793945312,-0.5650315880775452,-25.69580078125,-3.997802734375,-20.6146240234375
6.149999900000001,1.0103530883789062,-9.696516990661621,-0.6655880808830261,-46.4935302734375,1.46484375,-13.9617919921875
6.1699999000000005,0.933738648891449,-9.478644371032715,-0.6799532771110535,-48.8433837890625,0.640869140625,24.2767333984375
6.1899999,0.871489405632019,-9.246406555175781,-0.6248866319656372,-53.497314453125,-7.232666015625,27.008056640625
6.209999900000001,0.9528923034667969,-9.275136947631836,-0.6512228846549988,-69.2901611328125,-14.862060546875,0.2593994140625
6.2299999,1.1563993692398071,-9.648633003234863,-1.0773907899856567,-40.6036376953125,-20.355224609375,0.42724609375
6.249999900000001,1.335964560508728,-9.962273597717285,-1.7166426181793213,-31.341552734375,-2.105712890625,-5.31005859375
6.2699999,1.45806884765625,-10.146626472473145,-2.185906171798706,-49.835205078125,26.4129638671875,-9.063720703125
6.289999900000001,1.455674648284912,-10.137049674987793,-2.38462495803833,-19.500732421875,9.70458984375,0.457763671875
6.3099999,1.3263877630233765,-9.888052940368652,-2.2433669567108154,27.557373046875,-24.749755859375,7.50732421875
6.329999900000001,1.1516109704971313,-9.552865028381348,-1.867477297782898,22.369384765625,-24.7955322265625,15.3656005859375
6.3499999,1.0438719987869263,-9.306262016296387,-1.7262194156646729,0.335693359375,-27.9541015625,24.5208740234375
6.369999900000001,0.9552865028381348,-9.2033109664917,-1.9776105880737305,5.096435546875,-46.600341796875,22.857666015625
6.3899999,0.9193734526634216,-9.227252960205078,-2.1739351749420166,1.5716552734375,-22.27783203125,15.8538818359375
6.409999900000001,0.8571242094039917,-9.255983352661133,-2.078166961669922,-13.9923095703125,10.0860595703125,26.214599609375
6.4299999,0.790086567401886,-9.30386734008789,-1.721431016921997,-3.570556640625,-18.3563232421875,50.0335693359375
6.449999900000001,0.7374141216278076,-9.739612579345703,-1.194706678390503,24.7955322265625,-46.81396484375,58.197021484375
6.4699999,0.6799532771110535,-10.321403503417969,-0.47644615173339844,-41.5496826171875,-21.1029052734375,14.5416259765625
6.489999900000001,0.6368576288223267,-11.15697956085205,-0.0694318488240242,-51.4068603515625,-10.9710693359375,-20.9197998046875
6.5099999,0.5339069962501526,-11.851298332214355,0.12210428714752197,11.993408203125,-43.304443359375,-22.0794677734375
6.529999900000001,0.4118026793003082,-12.15057373046875,0.11013327538967133,36.224365234375,-52.7496337890625,-16.6015625
6.5499999,0.28969839215278625,-11.997344970703125,-0.15083470940589905,22.3541259765625,-37.567138671875,-20.050048828125
6.569999900000001,0.2298433631658554,-11.650185585021973,-0.6344634294509888,17.7154541015625,-37.04833984375,-17.5323486328125
6.5899999000000005,0.2537853717803955,-11.224017143249512,-1.1779472827911377,34.6221923828125,-46.234130859375,-14.5263671875
6.609999900000001,0.3519476354122162,-10.745177268981934,-1.7166426181793213,30.0750732421875,-44.43359375,-27.6336669921875
6.6299999000000005,0.4884171485900879,-10.371682167053223,-2.2601263523101807,30.82275390625,-28.717041015625,-31.951904296875
6.649999900000001,0.6320692300796509,-9.99339771270752,-2.583343744277954,28.2440185546875,-9.6893310546875,-24.3682861328125
6.6699999000000005,0.7541735172271729,-9.66299819946289,-2.6360161304473877,46.0205078125,-8.819580078125,-14.8162841796875
6.6899999,0.8236053586006165,-9.409213066101074,-2.3295583724975586,72.7691650390625,-15.5792236328125,-9.3994140625
6.709999900000001,0.912190854549408,-9.418789863586426,-1.802833914756775,72.3876953125,-19.47021484375,-8.48388671875
6.7299999,0.9361328482627869,-9.502586364746094,-1.316810965538025,67.6422119140625,-26.641845703125,-21.6522216796875
6.749999900000001,0.9217676520347595,-9.548076629638672,-0.9552865028381348,55.999755859375,-30.8685302734375,-32.135009765625
6.7699999,0.9241618514060974,-9.59835433959961,-0.7709329724311829,58.8226318359375,-23.6663818359375,-15.7623291015625
6.789999900000001,0.8858546018600464,-9.464279174804688,-0.7206547260284424,55.450439453125,-18.2037353515625,-11.505126953125
6.8099999,0.8571242094039917,-9.337387084960938,-0.6177040338516235,32.8216552734375,-15.655517578125,-19.7296142578125
6.829999900000001,0.8044517636299133,-9.255983352661133,-0.40222588181495667,29.327392578125,-19.073486328125,-15.594482421875
6.8499999,0.7469909191131592,-9.196128845214844,-0.10534487664699554,24.0631103515625,-32.0892333984375,-12.2833251953125
6.869999900000001,0.6847416758537292,-9.129091262817383,0.06224924325942993,11.23046875,-42.2821044921875,-12.02392578125
6.8899999,0.6871358752250671,-9.090784072875977,0.07661445438861847,-10.7879638671875,-31.280517578125,-10.0250244140625
6.909999900000001,0.768538773059845,-9.155426979064941,-0.035913024097681046,-10.345458984375,-11.6119384765625,-5.8135986328125
6.9299999,0.8619126081466675,-9.191340446472168,-0.1604115068912506,8.209228515625,-13.7176513671875,-13.397216796875
6.949999900000001,0.9648633003234863,-9.272743225097656,-0.1628057211637497,19.53125,-21.8048095703125,-15.472412109375
6.9699999,1.048660397529602,-9.397241592407227,-0.181959331035614,20.965576171875,-25.360107421875,-5.3253173828125
6.989999900000001,1.1276689767837524,-9.557653427124023,-0.24660277366638184,14.923095703125,-20.93505859375,-2.0904541015625
7.0099999,1.1971008777618408,-9.770736694335938,-0.35434186458587646,14.1754150390625,-12.5732421875,-11.8408203125
7.029999900000001,1.2473790645599365,-9.923966407775879,-0.4405331015586853,20.4620361328125,-12.0391845703125,-16.4031982421875
7.0499999,1.259350061416626,-10.014945983886719,-0.3878606855869293,18.24951171875,-10.68115234375,-3.9825439453125
7.069999900000001,1.2210428714752197,-9.897629737854004,-0.26815059781074524,8.9874267578125,-10.9100341796875,3.204345703125
7.0899999000000005,1.2018892765045166,-9.780313491821289,-0.0933738648891449,-8.3160400390625,-11.1846923828125,7.568359375
7.109999900000001,1.2234370708465576,-9.746794700622559,0.002394201699644327,-10.07080078125,-12.02392578125,10.1318359375
7.1299999000000005,1.2880805730819702,-9.799467086791992,-0.026336219161748886,-2.685546875,-11.138916015625,1.9073486328125
7.149999900000001,1.3694833517074585,-9.952696800231934,-0.05746084079146385,-4.3792724609375,0.335693359375,-4.0435791015625
7.1699999000000005,1.4317326545715332,-10.091560363769531,-0.11013327538967133,-7.5225830078125,1.9073486328125,-2.6397705078125
7.1899999,1.4437036514282227,-10.156203269958496,-0.10534487664699554,-3.4637451171875,-5.889892578125,-0.5340576171875
7.209999900000001,1.403002142906189,-10.144232749938965,-0.021547814831137657,3.5552978515625,-3.4942626953125,0.06103515625
7.2299999,1.3646949529647827,-10.192116737365723,0.033518824726343155,8.0718994140625,-0.213623046875,2.2735595703125
7.249999900000001,1.3120225667953491,-10.20887565612793,0.031124621629714966,9.4146728515625,-3.0670166015625,-2.2430419921875
7.2699999,1.2641384601593018,-10.1753568649292,0.031124621629714966,1.129150390625,-1.6326904296875,-9.1705322265625
7.289999900000001,1.2449848651885986,-10.14902114868164,0.021547814831137657,2.044677734375,0.42724609375,-1.64794921875
7.3099999,1.235408067703247,-10.043676376342773,0.002394201699644327,4.21142578125,-1.556396484375,-0.6561279296875
7.329999900000001,1.2497732639312744,-9.909601211547852,-0.016759412363171577,4.7454833984375,-3.173828125,-7.87353515625
7.3499999,1.292868971824646,-9.799467086791992,-0.05746084079146385,10.284423828125,0.6866455078125,-5.6915283203125
7.369999900000001,1.359906554222107,-9.730035781860352,-0.090979665517807,10.6201171875,2.9754638671875,-0.3204345703125
7.3899999,1.41257905960083,-9.648633003234863,-0.08379705995321274,7.2784423828125,2.44140625,-5.3558349609375
7.409999900000001,1.4724340438842773,-9.648633003234863,-0.021547814831137657,7.3089599609375,0.8392333984375,-8.1939697265625
7.4299999,1.5107412338256836,-9.684545516967773,0.06224924325942993,7.26318359375,-0.3204345703125,-5.3863525390625
7.449999900000001,1.5203180313110352,-9.68694019317627,0.14844051003456116,7.476806640625,1.953125,-5.2032470703125
7.4699999,1.525106430053711,-9.730035781860352,0.26575639843940735,8.6822509765625,5.096435546875,-1.190185546875
7.489999900000001,1.5179238319396973,-9.75397777557373,0.3902548849582672,7.080078125,3.0059814453125,-0.9002685546875
7.5099999,1.5131354331970215,-9.794678688049316,0.4692635238170624,5.1422119140625,-2.0751953125,-2.0294189453125
7.529999900000001,1.5107412338256836,-9.84495735168457,0.5291185975074768,4.547119140625,2.7923583984375,-0.274658203125
7.5499999,1.5059528350830078,-9.84256362915039,0.6009446382522583,-1.739501953125,11.0321044921875,-0.946044921875
7.569999900000001,1.5275006294250488,-9.876082420349121,0.7038952708244324,-3.2196044921875,5.767822265625,0.1983642578125
7.5899999000000005,1.5634137392044067,-9.914389610290527,0.7805097699165344,4.21142578125,-6.011962890625,0.244140625
7.609999900000001,1.6041151285171509,-9.96945571899414,0.8259995579719543,5.645751953125,-2.8533935546875,-4.45556640625
7.6299999000000005,1.644816517829895,-10.022128105163574,0.8236053586006165,-2.532958984375,8.2244873046875,-5.828857421875
7.649999900000001,1.644816517829895,-9.981427192687988,0.7326257228851318,1.861572265625,4.241943359375,-4.8675537109375
7.6699999000000005,1.6280571222305298,-9.890447616577148,0.7110779285430908,5.5084228515625,1.0223388671875,0.4730224609375
7.6899999,1.6089035272598267,-9.821015357971191,0.706289529800415,7.0343017578125,5.9967041015625,5.18798828125
7.709999900000001,1.5921441316604614,-9.806650161743164,0.6847416758537292,7.9803466796875,7.720947265625,1.28173828125
7.7299999,1.577778935432434,-9.797073364257812,0.6631938815116882,9.58251953125,8.2855224609375,-5.706787109375
7.749999900000001,1.5418659448623657,-9.775525093078613,0.689530074596405,11.4288330078125,14.0228271484375,-1.5869140625
7.7699999,1.4700398445129395,-9.66299819946289,0.8068459630012512,6.9732666015625,18.0206298828125,4.5013427734375
7.789999900000001,1.4101848602294922,-9.588777542114258,0.9481038451194763,6.805419921875,10.3912353515625,8.4991455078125
7.8099999,1.3742717504501343,-9.583989143371582,1.0630255937576294,7.110595703125,1.8768310546875,6.195068359375
7.829999900000001,1.3670891523361206,-9.600749015808105,1.1444283723831177,-3.936767578125,8.1787109375,-2.044677734375
7.8499999,1.3982137441635132,-9.725247383117676,1.192312479019165,-8.11767578125,13.671875,0.8697509765625
7.869999900000001,1.4077905416488647,-9.775525093078613,1.213860273361206,4.9285888671875,4.7149658203125,-1.28173828125
7.8899999,1.4221558570861816,-9.837775230407715,1.216254472732544,8.6822509765625,-2.410888671875,-3.5552978515625
7.909999900000001,1.41257905960083,-9.837775230407715,1.1563993692398071,0.396728515625,1.861572265625,-3.3416748046875
7.9299999,1.414973258972168,-9.80904483795166,1.05105459690094,-13.671875,7.598876953125,-0.6561279296875
7.949999900000001,1.4413094520568848,-9.816226959228516,0.8930372595787048,-7.598876953125,3.9215087890625,3.4332275390625
7.9699999,1.4628572463989258,-9.765948295593262,0.7709329724311829,-5.79833984375,2.0751953125,-4.08935546875
7.989999900000001,1.5083470344543457,-9.780313491821289,0.7134721279144287,-14.22119140625,7.8277587890625,-2.899169921875
8.0099999,1.5155296325683594,-9.672574996948242,0.6560112833976746,-7.6141357421875,7.9345703125,1.8157958984375
8.0299999,1.4939818382263184,-9.526528358459473,0.6703764796257019,-4.486083984375,7.9498291015625,8.1634521484375
8.049999900000001,1.4891934394836426,-9.536105155944824,0.6751648783683777,-8.1787109375,9.429931640625,20.416259765625
8.069999900000001,1.4987702369689941,-9.634267807006836,0.6368576288223267,-0.8544921875,11.2457275390625,13.00048828125
8.0899999,1.50355863571167,-9.835380554199219,0.6153098344802856,11.2762451171875,21.4691162109375,0.7171630859375
8.1099999,1.5538369417190552,-10.079588890075684,0.6153098344802856,22.5677490234375,25.5279541015625,4.3487548828125
8.129999900000001,1.5849615335464478,-10.29746150970459,0.6440402865409851,36.5447998046875,19.805908203125,6.0272216796875
8.149999900000001,1.6160861253738403,-10.395624160766602,0.727837324142456,19.8974609375,15.960693359375,-10.650634765625
8.1699999,1.656787633895874,-10.412383079528809,0.9552865028381348,-12.1307373046875,20.9503173828125,-21.1944580078125
8.1899999,1.680729627609253,-10.285490036010742,1.1899182796478271,-1.40380859375,13.3819580078125,-13.1988525390625
8.2099999,1.678335428237915,-9.959878921508789,1.4628572463989258,2.7313232421875,-0.30517578125,-7.568359375
8.229999900000001,1.678335428237915,-9.718064308166504,1.6041151285171509,-7.0037841796875,-2.593994140625,4.1046142578125
8.2499999,1.7310078144073486,-9.763554573059082,1.4724340438842773,-12.1002197265625,1.8157958984375,17.2119140625
8.2699999,1.7908629179000854,-10.002974510192871,1.113303780555725,-18.035888671875,10.3607177734375,3.448486328125
8.2899999,1.8315643072128296,-10.302249908447266,0.7924807667732239,-25.390625,27.5115966796875,-14.2364501953125
8.309999900000001,1.8052281141281128,-10.42195987701416,0.6847416758537292,-29.78515625,33.75244140625,-10.80322265625
8.3299999,1.723825216293335,-10.307038307189941,0.8667010068893433,-26.5045166015625,18.707275390625,0.8697509765625
8.3499999,1.6041151285171509,-10.096348762512207,1.1563993692398071,-2.0751953125,2.5787353515625,4.33349609375
8.3699999,1.5203180313110352,-9.90241813659668,1.3239935636520386,9.4451904296875,0.8087158203125,-4.3182373046875
8.389999900000001,1.460463047027588,-9.80904483795166,1.2306196689605713,2.4566650390625,10.3759765625,-4.0283203125
8.4099999,1.455674648284912,-9.775525093078613,0.9864110946655273,2.7923583984375,20.3399658203125,3.1585693359375
8.4299999,1.4484920501708984,-9.720458984375,0.7805097699165344,2.7618408203125,20.3704833984375,-1.4495849609375
8.4499999,1.4413094520568848,-9.706093788146973,0.6823474764823914,-5.5389404296875,12.7716064453125,-5.2032470703125
8.469999900000001,1.4197616577148438,-9.732429504394531,0.6440402865409851,1.3275146484375,9.2010498046875,1.7852783203125
8.4899999,1.3766659498214722,-9.701305389404297,0.6751648783683777,-5.5999755859375,14.8773193359375,4.638671875
8.5099999,1.3120225667953491,-9.636661529541016,0.7709329724311829,-7.6904296875,17.2576904296875,8.2855224609375
8.5299999,1.314416766166687,-9.612719535827637,0.8930372595787048,-5.828857421875,4.5013427734375,17.15087890625
8.549999900000001,1.3000515699386597,-9.576807022094727,0.912190854549408,12.1307373046875,-6.9580078125,13.61083984375
8.569999900000001,1.316810965538025,-9.66299819946289,0.8403648138046265,15.8233642578125,5.3558349609375,7.5225830078125
8.5899999,1.3239935636520386,-9.80904483795166,0.6224924325942993,-7.4462890625,15.838623046875,4.5318603515625
8.6099999,1.338358759880066,-9.983820915222168,0.44771572947502136,-5.7220458984375,14.984130859375,3.84521484375
8.629999900000001,1.37906014919281,-10.1753568649292,0.395043283700943,-0.1373291015625,9.8114013671875,4.1656494140625
8.649999900000001,1.436521053314209,-10.302249908447266,0.4908113479614258,3.448486328125,10.2081298828125,0.5340576171875
8.6699999,1.460463047027588,-10.333374977111816,0.6536170840263367,-5.828857421875,10.8489990234375,-4.5013427734375
8.6899999,1.482010841369629,-10.362105369567871,0.8858546018600464,-7.0953369140625,8.575439453125,0.79345703125
8.709999900000001,1.4413094520568848,-10.374075889587402,0.9792284965515137,11.749267578125,-1.8157958984375,1.190185546875
8.729999900000001,1.3886369466781616,-10.429142951965332,1.0199298858642578,24.0020751953125,3.753662109375,-5.279541015625
8.7499999,1.292868971824646,-10.402806282043457,0.950498104095459,9.735107421875,13.0767822265625,-13.519287109375
8.7699999,1.1994950771331787,-10.307038307189941,0.8906430602073669,-3.3111572265625,12.6495361328125,-7.7667236328125
8.7899999,1.137245774269104,-10.196905136108398,0.8882488012313843,-10.2386474609375,4.1046142578125,4.2724609375
8.809999900000001,1.1348515748977661,-10.196905136108398,0.8906430602073669,-9.1400146484375,1.3580322265625,3.692626953125
8.8299999,1.1994950771331787,-10.302249908447266,0.8786720037460327,-12.298583984375,6.805419921875,-7.0648193359375
8.8499999,1.292868971824646,-10.409989356994629,0.811634361743927,-25.390625,7.4920654296875,-13.5498046875
8.8699999,1.3958195447921753,-10.453084945678711,0.7565677165985107,-24.71923828125,1.89208984375,-8.575439453125
8.889999900000001,1.4508862495422363,-10.18493366241455,0.7230489253997803,-14.923095703125,1.77001953125,-13.580322265625
8.9099999,1.501164436340332,-9.821015357971191,0.6129156351089478,-23.8494873046875,-0.30517578125,-11.962890625
8.9299999,1.5825673341751099,-9.516951560974121,0.4189853072166443,-27.7252197265625,1.7242431640625,5.462646484375
8.9499999,1.623268723487854,-9.10993766784668,0.23702596127986908,-22.4151611328125,12.5579833984375,-3.2501220703125
8.969999900000001,1.678335428237915,-8.959102630615234,0.15083470940589905,-18.5699462890625,12.2833251953125,-0.7476806640625
8.9899999,1.6855180263519287,-8.951920509338379,0.14844051003456116,6.8359375,0.579833984375,11.505126953125
9.0099999,1.644816517829895,-9.11233139038086,0.28730419278144836,16.448974609375,1.8310546875,6.4239501953125
9.0299999,1.5610195398330688,-9.342175483703613,0.40222588181495667,3.0975341796875,3.3111572265625,-5.1116943359375
9.049999900000001,1.4317326545715332,-9.514557838439941,0.4644751250743866,5.3863525390625,1.7852783203125,-5.92041015625
9.069999900000001,1.290474772453308,-9.557653427124023,0.5363011956214905,10.7879638671875,6.16455078125,4.1046142578125
9.0899999,1.1420341730117798,-9.526528358459473,0.6440402865409851,-5.950927734375,8.636474609375,11.3983154296875
9.1099999,1.0295066833496094,-9.533711433410645,0.7134721279144287,-9.7503662109375,-2.13623046875,8.7738037109375
9.129999900000001,1.0007762908935547,-9.655815124511719,0.7469909191131592,-6.103515625,-10.040283203125,4.486083984375
9.149999900000001,1.0414776802062988,-9.806650161743164,0.7374141216278076,-2.74658203125,-1.6937255859375,0.1220703125
9.1699999,1.1300631761550903,-9.931148529052734,0.6512228846549988,14.7857666015625,4.7454833984375,-0.6866455078125
9.1899999,1.1899182796478271,-9.959878921508789,0.6009446382522583,20.1568603515625,4.82177734375,-3.570556640625
9.209999900000001,1.1659762859344482,-9.861717224121094,0.6943184733390808,6.16455078125,8.30078125,-5.5694580078125
9.229999900000001,1.0773907899856567,-9.739612579345703,0.9385270476341248,-3.692626953125,7.3699951171875,-0.54931640625
9.2499999,0.9696516990661621,-9.672574996948242,1.1635819673538208,-0.2593994140625,-7.50732421875,5.2032470703125
9.2699999,0.9241618514060974,-9.636661529541016,1.3838485479354858,-3.692626953125,-12.5885009765625,-1.861572265625
9.2899999,0.9768342971801758,-9.655815124511719,1.4317326545715332,-16.4947509765625,-9.185791015625,-7.7056884765625
9.309999900000001,1.1013327836990356,-9.670180320739746,1.3694833517074585,-18.7530517578125,-6.7138671875,-4.2877197265625
9.3299999,1.2186486721038818,-9.619902610778809,1.139639973640442,-14.3280029296875,-14.8773193359375,-0.3204345703125
9.3499999,1.3311761617660522,-9.583989143371582,0.8307880163192749,-7.6904296875,-15.1519775390625,3.7384033203125
9.3699999,1.414973258972168,-9.5408935546875,0.5650315880775452,-20.8587646484375,-1.9378662109375,2.8839111328125
9.389999900000001,1.45806884765625,-9.509769439697266,0.35673606395721436,-29.022216796875,-1.5716552734375,0.5035400390625
9.4099999,1.5083470344543457,-9.514557838439941,0.2561795711517334,-15.9454345703125,-13.9007568359375,4.3182373046875
9.4299999,1.5442601442337036,-9.533711433410645,0.1867477297782898,-3.936767578125,-15.3961181640625,3.9825439453125
9.4499999,1.5610195398330688,-9.57441234588623,0.10295066982507706,-3.4332275390625,-5.2947998046875,0.91552734375
9.469999900000001,1.5753847360610962,-9.622296333312988,0.09816227108240128,-15.838623046875,2.227783203125,1.678466796875
9.4899999,1.577778935432434,-9.636661529541016,0.08379705995321274,-15.0604248046875,-11.9476318359375,4.3182373046875
9.5099999,1.5969325304031372,-9.708487510681152,0.08140286058187485,-6.0882568359375,-18.2342529296875,7.171630859375
9.5299999,1.5969325304031372,-9.746794700622559,0.05506663769483566,-3.7078857421875,-4.5013427734375,1.190185546875
9.549999900000001,1.5921441316604614,-9.775525093078613,-0.07900865375995636,-0.67138671875,-2.166748046875,-1.2359619140625
9.569999900000001,1.5490485429763794,-9.801861763000488,-0.17238251864910126,0.79345703125,-10.6658935546875,7.2174072265625
9.5899999,1.455674648284912,-9.797073364257812,-0.22505496442317963,-3.7994384765625,-14.16015625,8.4228515625
9.6099999,1.3431471586227417,-9.77791976928711,-0.15083470940589905,-0.0152587890625,-6.378173828125,3.60107421875
9.629999900000001,1.213860273361206,-9.75397777557373,0.011971008032560349,13.1988525390625,-4.6539306640625,1.312255859375
9.649999900000001,1.1204863786697388,-9.749189376831055,0.17956513166427612,17.822265625,-19.744873046875,7.2174072265625
9.6699999,1.0630255937576294,-9.737217903137207,0.3256114423274994,19.0582275390625,-22.2625732421875,6.439208984375
9.6899999,1.0271124839782715,-9.72285270690918,0.40462008118629456,17.791748046875,-10.9405517578125,-1.0986328125
9.709999900000001,1.0031704902648926,-9.718064308166504,0.43095630407333374,15.625,-10.7574462890625,-0.579833984375
9.729999900000001,0.9409212470054626,-9.607931137084961,0.4908113479614258,7.9193115234375,-20.32470703125,3.0975341796875
9.7499999,0.8619126081466675,-9.493009567260742,0.5219359993934631,2.0294189453125,-27.52685546875,6.256103515625
9.7699999,0.7613561153411865,-9.346963882446289,0.3687070608139038,7.0648193359375,-26.7486572265625,5.4168701171875
9.7899999,0.7134721279144287,-9.30386734008789,0.15801730751991272,8.5601806640625,-15.2740478515625,7.049560546875
9.809999900000001,0.7110779285430908,-9.38048267364502,-0.047884032130241394,13.4124755859375,-10.345458984375,11.90185546875
9.8299999,0.7948749661445618,-9.670180320739746,-0.22266076505184174,35.9039306640625,-19.317626953125,14.95361328125
9.8499999,0.9169792532920837,-10.012551307678223,-0.24420857429504395,47.8057861328125,-17.486572265625,6.622314453125
9.8699999,1.0438719987869263,-10.316615104675293,-0.16759411990642548,29.78515625,-7.1563720703125,-0.640869140625
9.889999900000001,1.1252747774124146,-10.445901870727539,0.002394201699644327,18.49365234375,-7.87353515625,7.14111328125
9.9099999,1.1492167711257935,-10.438719749450684,0.23702596127986908,16.54052734375,-18.61572265625,14.0533447265625
9.9299999,1.1085153818130493,-10.409989356994629,0.40940847992897034,13.916015625,-23.1170654296875,10.3302001953125
9.9499999,0.9864110946655273,-10.290278434753418,0.5386953949928284,-0.7781982421875,-11.04736328125,-5.279541015625
9.969999900000001,0.8164227604866028,-10.11789608001709,0.6536170840263367,-10.772705078125,-3.2806396484375,-4.5166015625
9.9899999,0.6392518281936646,-9.859322547912598,0.8259995579719543,-7.99560546875,-12.3291015625,11.5966796875
10.0099999,0.5315127968788147,-9.730035781860352,0.9816226959228516,-6.561279296875,-22.8118896484375,24.2156982421875
10.0299999,0.545877993106842,-9.880870819091797,0.9289502501487732,-4.2266845703125,-22.8271484375,21.514892578125
10.049999900000001,0.629675030708313,-10.132261276245117,0.6991068720817566,-11.627197265625,-8.30078125,0.9765625
10.069999900000001,0.7206547260284424,-10.395624160766602,0.42377370595932007,-1.190185546875,3.5552978515625,-5.18798828125
10.0899999,0.7398083209991455,-10.378864288330078,0.33997663855552673,17.791748046875,6.1798095703125,-1.7242431640625
10.1099999,0.6536170840263367,-9.995792388916016,0.38307225704193115,12.8936767578125,-5.8746337890625,-1.1749267578125
10.129999900000001,0.4908113479614258,-9.59596061706543,0.5123591423034668,-1.2054443359375,-5.5694580078125,14.3585205078125
10.149999900000001,0.3064578175544739,-9.287108421325684,0.768538773059845,-25.9552001953125,12.87841796875,34.8052978515625
10.1699999,0.17717093229293823,-9.284713745117188,0.9983820915222168,-37.90283203125,2.593994140625,30.1666259765625
10.1899999,0.1412578970193863,-9.677363395690918,1.1899182796478271,-12.7410888671875,-19.6380615234375,21.8658447265625
10.209999900000001,0.19632454216480255,-10.14902114868164,1.3192051649093628,-10.9710693359375,-14.801025390625,6.16455078125
10.229999900000001,0.23702596127986908,-10.429142951965332,1.1061211824417114,-16.815185546875,-9.8114013671875,-4.302978515625
10.2499999,0.2298433631658554,-10.496180534362793,0.8331822156906128,-16.2811279296875,-3.1890869140625,6.7138671875
10.2699999,0.1867477297782898,-10.38604736328125,0.5554547905921936,-12.02392578125,-2.0599365234375,16.2506103515625
10.2899999,0.16519992053508759,-10.232817649841309,0.23702596127986908,28.839111328125,-9.5062255859375,7.0037841796875
10.309999900000001,0.15562310814857483,-10.08198356628418,-0.011971008032560349,25.7110595703125,-0.7476806640625,-4.9896240234375
10.3299999,0.20111294090747833,-9.849745750427246,-0.12689268589019775,-14.1143798828125,17.63916015625,-0.152587890625
10.3499999,0.26575639843940735,-9.694122314453125,-0.1604115068912506,-14.3585205078125,12.6190185546875,24.0020751953125
10.3699999,0.31842881441116333,-9.648633003234863,-0.028730420395731926,8.148193359375,4.2724609375,27.9693603515625
10.389999900000001,0.3878606855869293,-9.8784761428833,0.15801730751991272,1.678466796875,10.5438232421875,14.312744140625
10.4099999,0.4213795065879822,-10.326191902160645,0.23702596127986908,-6.988525390625,17.08984375,5.37109375
10.4299999,0.35673606395721436,-10.723628997802734,0.2992752194404602,-14.2669677734375,24.322509765625,-5.4473876953125
10.4499999,0.19393034279346466,-10.855310440063477,0.45250412821769714,-21.0113525390625,29.754638671875,-16.9830322265625
10.469999900000001,-0.009576806798577309,-10.711658477783203,0.7134721279144287,-15.4876708984375,21.0418701171875,-12.786865234375
10.4899999,-0.18914192914962769,-10.381258964538574,1.015141487121582,2.0599365234375,6.683349609375,1.3427734375
10.5099999,-0.28969839215278625,-10.050858497619629,1.161187767982483,14.404296875,-2.3956298828125,5.2490234375
10.5299999,-0.3208230137825012,-9.888052940368652,1.0295066833496094,14.678955078125,-2.7923583984375,-3.23486328125
10.549999900000001,-0.28969839215278625,-9.84256362915039,0.6751648783683777,4.2266845703125,9.246826171875,-10.5743408203125
10.569999900000001,-0.2561795711517334,-9.749189376831055,0.3711012601852417,-8.209228515625,24.261474609375,-11.29150390625
10.5899999,-0.1843535304069519,-9.639056205749512,0.31364041566848755,-13.9007568359375,24.261474609375,2.227783203125
10.6099999,-0.05746084079146385,-9.524134635925293,0.3423708379268646,6.7596435546875,1.3427734375,10.3607177734375
10.629999900000001,0.11013327538967133,-9.512163162231445,0.4118026793003082,7.87353515625,-3.9520263671875,5.279541015625
10.649999900000001,0.2849099934101105,-9.655815124511719,0.3663128614425659,-5.4473876953125,14.6331787109375,3.6773681640625
10.6699999,0.40701428055763245,-9.880870819091797,0.2801215946674347,-10.68115234375,22.247314453125,6.6680908203125
10.6899999,0.4429273009300232,-10.062829971313477,0.26336219906806946,-2.838134765625,9.4757080078125,4.3182373046875
10.709999900000001,0.3926490843296051,-10.15141487121582,0.26336219906806946,15.8843994140625,-3.96728515625,1.495361328125
10.729999900000001,0.31364041566848755,-10.216058731079102,0.21787235140800476,15.8843994140625,2.6092529296875,10.1776123046875
10.7499999,0.2059013396501541,-10.177751541137695,0.12449848651885986,-2.8839111328125,16.17431640625,9.4146728515625
10.7699999,0.12689268589019775,-10.125079154968262,0.1173158809542656,-16.143798828125,18.5089111328125,1.8310546875
10.7899999,0.06703764945268631,-10.038887977600098,0.2801215946674347,-19.256591796875,9.674072265625,3.8299560546875
10.809999900000001,0.021547814831137657,-9.895236015319824,0.5626373887062073,-19.3023681640625,0.213623046875,8.36181640625
10.8299999,0.009576806798577309,-9.847352027893066,0.7038952708244324,-0.640869140625,-7.7056884765625,17.7764892578125
10.8499999,0.002394201699644327,-9.938331604003906,0.6607996821403503,16.7388916015625,-5.67626953125,17.5323486328125
10.8699999,-0.009576806798577309,-10.113107681274414,0.5051765441894531,9.2620849609375,6.3934326171875,4.547119140625
10.889999900000001,-0.040701430290937424,-10.299856185913086,0.38546648621559143,-5.3253173828125,9.3536376953125,-3.23486328125
10.9099999,-0.09816227108240128,-10.371682167053223,0.45010992884635925,1.800537109375,0.6103515625,0.3814697265625
10.9299999,-0.17238251864910126,-10.314221382141113,0.6320692300796509,23.5748291015625,-12.6495361328125,3.5552978515625
10.9499999,-0.22505496442317963,-10.218452453613281,0.7733271718025208,42.2210693359375,-19.378662109375,5.9661865234375
10.969999900000001,-0.2585737705230713,-10.108319282531738,0.7972691655158997,48.065185546875,-16.4947509765625,3.936767578125
10.9899999,-0.26575639843940735,-9.940725326538086,0.7398083209991455,34.454345703125,-10.6658935546875,0.762939453125
11.0099999,-0.2801215946674347,-9.742006301879883,0.6727706789970398,29.388427734375,-9.5062255859375,7.293701171875
11.0299999,-0.2992752194404602,-9.555258750915527,0.6560112833976746,48.858642578125,-11.5509033203125,19.6990966796875
11.049999900000001,-0.31842881441116333,-9.476250648498535,0.7015010714530945,79.3914794921875,-7.32421875,27.89306640625
11.069999900000001,-0.3256114423274994,-9.581595420837402,0.8044517636299133,74.951171875,1.03759765625,26.9622802734375
11.0899999,-0.3208230137825012,-9.864110946655273,1.0271124839782715,44.281005859375,4.1351318359375,20.904541015625
11.1099999,-0.30885201692581177,-10.156203269958496,1.359906554222107,41.107177734375,-1.3885498046875,10.284423828125
11.129999900000001,-0.33758243918418884,-10.316615104675293,1.7573440074920654,61.6607666015625,-10.5133056640625,0.06103515625
11.149999900000001,-0.40222588181495667,-10.347740173339844,2.1068975925445557,73.66943359375,-15.2130126953125,5.3253173828125
11.1699999,-0.49559974670410156,-10.249577522277832,2.3343467712402344,79.89501953125,-14.0380859375,13.7481689453125
11.1899999,-0.6009446382522583,-10.098742485046387,2.43011474609375,61.0809326171875,-10.1776123046875,6.9427490234375
11.209999900000001,-0.6943184733390808,-9.940725326538086,2.470816135406494,22.552490234375,-3.8909912109375,-2.8228759765625
11.229999900000001,-0.7565677165985107,-9.773131370544434,2.5258827209472656,3.7841796875,0.9307861328125,-1.9073486328125
11.2499999,-0.7757213711738586,-9.603142738342285,2.609679937362671,4.82177734375,-0.6256103515625,3.2806396484375
11.2699999,-0.7613561153411865,-9.47146224975586,2.6839001178741455,8.9874267578125,-4.669189453125,2.5482177734375
11.2899999,-0.7254431247711182,-9.39245319366455,2.7246015071868896,5.4473876953125,-0.8392333984375,-1.251220703125
11.309999900000001,-0.6799532771110535,-9.370905876159668,2.734178304672241,-2.5177001953125,6.1187744140625,-1.64794921875
11.3299999,-0.6607996821403503,-9.299078941345215,2.7078421115875244,-5.767822265625,6.1492919921875,-3.753662109375
11.3499999,-0.7015010714530945,-9.093177795410156,2.7317841053009033,-30.6549072265625,0.9765625,-4.9591064453125
11.3699999,-0.7589619159698486,-8.971074104309082,2.8107926845550537,-34.4696044921875,1.8463134765625,14.1448974609375
11.389999900000001,-0.7661445140838623,-8.96389102935791,2.7748796939849854,2.685546875,-7.62939453125,28.717041015625
11.4099999,-0.7326257228851318,-9.081207275390625,2.4899697303771973,10.955810546875,-13.031005859375,11.3372802734375
11.4299999,-0.6823474764823914,-9.23443603515625,2.0183119773864746,-42.1142578125,12.87841796875,-7.3394775390625
11.4499999,-0.6751648783683777,-9.402029991149902,1.6543933153152466,-116.9891357421875,45.135498046875,8.148193359375
11.469999900000001,-0.667982280254364,-9.555258750915527,1.6615760326385498,-81.0089111328125,43.0145263671875,23.25439453125
11.4899999,-0.7493851184844971,-9.727641105651855,1.8411411046981812,16.8304443359375,3.448486328125,5.06591796875
11.5099999,-0.7996633648872375,-10.02452278137207,1.9991583824157715,17.9901123046875,-11.1236572265625,-8.7432861328125
11.5299999,-0.8140285611152649,-10.292673110961914,1.9584569931030273,-19.805908203125,30.1055908203125,-3.5400390625
11.549999900000001,-0.871489405632019,-10.393229484558105,1.7693150043487549,-26.702880859375,51.361083984375,-5.2490234375
11.569999900000001,-0.9097966551780701,-10.484209060668945,1.702277421951294,-13.12255859375,32.6995849609375,-5.5084228515625
11.5899999,-0.9145850539207458,-10.536881446838379,1.8124107122421265,-8.4991455078125,18.3563232421875,-3.0975341796875
11.6099999,-0.9433154463768005,-10.69489860534668,1.9153614044189453,-17.3492431640625,24.4903564453125,-6.0577392578125
11.629999900000001,-0.9026140570640564,-11.338939666748047,1.9512743949890137,-7.99560546875,38.2843017578125,-8.3770751953125
11.649999900000001,-0.8403648138046265,-11.947066307067871,2.166752576828003,3.997802734375,41.3970947265625,-50.3387451171875
11.6699999,-0.8092401623725891,-12.356474876403809,2.5665841102600098,-6.378173828125,18.6614990234375,-96.19140625
11.6899999,-0.7661445140838623,-12.380416870117188,2.9233202934265137,17.120361328125,-16.265869140625,-71.502685546875
11.709999900000001,-0.7206547260284424,-11.81059741973877,3.1483752727508545,14.1143798828125,-10.4827880859375,-47.9736328125
11.729999900000001,-0.6703764796257019,-11.044452667236328,3.1052796840667725,-18.157958984375,9.3536376953125,-51.513671875
11.7499999,-0.5410895943641663,-10.163386344909668,2.851494312286377,-19.561767578125,4.913330078125,-54.351806640625
11.7699999,-0.3974374830722809,-9.272743225097656,2.6671407222747803,-12.969970703125,-2.197265625,-34.9273681640625
11.7899999,-0.19393034279346466,-8.611943244934082,2.3582887649536133,-18.1121826171875,-11.932373046875,-1.5869140625
11.809999900000001,0.033518824726343155,-8.123526573181152,2.0183119773864746,-33.843994140625,-11.0321044921875,-6.6986083984375
11.8299999,0.24660277366638184,-7.903259754180908,1.6687586307525635,-44.097900390625,-2.0751953125,-27.77099609375
11.8499999,0.4213795065879822,-7.8745293617248535,1.1971008777618408,-19.989013671875,-14.70947265625,-13.885498046875
11.8699999,0.5099649429321289,-7.891288757324219,0.8140285611152649,1.2969970703125,-13.85498046875,10.2691650390625
11.889999900000001,0.507570743560791,-7.939172744750977,0.5626373887062073,-9.1094970703125,5.2642822265625,11.9781494140625
11.9099999,0.49559974670410156,-8.279149055480957,0.27054479718208313,-7.01904296875,2.13623046875,11.199951171875
11.9299999,0.4668693244457245,-8.686163902282715,0.06703764945268631,5.462646484375,-2.01416015625,7.4310302734375
11.9499999,0.45010992884635925,-9.102754592895508,0.11013327538967133,1.312255859375,16.815185546875,3.1280517578125
11.969999900000001,0.40940847992897034,-9.342175483703613,0.23942017555236816,0.457763671875,19.195556640625,3.84521484375
11.9899999,0.38067805767059326,-9.533711433410645,0.5003881454467773,11.7950439453125,3.9520263671875,12.75634765625
12.0099999,0.31842881441116333,-9.622296333312988,0.9385270476341248,7.659912109375,6.3323974609375,12.0697021484375
12.0299999,0.24181437492370605,-9.720458984375,1.3239935636520386,1.8768310546875,8.1939697265625,6.378173828125
12.049999900000001,0.1843535304069519,-9.907206535339355,1.6543933153152466,2.50244140625,0.885009765625,12.451171875
12.069999900000001,0.14365209639072418,-10.11550235748291,1.8818424940109253,-3.3111572265625,-8.60595703125,10.1318359375
12.0899999,0.1412578970193863,-10.302249908447266,1.8962076902389526,1.40380859375,-12.6495361328125,0.0457763671875
12.1099999,0.15801730751991272,-10.398017883300781,1.7549498081207275,3.509521484375,-4.5166015625,-4.45556640625
12.129999900000001,0.19632454216480255,-10.424354553222656,1.501164436340332,-1.708984375,2.227783203125,3.448486328125
12.149999900000001,0.24899697303771973,-10.390835762023926,1.2066776752471924,0.7476806640625,-0.79345703125,7.5531005859375
12.1699999,0.2992752194404602,-10.230423927307129,1.0821791887283325,-5.706787109375,5.9814453125,-2.4871826171875
12.1899999,0.38307225704193115,-10.280701637268066,1.0558429956436157,-6.5460205078125,10.284423828125,2.99072265625
12.209999900000001,0.4572925269603729,-10.44350814819336,1.070208191871643,3.8909912109375,3.143310546875,5.18798828125
12.229999900000001,0.5195417404174805,-10.821791648864746,1.2114660739898682,4.241943359375,6.317138671875,-12.054443359375
12.2499999,0.5530605912208557,-11.504138946533203,1.414973258972168,7.8582763671875,12.542724609375,-24.7650146484375
12.2699999,0.47884035110473633,-12.524068832397461,1.6400281190872192,17.730712890625,6.3629150390625,-40.191650390625
12.289999900000002,0.3758896589279175,-13.867216110229492,2.293645143508911,-14.46533203125,12.4053955078125,-73.0438232421875
12.309999900000001,0.11252748221158981,-14.990097045898438,3.7014358043670654,-84.4879150390625,20.69091796875,-140.625
12.3299999,-0.21547815203666687,-15.286977767944336,5.303156852722168,-50.2166748046875,-42.694091796875,-186.6302490234375
12.3499999,-0.5147533416748047,-14.690821647644043,6.964732646942139,14.801025390625,-100.616455078125,-161.7584228515625
12.3699999,-0.727837324142456,-13.208810806274414,8.133103370666504,14.0380859375,-112.9913330078125,-139.6942138671875
12.389999900000001,-0.912190854549408,-11.133037567138672,8.324639320373535,27.6641845703125,-147.064208984375,-176.69677734375
12.4099999,-1.094150185585022,-8.633491516113281,7.6997528076171875,42.0684814453125,-203.3538818359375,-198.8525390625
12.4299999,-1.280897855758667,-5.34625244140625,6.3518171310424805,46.8292236328125,-234.8480224609375,-153.1829833984375
12.4499999,-1.5921441316604614,-1.1851298809051514,4.213795185089111,59.0667724609375,-240.17333984375,-53.1158447265625
12.469999900000001,-1.8387469053268433,2.959233283996582,1.4844050407409668,63.018798828125,-225.6011962890625,93.7652587890625
12.4899999,-2.1332337856292725,6.275202751159668,-1.5083470344543457,86.7919921875,-193.2373046875,240.7073974609375
12.5099999,-3.021482467651367,8.195352554321289,-4.189853191375732,114.5172119140625,-143.3563232421875,328.0487060546875
12.5299999,-4.4508209228515625,6.655880928039551,-6.124367713928223,99.67041015625,-101.0894775390625,477.9510498046875
12.549999900000001,-6.229712963104248,2.2433669567108154,-8.149862289428711,62.2100830078125,-133.056640625,499.9847412109375
12.569999900000001,-7.848193168640137,-5.257667064666748,-10.491392135620117,-12.39013671875,-120.7733154296875,403.3203125
12.5899999,-8.729259490966797,-13.685256958007812,-12.51449203491211,-18.5699462890625,109.6343994140625,284.6221923828125
12.6099999,-8.954314231872559,-20.17833137512207,-13.211204528808594,5.859375,316.192626953125,160.614013671875
12.629999900000001,-8.698134422302246,-24.54056739807129,-12.45703125,112.060546875,231.8267822265625,156.06689453125
12.649999900000001,-8.200140953063965,-27.444734573364258,-9.174580574035645,139.5263671875,234.55810546875,149.9786376953125
12.6699999,-7.948749542236328,-29.381643295288086,-5.018246650695801,-1.373291015625,280.8380126953125,-86.6241455078125
12.6899999,-8.185775756835938,-30.238767623901367,-1.482010841369629,-55.60302734375,214.4622802734375,-353.6529541015625
12.709999900000001,-8.779537200927734,-29.316999435424805,1.987187385559082,-31.463623046875,248.71826171875,-398.3306884765625
12.729999900000001,-9.59835433959961,-25.723302841186523,5.236119270324707,-76.0498046875,293.5638427734375,-357.7880859375
12.7499999,-10.093954086303711,-19.347543716430664,8.47547435760498,-52.42919921875,218.9788818359375,-402.6947021484375
12.7699999,-9.66539192199707,-12.222399711608887,12.801796913146973,-47.9583740234375,124.6795654296875,-350.830078125
12.789999900000002,-8.631096839904785,-4.95120906829834,16.790536880493164,27.89306640625,-71.10595703125,-179.87060546875
12.809999900000001,-7.374141216278076,2.1547815799713135,18.495208740234375,134.6282958984375,-329.28466796875,-69.4580078125
12.8299999,-6.473921298980713,7.359776020050049,16.424222946166992,138.2598876953125,-436.9659423828125,47.36328125
12.8499999,-5.698200225830078,8.322244644165039,10.371682167053223,143.4326171875,-320.6939697265625,307.2967529296875
12.8699999,-4.970362663269043,5.0469770431518555,1.434126853942871,126.2664794921875,-201.66015625,327.8045654296875
12.889999900000001,-3.8594532012939453,-2.1571757793426514,-8.039729118347168,129.6844482421875,-129.4097900390625,118.34716796875
12.9099999,-2.741360902786255,-9.311050415039062,-15.018827438354492,111.0992431640625,88.6993408203125,-74.03564453125
12.9299999,-1.6328455209732056,-14.211980819702148,-17.24543571472168,-0.4425048828125,310.8367919921875,-30.6243896484375
12.9499999,-0.9744400978088379,-15.284584045410156,-14.032416343688965,-77.9876708984375,262.115478515625,70.9686279296875
12.969999900000001,-0.6751648783683777,-14.259865760803223,-7.568071365356445,-9.27734375,3.0517578125,62.164306640625
12.9899999,-0.43335050344467163,-13.33570384979248,-1.0414776802062988,81.23779296875,-126.1749267578125,35.0341796875
13.0099999,-0.33758243918418884,-12.751518249511719,3.090914487838745,18.829345703125,-5.8441162109375,-2.1514892578125
13.0299999,-0.35673606395721436,-12.430695533752441,4.113238334655762,-47.5921630859375,79.16259765625,-25.421142578125
13.049999900000001,-0.3471592366695404,-12.200851440429688,3.6511576175689697,-23.4527587890625,32.989501953125,1.28173828125
13.069999900000001,-0.44771572947502136,-11.329362869262695,3.047818660736084,-8.11767578125,-9.521484375,-15.289306640625
13.0899999,-0.40222588181495667,-10.773907661437988,2.27209734916687,8.85009765625,-22.88818359375,-8.4075927734375
13.1099999,-0.4118026793003082,-10.11789608001709,1.316810965538025,11.1083984375,-12.1917724609375,-4.791259765625
13.129999900000001,-0.4189853072166443,-9.603142738342285,0.24660277366638184,-2.7008056640625,6.8359375,-16.4642333984375
13.149999900000001,-0.3687070608139038,-9.481039047241211,-0.33758243918418884,-4.9285888671875,23.345947265625,2.410888671875
13.1699999,-0.3998316824436188,-9.246406555175781,-0.4357447028160095,9.979248046875,11.5203857421875,-0.762939453125
13.1899999,-0.3711012601852417,-9.461885452270508,-0.14365209639072418,24.84130859375,-14.5721435546875,6.5155029296875
13.209999900000001,-0.35434186458587646,-9.710882186889648,0.17717093229293823,7.6141357421875,-15.106201171875,3.448486328125
13.229999900000001,-0.35673606395721436,-9.86650562286377,0.363918662071228,-1.373291015625,5.8441162109375,-16.8304443359375
13.2499999,-0.33039984107017517,-10.034099578857422,0.42616790533065796,2.5634765625,11.5203857421875,-3.692626953125
13.2699999,-0.3280056416988373,-9.93593692779541,0.3998316824436188,14.9383544921875,-2.86865234375,4.6234130859375
13.289999900000002,-0.3256114423274994,-9.825803756713867,0.3758896589279175,-3.1585693359375,-1.3580322265625,-0.1983642578125
13.309999900000001,-0.31603461503982544,-9.715670585632324,0.30885201692581177,-20.44677734375,11.7034912109375,-0.5645751953125
13.3299999,-0.3423708379268646,-9.579200744628906,0.19871874153614044,-4.791259765625,17.333984375,5.4168701171875
13.3499999,-0.3232172429561615,-9.624691009521484,0.11971008777618408,8.0108642578125,10.711669921875,20.0958251953125
13.3699999,-0.33518823981285095,-9.607931137084961,0.27054479718208313,-13.427734375,12.908935546875,8.97216796875
13.389999900000001,-0.33518823981285095,-9.696516990661621,0.363918662071228,-15.56396484375,4.913330078125,-2.0751953125
13.4099999,-0.3447650372982025,-9.852140426635742,0.33518823981285095,8.026123046875,-8.6517333984375,5.4473876953125
13.4299999,-0.3758896589279175,-9.93593692779541,0.21787235140800476,6.927490234375,2.044677734375,5.767822265625
13.4499999,-0.4213795065879822,-9.967061996459961,0.11013327538967133,-8.11767578125,18.035888671875,-1.556396484375
13.469999900000001,-0.45250412821769714,-9.940725326538086,0.08379705995321274,-5.0201416015625,9.4757080078125,-1.495361328125
13.4899999,-0.47884035110473633,-9.854534149169922,0.20111294090747833,8.1787109375,-7.110595703125,6.34765625
13.5099999,-0.507570743560791,-9.725247383117676,0.3663128614425659,13.18359375,-6.2103271484375,7.8887939453125
13.5299999,-0.5315127968788147,-9.68694019317627,0.4620809257030487,13.214111328125,3.0364990234375,7.7972412109375
13.549999900000001,-0.5434837937355042,-9.775525093078613,0.47405192255973816,11.0626220703125,1.3275146484375,9.1552734375
13.569999900000001,-0.5267243981361389,-9.938331604003906,0.45010992884635925,5.6915283203125,-5.2337646484375,5.67626953125
13.5899999,-0.47165772318840027,-10.156203269958496,0.47884035110473633,-8.270263671875,-0.8087158203125,-1.5106201171875
13.6099999,-0.3974374830722809,-10.453084945678711,0.24660277366638184,-5.67626953125,-4.9896240234375,-7.3394775390625
13.629999900000001,-0.2849099934101105,-10.891223907470703,-0.4620809257030487,16.41845703125,-12.5274658203125,-15.4876708984375
13.649999900000001,-0.10773907601833344,-11.384428977966309,-1.5753847360610962,-0.9613037109375,22.796630859375,-29.052734375
13.6699999,0.090979665517807,-11.710040092468262,-2.7078421115875244,-32.4249267578125,77.606201171875,-51.7578125
13.6899999,0.2992752194404602,-12.27267837524414,-3.536235809326172,-18.06640625,96.2677001953125,-39.7796630859375
13.709999900000001,0.5147533416748047,-13.515268325805664,-4.153939723968506,42.48046875,65.97900390625,-25.4974365234375
13.729999900000001,0.6033388376235962,-15.28218936920166,-4.077325344085693,13.5498046875,109.1766357421875,-99.67041015625
13.7499999,0.33518823981285095,-16.498443603515625,-3.2417490482330322,-50.018310546875,192.1234130859375,-227.691650390625
13.7699999,0.021547814831137657,-17.00840950012207,-1.3335703611373901,-31.6162109375,192.5048828125,-208.2366943359375
13.789999900000002,-0.3447650372982025,-16.134525299072266,1.522712230682373,47.4853515625,119.8883056640625,-134.5062255859375
13.809999900000001,-0.586579442024231,-14.200010299682617,4.809951305389404,63.873291015625,71.258544921875,-154.9835205078125
13.8299999,-0.5817909836769104,-12.090718269348145,7.754819393157959,19.2413330078125,65.8111572265625,-178.3905029296875
13.8499999,-0.44532153010368347,-10.067618370056152,9.904812812805176,3.4332275390625,22.76611328125,-138.641357421875
13.8699999,-0.30885201692581177,-8.159439086914062,10.687716484069824,56.2744140625,-75.1953125,-97.0001220703125
13.889999900000001,-0.2346317619085312,-6.4164605140686035,10.287884712219238,68.5882568359375,-109.3292236328125,-106.9793701171875
13.9099999,-0.2298433631658554,-4.8937482833862305,9.102754592895508,35.736083984375,-80.99365234375,-98.2208251953125
13.9299999,-0.3926490843296051,-3.071760892868042,7.692570209503174,43.1365966796875,-98.419189453125,-74.9053955078125
13.9499999,-0.8690952062606812,-0.7781155705451965,6.619967937469482,87.7838134765625,-176.513671875,-31.646728515625
13.969999900000001,-1.5514427423477173,1.680729627609253,6.057330131530762,87.4481201171875,-220.9320068359375,54.046630859375
13.9899999,-2.5761611461639404,4.311957359313965,5.439626216888428,89.1265869140625,-248.291015625,141.7236328125
14.0099999,-4.247313976287842,6.519411087036133,4.750096321105957,103.668212890625,-274.322509765625,230.5908203125
14.0299999,-6.646304130554199,6.291962146759033,3.0885202884674072,179.2144775390625,-321.2738037109375,407.0281982421875
14.049999900000001,-8.973467826843262,2.8395233154296875,-1.0582371950149536,221.0540771484375,-421.0968017578125,499.9847412109375
14.069999900000001,-10.78587818145752,-3.4787750244140625,-7.436390399932861,104.67529296875,-295.4254150390625,462.310791015625
14.0899999,-11.66694450378418,-11.168951034545898,-13.917494773864746,27.1453857421875,154.3731689453125,319.7174072265625
14.1099999,-11.034875869750977,-18.873491287231445,-18.05228042602539,-0.152587890625,359.31396484375,343.56689453125
14.129999900000001,-10.014945983886719,-24.212562561035156,-18.974048614501953,99.4415283203125,199.6002197265625,247.8485107421875
14.149999900000001,-8.96389102935791,-27.935544967651367,-16.091428756713867,85.1898193359375,209.9761962890625,92.1173095703125
14.1699999,-8.037335395812988,-29.601909637451172,-11.068394660949707,9.4146728515625,395.8740234375,-15.472412109375
14.1899999,-7.63989782333374,-29.381643295288086,-5.16429328918457,-31.9366455078125,352.508544921875,-110.992431640625
14.209999900000001,-7.4986395835876465,-27.81822967529297,1.0295066833496094,-31.463623046875,196.533203125,-171.0357666015625
14.229999900000001,-7.5417351722717285,-25.16305923461914,6.205770969390869,1.3427734375,127.7618408203125,-255.2642822265625
14.2499999,-7.553706169128418,-22.503101348876953,9.543288230895996,-38.9404296875,157.867431640625,-290.008544921875
14.2699999,-7.515398979187012,-19.347543716430664,10.730812072753906,-41.8701171875,129.8980712890625,-328.643798828125
14.289999900000002,-7.252037048339844,-15.33725643157959,10.867281913757324,20.294189453125,70.4193115234375,-375.8697509765625
14.309999900000001,-6.710947513580322,-10.632649421691895,10.876858711242676,22.979736328125,57.9833984375,-328.9794921875
14.3299999,-5.9088897705078125,-5.257667064666748,10.936713218688965,21.8048095703125,-3.875732421875,-226.3031005859375
14.3499999,-4.972756862640381,-0.019153613597154617,10.836156845092773,71.014404296875,-138.458251953125,-125.1373291015625
14.3699999,-4.185064792633057,4.63517427444458,9.90241813659668,133.1939697265625,-242.0654296875,-42.6483154296875
14.389999900000001,-3.797203779220581,7.869740962982178,7.297526836395264,119.68994140625,-263.5498046875,90.972900390625
14.4099999,-3.624821424484253,8.913613319396973,3.155557870864868,71.9757080078125,-187.9425048828125,274.8870849609375
14.4299999,-3.8953661918640137,7.747636795043945,-2.0901381969451904,13.9312744140625,-120.147705078125,326.84326171875
14.4499999,-4.005499362945557,3.203441858291626,-7.714118003845215,39.1845703125,-109.2071533203125,353.3935546875
14.469999900000001,-3.9839515686035156,-3.1747114658355713,-11.207258224487305,67.9931640625,100.2655029296875,326.019287109375
14.4899999,-3.892971992492676,-10.57040023803711,-11.1474027633667,-72.662353515625,287.2161865234375,204.2083740234375
14.5099999,-3.2848446369171143,-18.179174423217773,-8.564059257507324,-79.28466796875,57.55615234375,148.834228515625
14.5299999,-2.8826189041137695,-23.08489227294922,-4.345476150512695,61.09619140625,-116.76025390625,-28.045654296875
14.549999900000001,-2.4396915435791016,-24.54535675048828,-0.15801730751991272,25.0701904296875,25.6500244140625,-144.6075439453125
14.569999900000001,-2.293645143508911,-22.54380226135254,2.2697031497955322,-60.943603515625,73.6541748046875,-67.596435546875
14.5899999,-2.2002713680267334,-18.5861873626709,2.738966703414917,36.0260009765625,-68.1915283203125,48.4619140625
14.6099999,-2.1787235736846924,-14.077905654907227,2.454056739807129,59.9212646484375,-51.94091796875,-10.6658935546875
14.629999900000001,-2.0590133666992188,-10.864887237548828,1.4221558570861816,-25.3143310546875,62.1795654296875,-65.9637451171875
14.649999900000001,-1.8962076902389526,-8.956708908081055,0.20350714027881622,-25.238037109375,53.5736083984375,-12.664794921875
14.6699999,-1.7932571172714233,-7.848193168640137,-0.21308395266532898,8.11767578125,6.3323974609375,10.9100341796875
14.6899999,-1.7070658206939697,-7.532158374786377,0.05027823522686958,8.1024169921875,2.410888671875,-21.8048095703125
14.709999900000001,-1.6160861253738403,-7.881711959838867,0.5291185975074768,-3.9520263671875,11.016845703125,-33.0657958984375
14.729999900000001,-1.5849615335464478,-8.2312650680542,0.8571242094039917,4.1656494140625,3.3416748046875,-21.1639404296875
14.7499999,-1.5682021379470825,-8.547300338745117,1.1037269830703735,21.1334228515625,-2.13623046875,2.4566650390625
14.7699999,-1.5418659448623657,-8.899248123168945,1.1659762859344482,15.838623046875,-1.7547607421875,11.2457275390625
14.789999900000002,-1.522712230682373,-9.346963882446289,0.9983820915222168,8.5296630859375,-2.9754638671875,-3.2501220703125
14.809999900000001,-1.460463047027588,-9.916783332824707,0.7110779285430908,16.0675048828125,3.387451171875,-9.2315673828125
14.8299999,-1.455674648284912,-10.165780067443848,0.5339069962501526,10.0555419921875,17.486572265625,-13.9617919921875
14.8499999,-1.4293384552001953,-10.283096313476562,0.2944868206977844,9.8876953125,7.5531005859375,-5.55419921875
14.8699999,-1.403002142906189,-10.204087257385254,0.4429273009300232,-4.82177734375,11.322021484375,2.471923828125
14.889999900000001,-1.3910311460494995,-10.022128105163574,0.6631938815116882,-5.37109375,8.758544921875,-7.293701171875
14.9099999,-1.335964560508728,-10.105925559997559,0.8834604024887085,9.33837890625,-11.04736328125,1.007080078125
14.9299999,-1.2976573705673218,-10.14902114868164,0.9888052940368652,4.2877197265625,-14.007568359375,-4.5928955078125
14.9499999,-1.3000515699386597,-10.002974510192871,0.7733271718025208,-0.8087158203125,-5.889892578125,-22.6593017578125
14.969999900000001,-1.2641384601593018,-9.8784761428833,0.5219359993934631,-10.5743408203125,8.8043212890625,-3.9215087890625
14.9899999,-1.2689268589019775,-9.57441234588623,0.2968810200691223,-9.4146728515625,6.256103515625,8.4381103515625
15.0099999,-1.2497732639312744,-9.35654067993164,0.11252748221158981,5.0048828125,-8.758544921875,1.4190673828125
15.0299999,-1.2282254695892334,-9.299078941345215,0.043095629662275314,-9.5062255859375,-1.9989013671875,-2.1820068359375
15.049999900000001,-1.216254472732544,-9.313444137573242,0.07422025501728058,-28.2745361328125,14.556884765625,-1.1138916015625
15.069999900000001,-1.2521674633026123,-9.229647636413574,-0.05027823522686958,-4.5013427734375,0.67138671875,2.349853515625
15.0899999,-1.2761094570159912,-9.186552047729492,-0.21787235140800476,15.9149169921875,-5.8746337890625,14.09912109375
15.1099999,-1.2330138683319092,-9.193734169006348,-0.5961562395095825,-8.85009765625,25.054931640625,12.1612548828125
15.129999900000001,-1.1755530834197998,-9.454702377319336,-1.0797849893569946,25.57373046875,3.753662109375,15.289306640625
15.149999900000001,-1.1635819673538208,-10.053253173828125,-1.9177556037902832,36.6668701171875,13.7786865234375,23.37646484375
15.1699999,-1.0749965906143188,-11.480196952819824,-2.535459518432617,6.378173828125,98.419189453125,25.5889892578125
15.1899999,-1.0797849893569946,-13.697227478027344,-2.784456491470337,-5.8135986328125,133.514404296875,-21.881103515625
15.209999900000001,-1.1300631761550903,-16.88630485534668,-2.477998733520508,33.172607421875,78.155517578125,-90.5303955078125
15.229999900000001,-1.3910311460494995,-20.149600982666016,-1.3910311460494995,52.703857421875,89.0655517578125,-173.7060546875
15.2499999,-2.0805611610412598,-22.069751739501953,0.5985504388809204,-7.7362060546875,172.4700927734375,-283.0810546875
15.2699999,-2.8802247047424316,-22.10805892944336,3.514688014984131,-61.676025390625,183.7005615234375,-314.51416015625
15.289999900000002,-3.663128614425659,-19.838356018066406,7.264008045196533,3.9825439453125,65.7806396484375,-281.158447265625
15.309999900000001,-4.2329487800598145,-15.88074016571045,10.74996566772461,91.9952392578125,-68.6187744140625,-256.195068359375
15.3299999,-4.405331134796143,-11.535264015197754,12.701239585876465,79.7119140625,-128.0517578125,-220.6268310546875
15.3499999,-4.347870349884033,-7.493851184844971,12.643778800964355,32.5775146484375,-132.537841796875,-188.4307861328125
15.3699999,-4.235342979431152,-3.6607344150543213,11.216835021972656,29.35791015625,-144.2413330078125,-191.7724609375
15.389999900000001,-4.050989151000977,-0.15083470940589905,9.346963882446289,25.970458984375,-195.49560546875,-142.39501953125
15.4099999,-4.120420932769775,3.8355112075805664,7.084442615509033,68.5577392578125,-291.9158935546875,-66.2994384765625
15.4299999,-4.474762916564941,8.248024940490723,4.086902141571045,107.421875,-346.7559814453125,45.0439453125
15.4499999,-5.30076265335083,12.138602256774902,0.5626373887062073,93.2159423828125,-285.2020263671875,239.2120361328125
15.469999900000001,-6.868964672088623,13.275848388671875,-2.980781078338623,14.862060546875,-221.1761474609375,445.3887939453125
15.4899999,-8.336610794067383,9.93593692779541,-7.082048416137695,79.8187255859375,-296.9512939453125,499.9847412109375
15.5099999,-9.497797966003418,2.6455929279327393,-11.350910186767578,182.403564453125,-316.22314453125,437.4542236328125
15.5299999,-10.038887977600098,-6.938396453857422,-15.58864688873291,192.6116943359375,-32.65380859375,269.04296875
15.549999900000001,-9.550470352172852,-16.134525299072266,-18.145654678344727,22.3846435546875,276.0467529296875,260.7269287109375
15.569999900000001,-8.523358345031738,-23.010671615600586,-17.9732723236084,19.0582275390625,296.478271484375,215.7440185546875
15.5899999,-7.33583402633667,-27.09518051147461,-14.901511192321777,69.3511962890625,182.0526123046875,78.5064697265625
15.6099999,-6.3973069190979,-28.100746154785156,-10.72841739654541,112.884521484375,173.7823486328125,-47.54638671875
15.629999900000001,-5.6910176277160645,-27.28911018371582,-6.1052141189575195,32.7606201171875,319.610595703125,-20.5841064453125
15.649999900000001,-5.4228668212890625,-24.890121459960938,-2.0685901641845703,-18.8751220703125,332.51953125,-33.233642578125
15.6699999,-5.264849662780762,-22.670696258544922,1.5753847360610962,18.096923828125,184.8602294921875,-123.2147216796875
15.6899999,-5.147533416748047,-20.942081451416016,4.656722068786621,16.29638671875,120.849609375,-209.1217041015625
15.709999900000001,-5.073313236236572,-19.029115676879883,6.481103897094727,13.4735107421875,150.360107421875,-275.115966796875
15.729999900000001,-5.147533416748047,-16.381128311157227,7.462726593017578,10.07080078125,172.0428466796875,-283.111572265625
15.7499999,-5.018246650695801,-13.055582046508789,8.427590370178223,-25.726318359375,135.0860595703125,-222.320556640625
15.7699999,-4.72376012802124,-9.263166427612305,9.871294021606445,-62.7899169921875,51.8035888671875,-186.676025390625
15.789999900000002,-4.1611223220825195,-5.872976779937744,11.255142211914062,-15.533447265625,-56.7779541015625,-159.1949462890625
15.809999900000001,-3.4524388313293457,-3.1890766620635986,12.069170951843262,48.9501953125,-133.9263916015625,-97.930908203125
15.8299999,-2.937685489654541,-0.42616790533065796,11.91354751586914,43.6859130859375,-169.25048828125,-77.20947265625
15.8499999,-2.9735984802246094,2.5905263423919678,10.237606048583984,40.10009765625,-242.3553466796875,-19.3023681640625
15.869999900000002,-3.44765043258667,4.347870349884033,6.543353080749512,75.5462646484375,-328.0181884765625,186.859130859375
15.889999900000001,-3.667917013168335,3.8283286094665527,0.6655880808830261,106.87255859375,-306.9305419921875,354.5379638671875
15.9099999,-4.000710964202881,1.1204863786697388,-6.323086738586426,38.299560546875,-107.91015625,209.1217041015625
15.9299999,-3.406949043273926,-4.4292731285095215,-12.090718269348145,-15.2435302734375,138.6871337890625,135.7574462890625
15.9499999,-2.473210334777832,-9.794678688049316,-14.839262008666992,27.252197265625,174.6826171875,149.9786376953125
15.969999900000001,-1.6400281190872192,-13.419500350952148,-13.354857444763184,3.9520263671875,127.6092529296875,54.443359375
15.9899999,-0.9313444495201111,-15.205574989318848,-8.786720275878906,-48.0499267578125,89.324951171875,52.0477294921875
16.0099999,-0.7134721279144287,-15.334861755371094,-3.4596214294433594,-19.8822021484375,21.42333984375,96.527099609375
16.0299999,-0.8355764150619507,-15.243882179260254,0.3926490843296051,42.7703857421875,-52.06298828125,100.1739501953125
16.0499999,-1.1109095811843872,-15.502455711364746,2.10210919380188,24.566650390625,-14.95361328125,30.57861328125
16.0699999,-1.4460978507995605,-15.447389602661133,2.161964178085327,-29.84619140625,79.254150390625,-70.648193359375
16.089999900000002,-1.6496049165725708,-14.788984298706055,1.9991583824157715,-65.032958984375,86.5020751953125,-59.0667724609375
16.109999900000002,-1.86508309841156,-12.959814071655273,1.9297266006469727,0.0762939453125,-24.1546630859375,2.9144287109375
16.1299999,-2.0039467811584473,-11.099518775939941,1.414973258972168,82.7178955078125,-100.1739501953125,35.2630615234375
16.1499999,-1.987187385559082,-10.158597946166992,0.6248866319656372,10.6048583984375,9.307861328125,23.6053466796875
16.1699999,-1.9752163887023926,-9.696516990661621,-0.4141969084739685,-68.5577392578125,101.74560546875,-38.8031005859375
16.1899999,-1.8626888990402222,-9.751583099365234,-0.7733271718025208,-21.331787109375,39.886474609375,-26.2298583984375
16.2099999,-1.7812861204147339,-9.6989107131958,-0.3208230137825012,35.400390625,-33.447265625,19.927978515625
16.2299999,-1.7190368175506592,-9.603142738342285,0.2082955539226532,26.3214111328125,-26.214599609375,7.2021484375
16.249999900000002,-1.6759412288665771,-9.66539192199707,0.30885201692581177,-6.591796875,12.87841796875,-25.543212890625
16.269999900000002,-1.6376339197158813,-9.75397777557373,0.002394201699644327,-3.4637451171875,12.1612548828125,-26.9012451171875
16.2899999,-1.599326729774475,-9.667786598205566,-0.2298433631658554,18.9361572265625,-5.9967041015625,-5.218505859375
16.3099999,-1.5682021379470825,-9.41639518737793,-0.22026655077934265,27.099609375,-3.7384033203125,0.701904296875
16.3299999,-1.5179238319396973,-9.253589630126953,-0.1604115068912506,17.1661376953125,-6.16455078125,-3.1585693359375
16.3499999,-1.45806884765625,-9.277531623840332,-0.1843535304069519,11.04736328125,-18.3563232421875,-4.82177734375
16.3699999,-1.4389152526855469,-9.399636268615723,-0.40701428055763245,18.341064453125,-18.798828125,-4.2572021484375
16.3899999,-1.4221558570861816,-9.583989143371582,-0.5554547905921936,5.7830810546875,8.6822509765625,-1.9989013671875
16.4099999,-1.4269442558288574,-9.696516990661621,-0.6607996821403503,-10.2081298828125,14.9078369140625,-3.7841796875
16.429999900000002,-1.414973258972168,-9.763554573059082,-0.5530605912208557,-14.6636962890625,-6.8817138671875,-2.3956298828125
16.4499999,-1.381454348564148,-9.835380554199219,-0.40462008118629456,-6.1492919921875,-14.46533203125,1.068115234375
16.4699999,-1.335964560508728,-9.914389610290527,-0.4189853072166443,0.6866455078125,-4.0435791015625,-1.3427734375
16.4899999,-1.290474772453308,-9.99339771270752,-0.47165772318840027,-12.6495361328125,13.97705078125,-7.1563720703125
16.5099999,-1.2713210582733154,-10.017339706420898,-0.5506663918495178,-17.181396484375,7.1258544921875,-3.509521484375
16.5299999,-1.256955862045288,-10.101137161254883,-0.6224924325942993,-0.91552734375,-8.8043212890625,5.1116943359375
16.5499999,-1.2617442607879639,-10.113107681274414,-0.545877993106842,-2.2430419921875,4.2724609375,-0.30517578125
16.5699999,-1.256955862045288,-10.15141487121582,-0.6105214357376099,-5.6915283203125,9.58251953125,-10.3607177734375
16.589999900000002,-1.2545616626739502,-10.08198356628418,-0.5961562395095825,-2.62451171875,6.072998046875,-6.2408447265625
16.609999900000002,-1.2521674633026123,-9.950302124023438,-0.49320554733276367,2.0599365234375,3.6163330078125,2.8228759765625
16.6299999,-1.2497732639312744,-9.837775230407715,-0.4692635238170624,8.026123046875,-1.6021728515625,6.9732666015625
16.6499999,-1.2330138683319092,-9.821015357971191,-0.35673606395721436,6.5460205078125,6.8359375,-0.9918212890625
16.6699999,-1.216254472732544,-9.871294021606445,-0.28730419278144836,4.058837890625,9.429931640625,-5.279541015625
16.6899999,-1.1994950771331787,-9.938331604003906,-0.24420857429504395,11.0321044921875,-3.173828125,-1.556396484375
16.7099999,-1.2066776752471924,-9.95748519897461,-0.24660277366638184,13.336181640625,-3.7078857421875,1.0986328125
16.7299999,-1.2210428714752197,-9.979032516479492,-0.2561795711517334,7.4310302734375,7.049560546875,-1.190185546875
16.749999900000002,-1.2617442607879639,-9.93593692779541,-0.33758243918418884,-0.7171630859375,7.5531005859375,-5.4473876953125
16.769999900000002,-1.2737152576446533,-9.928754806518555,-0.4405331015586853,2.227783203125,-0.946044921875,-0.48828125
16.7899999,-1.2713210582733154,-9.871294021606445,-0.2992752194404602,-2.25830078125,13.00048828125,3.23486328125
16.8099999,-1.2617442607879639,-9.823410034179688,-0.3232172429561615,1.983642578125,4.1046142578125,-0.6866455078125
16.8299999,-1.2258312702178955,-9.864110946655273,-0.28730419278144836,3.0517578125,-3.4942626953125,3.570556640625
16.8499999,-1.2114660739898682,-9.890447616577148,-0.1388636976480484,-12.7716064453125,11.8865966796875,1.0986328125
16.8699999,-1.2066776752471924,-9.93593692779541,-0.181959331035614,-6.134033203125,1.2969970703125,0.4119873046875
16.8899999,-1.2042834758758545,-9.983820915222168,-0.1388636976480484,3.8299560546875,-2.3040771484375,-0.5340576171875
16.9099999,-1.2114660739898682,-9.93593692779541,-0.1149216815829277,-3.326416015625,7.62939453125,-4.058837890625
16.929999900000002,-1.2042834758758545,-9.916783332824707,-0.1628057211637497,3.692626953125,4.0435791015625,-1.220703125
16.9499999,-1.1994950771331787,-9.828198432922363,-0.12689268589019775,7.4005126953125,1.8157958984375,-1.8463134765625
16.9699999,-1.1827356815338135,-9.744400978088379,-0.038307227194309235,2.410888671875,-0.244140625,-3.631591796875
16.9899999,-1.173158884048462,-9.615114212036133,0.023942016065120697,4.7760009765625,-5.2642822265625,-2.471923828125
17.0099999,-1.1516109704971313,-9.576807022094727,0.06703764945268631,10.1470947265625,-6.683349609375,4.180908203125
17.0299999,-1.1516109704971313,-9.531316757202148,-0.026336219161748886,14.95361328125,-5.584716796875,4.608154296875
17.0499999,-1.1827356815338135,-9.526528358459473,-0.27054479718208313,17.608642578125,-2.5634765625,0.732421875
17.0699999,-1.2066776752471924,-9.610325813293457,-0.35434186458587646,-2.899169921875,12.2222900390625,7.293701171875
17.089999900000002,-1.259350061416626,-9.615114212036133,-0.3208230137825012,-12.3291015625,11.932373046875,6.3629150390625
17.109999900000002,-1.2713210582733154,-9.81143856048584,-0.24420857429504395,8.6822509765625,-9.0179443359375,10.406494140625
17.1299999,-1.2737152576446533,-10.007762908935547,-0.06703764945268631,4.8980712890625,-3.6468505859375,6.103515625
17.1499999,-1.2761094570159912,-10.211270332336426,0.040701430290937424,-10.6048583984375,9.9639892578125,-3.1890869140625
17.1699999,-1.278503656387329,-10.402806282043457,0.12689268589019775,-8.575439453125,3.8299560546875,1.312255859375
17.1899999,-1.3000515699386597,-10.448296546936035,0.24181437492370605,1.2054443359375,-8.0413818359375,-0.1220703125
17.2099999,-1.3048399686813354,-10.503362655639648,0.3471592366695404,4.33349609375,-8.72802734375,-3.509521484375
17.2299999,-1.2880805730819702,-10.505757331848145,0.40701428055763245,1.8768310546875,-4.82177734375,-10.4217529296875
17.249999900000002,-1.259350061416626,-10.369287490844727,0.4596867263317108,8.148193359375,-10.1165771484375,-18.8446044921875
17.269999900000002,-1.194706678390503,-9.909601211547852,0.49559974670410156,25.4669189453125,-25.543212890625,-20.965576171875
17.2899999,-1.1540051698684692,-8.829815864562988,0.07661445438861847,41.656494140625,-45.3643798828125,-15.4266357421875
17.3099999,-1.2713210582733154,-7.242460250854492,-1.5969325304031372,58.41064453125,-60.24169921875,17.3187255859375
17.3299999,-1.3886369466781616,-6.2632317543029785,-3.9001545906066895,24.4140625,29.052734375,105.5450439453125
17.3499999,-1.5729905366897583,-6.174646377563477,-5.504269599914551,-9.46044921875,186.1114501953125,136.8255615234375
17.3699999,-1.8100165128707886,-7.625532627105713,-6.200982570648193,94.635009765625,152.4505615234375,88.6077880859375
17.3899999,-2.0183119773864746,-10.714052200317383,-5.343858242034912,191.8182373046875,82.733154296875,71.1669921875
17.409999900000003,-2.4612393379211426,-14.563928604125977,-3.0837318897247314,103.057861328125,158.905029296875,11.9171142578125
17.429999900000002,-3.064578056335449,-18.780118942260742,-0.6129156351089478,33.50830078125,188.9190673828125,-85.2508544921875
17.4499999,-3.907337188720703,-21.94046401977539,2.3558945655822754,46.0357666015625,134.5062255859375,-211.2274169921875
17.4699999,-4.774038314819336,-23.21657371520996,5.896918773651123,7.7972412109375,109.6649169921875,-296.08154296875
17.4899999,-5.518634796142578,-21.914127349853516,9.20091724395752,-12.6495361328125,67.6116943359375,-311.614990234375
17.5099999,-5.896918773651123,-18.70829200744629,11.683704376220703,34.0576171875,-15.2740478515625,-277.496337890625
17.5299999,-5.901707172393799,-14.417882919311523,12.677297592163086,59.38720703125,-90.4083251953125,-265.5792236328125
17.5499999,-5.568912982940674,-10.110713958740234,11.915942192077637,48.858642578125,-126.495361328125,-271.0723876953125
17.5699999,-5.0014872550964355,-6.141127586364746,9.749189376831055,34.881591796875,-126.9683837890625,-237.97607421875
17.589999900000002,-4.3861775398254395,-2.5067291259765625,7.024587631225586,42.5567626953125,-124.2218017578125,-180.1910400390625
17.609999900000002,-3.641580820083618,0.6943184733390808,4.795586109161377,52.6580810546875,-134.674072265625,-109.283447265625
17.6299999,-2.980781078338623,3.5721490383148193,3.4141316413879395,68.3441162109375,-170.2423095703125,-35.7818603515625
17.6499999,-2.5474305152893066,6.150704383850098,2.87064790725708,140.777587890625,-220.306396484375,39.5355224609375
17.6699999,-2.7940332889556885,8.377311706542969,2.2218191623687744,270.660400390625,-258.8958740234375,151.4434814453125
17.6899999,-4.039018154144287,9.016563415527344,0.3447650372982025,333.2061767578125,-278.0303955078125,337.5091552734375
17.7099999,-5.849034786224365,6.593631267547607,-3.5697548389434814,186.614990234375,-247.100830078125,499.9847412109375
17.7299999,-7.486668586730957,0.7158663272857666,-9.282320022583008,94.940185546875,-85.174560546875,499.9847412109375
17.749999900000002,-8.87291145324707,-6.794744491577148,-13.828908920288086,61.065673828125,303.40576171875,376.6021728515625
17.769999900000002,-9.490615844726562,-14.652514457702637,-15.00925064086914,37.628173828125,496.307373046875,271.942138671875
17.7899999,-9.299078941345215,-21.775264739990234,-12.322956085205078,22.369384765625,309.08203125,339.35546875
17.8099999,-8.87051773071289,-26.97068214416504,-6.94079065322876,51.6204833984375,142.4713134765625,173.7060546875
17.8299999,-8.219294548034668,-29.975404739379883,-0.3902548849582672,-30.6854248046875,247.7569580078125,-125
17.8499999,-7.443572998046875,-31.306581497192383,4.970362663269043,-96.0235595703125,254.6234130859375,-172.30224609375
17.8699999,-7.127538681030273,-30.32256507873535,8.44195556640625,7.9803466796875,74.798583984375,-164.3524169921875
17.8899999,-7.295132637023926,-27.629087448120117,10.488997459411621,46.478271484375,57.098388671875,-296.722412109375
17.909999900000003,-7.675810813903809,-24.207773208618164,10.90798282623291,-43.365478515625,135.284423828125,-423.3245849609375
17.929999900000002,-7.9631147384643555,-19.68752098083496,10.5344877243042,-93.292236328125,134.033203125,-410.675048828125
17.9499999,-8.022970199584961,-13.802573204040527,10.754754066467285,-92.0257568359375,71.563720703125,-373.4130859375
17.9699999,-7.527369976043701,-7.371747016906738,11.54244613647461,-74.1729736328125,3.0975341796875,-293.9605712890625
17.9899999,-6.476315498352051,-1.8100165128707886,12.176909446716309,1.2054443359375,-106.658935546875,-141.7236328125
18.0099999,-5.2265424728393555,2.322375535964966,11.872846603393555,57.6171875,-208.4503173828125,-31.2042236328125
18.0299999,-4.036623954772949,5.125985622406006,10.47942066192627,118.499755859375,-236.4349365234375,-9.2926025390625
18.0499999,-3.426102638244629,6.8809356689453125,7.91283655166626,159.72900390625,-245.086669921875,78.5064697265625
18.0699999,-3.756502389907837,7.422025203704834,4.381389141082764,142.9290771484375,-278.0914306640625,253.6163330078125
18.089999900000002,-4.618414878845215,5.5545477867126465,0.4620809257030487,106.4605712890625,-257.9193115234375,443.90869140625
18.109999900000002,-5.679046630859375,0.45250412821769714,-4.1395745277404785,49.957275390625,-210.296630859375,446.3958740234375
18.1299999,-5.851428985595703,-8.109161376953125,-8.951920509338379,60.1043701171875,-125.0457763671875,302.2918701171875
18.1499999,-5.276820659637451,-16.65167236328125,-12.169727325439453,26.67236328125,138.6260986328125,51.6357421875
18.1699999,-4.137180328369141,-22.11284637451172,-12.684480667114258,-50.78125,294.4183349609375,-139.892578125
18.1899999,-2.9759926795959473,-22.941240310668945,-9.402029991149902,-84.9761962890625,229.400634765625,-79.89501953125
18.2099999,-2.188300371170044,-20.04904556274414,-3.7493197917938232,-1.190185546875,59.3414306640625,42.816162109375
18.2299999,-1.7286136150360107,-15.995661735534668,1.6735470294952393,54.38232421875,-58.013916015625,63.2781982421875
18.249999900000002,-1.5059528350830078,-12.88559341430664,5.018246650695801,-4.302978515625,-19.71435546875,-1.77001953125
18.269999900000002,-1.3742717504501343,-11.496956825256348,5.8203043937683105,-45.623779296875,47.0733642578125,-24.5208740234375
18.2899999,-1.414973258972168,-10.740388870239258,5.082890033721924,-18.2037353515625,42.8619384765625,-36.3006591796875
18.3099999,-1.5275006294250488,-10.098742485046387,4.125209331512451,11.932373046875,13.153076171875,-36.865234375
18.3299999,-1.6328455209732056,-9.569623947143555,3.3854012489318848,-5.4168701171875,-2.044677734375,5.4931640625
18.3499999,-1.6831238269805908,-9.244012832641602,2.410961151123047,-1.953125,-21.8963623046875,19.561767578125
18.3699999,-1.6615760326385498,-9.248801231384277,1.501164436340332,0.3814697265625,-1.4801025390625,-5.79833984375
18.3899999,-1.5729905366897583,-9.490615844726562,0.8092401623725891,-17.1051025390625,33.8134765625,-25.6195068359375
18.409999900000003,-1.4724340438842773,-9.679757118225098,0.569819986820221,-6.8206787109375,20.4620361328125,-9.1552734375
18.429999900000002,-1.4221558570861816,-9.555258750915527,0.8547300100326538,18.98193359375,-14.0838623046875,-2.471923828125
18.4499999,-1.3910311460494995,-9.433155059814453,1.3455413579940796,13.85498046875,-26.458740234375,0.2288818359375
18.4699999,-1.3479355573654175,-9.567230224609375,1.4939818382263184,13.336181640625,-25.8941650390625,0.701904296875
18.4899999,-1.3120225667953491,-9.828198432922363,1.2234370708465576,25.8636474609375,-14.892578125,-14.83154296875
18.5099999,-1.3000515699386597,-9.976638793945312,0.8858546018600464,12.2222900390625,7.720947265625,-33.3404541015625
18.5299999,-1.3120225667953491,-9.854534149169922,0.6919242739677429,-4.0740966796875,12.6190185546875,-22.1099853515625
18.5499999,-1.3311761617660522,-9.564835548400879,0.7422025203704834,-2.9144287109375,-2.74658203125,7.14111328125
18.5699999,-1.3335703611373901,-9.344569206237793,0.849941611289978,9.33837890625,-10.4522705078125,13.519287109375
18.589999900000002,-1.2952631711959839,-9.346963882446289,0.828393816947937,7.568359375,5.5389404296875,-4.21142578125
18.609999900000002,-1.2473790645599365,-9.423578262329102,0.828393816947937,-13.8397216796875,29.1595458984375,-12.5732421875
18.6299999,-1.2306196689605713,-9.387664794921875,0.9864110946655273,-20.3704833984375,25.87890625,1.4495849609375
18.6499999,-1.216254472732544,-9.385271072387695,1.3287819623947144,-4.5166015625,-1.007080078125,23.8189697265625
18.6699999,-1.2234370708465576,-9.44991397857666,1.5897499322891235,7.1563720703125,-16.693115234375,15.0299072265625
18.6899999,-1.2186486721038818,-9.691728591918945,1.5658079385757446,0.732421875,-4.3792724609375,-4.5318603515625
18.7099999,-1.235408067703247,-9.854534149169922,1.338358759880066,-9.063720703125,16.2353515625,-6.866455078125
18.7299999,-1.2521674633026123,-9.938331604003906,1.0462661981582642,-0.9002685546875,11.993408203125,9.4757080078125
18.749999900000002,-1.256955862045288,-9.895236015319824,0.9385270476341248,6.9580078125,2.5634765625,14.09912109375
18.769999900000002,-1.2689268589019775,-9.818621635437012,0.9457096457481384,3.7689208984375,2.7618408203125,-0.8697509765625
18.7899999,-1.2617442607879639,-9.871294021606445,0.9409212470054626,4.6234130859375,3.875732421875,1.52587890625
18.8099999,-1.2641384601593018,-10.007762908935547,0.950498104095459,7.5531005859375,7.3699951171875,7.5531005859375
18.8299999,-1.2976573705673218,-10.02452278137207,1.0031704902648926,13.9923095703125,9.368896484375,-7.3394775390625
18.8499999,-1.3192051649093628,-10.005369186401367,1.2210428714752197,14.495849609375,9.3994140625,-13.1683349609375
18.8699999,-1.3335703611373901,-9.928754806518555,1.5059528350830078,18.3258056640625,-1.7242431640625,3.11279296875
18.8899999,-1.357512354850769,-9.72285270690918,1.6831238269805908,33.4625244140625,-13.4735107421875,6.9427490234375
18.909999900000003,-1.359906554222107,-9.624691009521484,1.6950948238372803,28.2440185546875,-4.9285888671875,6.3934326171875
18.929999900000002,-1.3431471586227417,-9.679757118225098,1.434126853942871,12.14599609375,6.89697265625,9.765625
18.9499999,-1.3096283674240112,-9.821015357971191,1.048660397529602,12.054443359375,12.725830078125,7.354736328125
18.9699999,-1.2713210582733154,-10.038887977600098,0.646434485912323,21.728515625,20.294189453125,4.4097900390625
18.9899999,-1.2521674633026123,-10.400412559509277,-0.181959331035614,57.373046875,17.9595947265625,5.523681640625
19.0099999,-1.2258312702178955,-11.288661003112793,-0.9959878921508789,53.52783203125,63.720703125,12.847900390625
19.0299999,-1.194706678390503,-13.105859756469727,-1.6041151285171509,6.9122314453125,123.9013671875,-7.26318359375
19.0499999,-1.2617442607879639,-15.689203262329102,-1.9321208000183105,90.2557373046875,116.14990234375,-85.8612060546875
19.0699999,-1.5729905366897583,-18.70589828491211,-1.886630892753601,222.71728515625,106.8878173828125,-193.572998046875
19.089999900000002,-2.3295583724975586,-21.306001663208008,-1.0606313943862915,193.5577392578125,172.210693359375,-283.538818359375
19.109999900000002,-3.5625722408294678,-22.47197723388672,1.7070658206939697,-51.513671875,274.444580078125,-382.568359375
19.1299999,-5.07570743560791,-22.005107879638672,6.8378400802612305,-211.029052734375,233.001708984375,-443.2373046875
19.1499999,-6.45476770401001,-19.44091796875,12.701239585876465,26.4129638671875,-47.0428466796875,-428.558349609375
19.1699999,-7.522581577301025,-14.441824913024902,17.209522247314453,187.164306640625,-243.896484375,-427.1697998046875
19.1899999,-7.675810813903809,-8.465897560119629,18.128894805908203,92.6361083984375,-203.826904296875,-301.8341064453125
19.2099999,-7.024587631225586,-3.2106244564056396,15.600618362426758,-24.200439453125,-148.193359375,-110.3515625
19.2299999,-6.052541732788086,1.2114660739898682,11.350910186767578,7.598876953125,-177.825927734375,-144.134521484375
19.249999900000002,-5.231330871582031,4.960785865783691,7.319074630737305,104.4158935546875,-220.5963134765625,-231.5826416015625
19.269999900000002,-5.293580055236816,9.315838813781738,3.847482204437256,195.587158203125,-238.1134033203125,-104.9652099609375
19.2899999,-6.327875137329102,14.058752059936523,1.0654197931289673,260.2386474609375,-219.879150390625,233.001708984375
19.3099999,-8.245630264282227,17.958906173706055,-0.8188169598579407,229.248046875,-181.640625,472.7783203125
19.3299999,-11.362881660461426,19.043479919433594,-1.4844050407409668,224.853515625,-150.2227783203125,499.9847412109375
19.3499999,-16.41464614868164,15.231911659240723,-2.099714994430542,272.247314453125,-204.5135498046875,499.9847412109375
19.3699999,-22.986730575561523,4.163516521453857,-4.120420932769775,310.11962890625,-267.1661376953125,499.9847412109375
19.3899999,-27.291505813598633,-13.64455509185791,-8.398859977722168,73.516845703125,-127.5177001953125,499.9847412109375
19.409999900000003,-29.441497802734375,-32.07991027832031,-12.234370231628418,248.6419677734375,357.2235107421875,214.78271484375
19.429999900000002,-27.516559600830078,-43.05732345581055,-14.67406177520752,358.7493896484375,499.9847412109375,-500
19.4499999,-23.719356536865234,-41.67826461791992,-12.124237060546875,182.3272705078125,499.9847412109375,-465.423583984375
19.4699999,-20.092140197753906,-33.10941696166992,-3.56017804145813,-350.433349609375,484.466552734375,293.8232421875
19.4899999,-16.553510665893555,-25.39769172668457,4.920084476470947,-137.14599609375,86.42578125,499.9847412109375
19.5099999,-14.144943237304688,-23.001094818115234,11.583148002624512,235.748291015625,-157.4249267578125,-180.389404296875
19.5299999,-12.619836807250977,-24.54775047302246,14.753070831298828,18.341064453125,80.322265625,-500
19.5499999,-11.892000198364258,-24.59324073791504,14.623784065246582,-176.26953125,265.777587890625,-500
19.5699999,-11.96861457824707,-20.28607177734375,14.513650894165039,-147.3236083984375,127.44140625,-342.6361083984375
19.589999900000002,-11.647790908813477,-13.357251167297363,15.205574989318848,63.385009765625,-105.4534912109375,-384.307861328125
19.609999900000002,-10.24000072479248,-6.514622688293457,15.64610767364502,170.0897216796875,-215.911865234375,-344.6044921875
19.6299999,-8.413225173950195,-0.20350714027881622,14.149731636047363,90.75927734375,-246.03271484375,-198.54736328125
19.6499999,-6.45476770401001,5.097255229949951,10.110713958740234,39.6270751953125,-270.3399658203125,-57.4188232421875
19.6699999,-4.6734819412231445,8.281543731689453,4.881777286529541,39.7796630859375,-213.6077880859375,88.1195068359375
19.6899999,-3.205836057662964,8.506598472595215,-0.31603461503982544,13.5345458984375,-111.0382080078125,217.3614501953125
19.7099999,-2.073378562927246,5.34625244140625,-4.572925090789795,60.9283447265625,-84.4268798828125,264.7857666015625
19.7299999,-1.3120225667953491,-0.5578489899635315,-7.24485445022583,62.6220703125,-53.3294677734375,199.3560791015625
19.749999900000002,-0.6320692300796509,-7.886500358581543,-8.44195556640625,-4.1961669921875,26.153564453125,98.9837646484375
19.769999900000002,-0.13407529890537262,-13.594277381896973,-7.745242595672607,-58.10546875,147.7813720703125,-12.4969482421875
19.7899999,0.1604115068912506,-16.213533401489258,-5.035006046295166,-71.83837890625,184.173583984375,-63.3087158203125
19.8099999,0.33518823981285095,-16.21592903137207,-1.036689281463623,-13.4429931640625,57.12890625,43.0450439453125
19.8299999,0.37828385829925537,-14.834473609924316,2.5737667083740234,95.5963134765625,-70.9991455078125,100.2197265625
19.8499999,0.28730419278144836,-13.297396659851074,4.577713489532471,65.826416015625,-40.0390625,-0.48828125
19.8699999,0.22266076505184174,-12.437877655029297,5.0014872550964355,-53.6346435546875,66.95556640625,-53.0242919921875
19.8899999,0.1388636976480484,-11.654973983764648,4.414907932281494,-57.952880859375,58.04443359375,-6.500244140625
19.909999900000003,0.002394201699644327,-10.6925048828125,3.691859006881714,33.99658203125,-20.32470703125,16.204833984375
19.929999900000002,-0.09576806426048279,-9.928754806518555,3.3039982318878174,18.98193359375,-13.0462646484375,8.6212158203125
19.9499999,-0.1867477297782898,-9.560047149658203,2.8826189041137695,-54.26025390625,18.9208984375,-1.800537109375
19.9699999,-0.22266076505184174,-9.615114212036133,2.3942017555236816,-43.731689453125,-1.220703125,4.6539306640625
19.9899999,-0.28730419278144836,-9.600749015808105,2.0183119773864746,7.0343017578125,-22.15576171875,-5.7525634765625
20.0099999,-0.3064578175544739,-9.670180320739746,1.7405846118927002,1.77001953125,-1.0223388671875,-4.1351318359375
20.0299999,-0.28969839215278625,-9.787496566772461,1.4197616577148438,-18.585205078125,17.9595947265625,11.8560791015625
20.0499999,-0.2801215946674347,-9.720458984375,1.2473790645599365,-9.9945068359375,11.65771484375,-3.173828125
