# Time (seconds),Accel_X,Accel_Y,Accel_Z,Gyro_X,Gyro_Y,Gyro_Z
0.0099999,-0.40940847992897034,-0.1843535304069519,-10.47942066192627,-15.594482421875,-3.7994384765625,12.786865234375
0.029999900000000003,-0.3998316824436188,-0.05506663769483566,-10.342951774597168,-10.19287109375,-3.8604736328125,10.55908203125
0.0499999,-0.3687070608139038,0.05267243832349777,-10.187328338623047,-9.7503662109375,-3.84521484375,5.462646484375
0.0699999,-0.33039984107017517,0.10773907601833344,-10.007762908935547,-11.627197265625,-0.579833984375,7.1868896484375
0.08999990000000001,-0.3232172429561615,0.1843535304069519,-9.911994934082031,-13.0615234375,-2.38037109375,7.99560546875
0.10999990000000001,-0.3256114423274994,0.2298433631658554,-9.775525093078613,-12.6953125,-1.6326904296875,6.7291259765625
0.1299999,-0.33997663855552673,0.22744916379451752,-9.715670585632324,-10.6048583984375,-2.44140625,5.7830810546875
0.14999990000000002,-0.3663128614425659,0.26336219906806946,-9.6989107131958,-11.4898681640625,-2.716064453125,3.814697265625
0.1699999,-0.38546648621559143,0.3064578175544739,-9.75637149810791,-15.7012939453125,0.335693359375,5.0201416015625
0.1899999,-0.40462008118629456,0.35673606395721436,-9.861717224121094,-14.5416259765625,2.5482177734375,7.5836181640625
0.20999990000000002,-0.4189853072166443,0.38307225704193115,-9.979032516479492,-12.1002197265625,1.28173828125,5.523681640625
0.2299999,-0.42377370595932007,0.3734954595565796,-10.08198356628418,-9.521484375,1.2664794921875,0.6256103515625
0.2499999,-0.4165911078453064,0.31842881441116333,-10.163386344909668,-7.8582763671875,4.608154296875,-0.1068115234375
0.2699999,-0.40222588181495667,0.3256114423274994,-10.194510459899902,-8.48388671875,7.659912109375,-1.77001953125
0.28999990000000003,-0.363918662071228,0.33279404044151306,-10.165780067443848,-7.62939453125,7.9498291015625,-2.2735595703125
0.3099999,-0.30885201692581177,0.3878606855869293,-10.098742485046387,-5.096435546875,6.3323974609375,-4.1656494140625
0.3299999,-0.23942017555236816,0.4357447028160095,-9.981427192687988,-2.8533935546875,7.965087890625,-7.293701171875
0.34999990000000003,-0.18914192914962769,0.569819986820221,-9.895236015319824,-1.6326904296875,8.5296630859375,-9.94873046875
0.3699999,-0.14604631066322327,0.6967126727104187,-9.821015357971191,-1.8768310546875,9.27734375,-6.4239501953125
0.3899999,-0.12449848651885986,0.8355764150619507,-9.746794700622559,-3.3721923828125,10.650634765625,-3.6468505859375
0.40999990000000003,-0.1173158809542656,0.9169792532920837,-9.636661529541016,-4.5013427734375,10.986328125,-5.7373046875
0.4299999,-0.10534487664699554,0.9313444495201111,-9.500192642211914,-6.622314453125,8.8043212890625,-8.270263671875
0.4499999,-0.090979665517807,0.9313444495201111,-9.330204010009766,-8.1787109375,6.1187744140625,-8.60595703125
0.4699999,-0.09576806426048279,1.0103530883789062,-9.196128845214844,-9.429931640625,5.035400390625,-8.3465576171875
0.4899999,-0.08379705995321274,1.1109095811843872,-9.155426979064941,-7.2021484375,-0.152587890625,-2.960205078125
0.5099999,-0.0694318488240242,1.1683704853057861,-9.181763648986816,-5.0048828125,0.213623046875,2.1209716796875
0.5299999,-0.05746084079146385,1.158793568611145,-9.327810287475586,-2.5634765625,-2.13623046875,0.1983642578125
0.5499999,-0.035913024097681046,1.0773907899856567,-9.500192642211914,-2.349853515625,-0.701904296875,-2.7618408203125
0.5699999,-0.023942016065120697,0.9888052940368652,-9.6989107131958,-3.0059814453125,0.6103515625,-0.54931640625
0.5899998999999999,-0.033518824726343155,0.9576807022094727,-9.856928825378418,-1.922607421875,2.288818359375,2.4261474609375
0.6099998999999999,-0.05267243832349777,0.9481038451194763,-9.93593692779541,0.48828125,2.716064453125,4.638671875
0.6299999,-0.06464344263076782,0.9026140570640564,-9.967061996459961,2.5482177734375,-0.457763671875,4.33349609375
0.6499999,-0.07422025501728058,0.8427590131759644,-9.940725326538086,2.0294189453125,-1.0986328125,1.2054443359375
0.6699999,-0.07900865375995636,0.8068459630012512,-9.938331604003906,0.8392333984375,0.2288818359375,-0.67138671875
0.6899999,-0.07422025501728058,0.811634361743927,-9.950302124023438,0.06103515625,0.4425048828125,1.8463134765625
0.7099999,-0.08140286058187485,0.8523358106613159,-9.938331604003906,0.0762939453125,2.349853515625,4.7454833984375
0.7299998999999999,-0.07661445438861847,0.8690952062606812,-9.93593692779541,4.0435791015625,0.0762939453125,4.913330078125
0.7499998999999999,-0.07661445438861847,0.8475474119186401,-9.928754806518555,5.5084228515625,-1.220703125,1.495361328125
0.7699999,-0.07900865375995636,0.8331822156906128,-9.931148529052734,1.220703125,0.7781982421875,-0.732421875
0.7899999,-0.07661445438861847,0.7972691655158997,-9.952696800231934,-0.701904296875,2.899169921875,2.4871826171875
0.8099999,-0.08619125932455063,0.811634361743927,-9.950302124023438,-0.396728515625,3.143310546875,2.38037109375
0.8299999,-0.09816227108240128,0.8164227604866028,-9.909601211547852,-0.4119873046875,2.7008056640625,0.762939453125
0.8499998999999999,-0.09816227108240128,0.7972691655158997,-9.849745750427246,1.9378662109375,1.708984375,1.40380859375
0.8699998999999999,-0.10055647045373917,0.790086567401886,-9.816226959228516,2.99072265625,0.396728515625,0.885009765625
0.8899999,-0.09576806426048279,0.7757213711738586,-9.794678688049316,1.03759765625,3.0670166015625,0.701904296875
0.9099999,-0.08619125932455063,0.7422025203704834,-9.780313491821289,-0.0152587890625,4.058837890625,1.3427734375
0.9299999,-0.07422025501728058,0.7206547260284424,-9.775525093078613,-0.1373291015625,1.922607421875,-0.1983642578125
0.9499999,-0.06703764945268631,0.7230489253997803,-9.734824180603027,0.579833984375,2.01416015625,-2.471923828125
0.9699998999999999,-0.06224924325942993,0.7565677165985107,-9.720458984375,1.5411376953125,2.166748046875,-1.4495849609375
0.9899998999999999,-0.06464344263076782,0.8307880163192749,-9.670180320739746,-0.0762939453125,3.72314453125,0.335693359375
1.0099999,-0.06703764945268631,0.8978256583213806,-9.636661529541016,0.1220703125,2.1820068359375,1.52587890625
1.0299999,-0.06224924325942993,0.9409212470054626,-9.591172218322754,0.2899169921875,-0.0152587890625,0.5035400390625
1.0499999,-0.05746084079146385,0.9792284965515137,-9.557653427124023,0.8392333984375,0.4119873046875,-0.4425048828125
1.0699999,-0.05267243832349777,0.9840168952941895,-9.588777542114258,1.3885498046875,-0.6256103515625,2.1209716796875
1.0899999,-0.05027823522686958,0.9409212470054626,-9.615114212036133,-0.0457763671875,0.4425048828125,4.21142578125
1.1099999,-0.05506663769483566,0.8858546018600464,-9.6989107131958,-0.396728515625,-1.40380859375,0.0152587890625
1.1299999,-0.05746084079146385,0.8044517636299133,-9.744400978088379,-1.2054443359375,-0.3814697265625,-1.8768310546875
1.1499999,-0.05985504388809204,0.7541735172271729,-9.794678688049316,-1.983642578125,0.579833984375,-0.1678466796875
1.1699998999999999,-0.06464344263076782,0.7852981686592102,-9.794678688049316,-1.1444091796875,0.885009765625,-0.1678466796875
1.1899998999999999,-0.0694318488240242,0.8307880163192749,-9.806650161743164,0.640869140625,-1.6326904296875,1.03759765625
1.2099999,-0.0694318488240242,0.8571242094039917,-9.81143856048584,1.6632080078125,-1.3275146484375,2.3345947265625
1.2299999,-0.07182604819536209,0.8547300100326538,-9.825803756713867,0.8087158203125,0.6866455078125,1.0528564453125
1.2499999,-0.07661445438861847,0.8164227604866028,-9.849745750427246,-0.946044921875,1.1138916015625,-0.6256103515625
1.2699999,-0.08379705995321274,0.7805097699165344,-9.856928825378418,-0.5950927734375,0.1373291015625,-0.946044921875
1.2899999,-0.0933738648891449,0.7781155705451965,-9.847352027893066,-0.1220703125,0.030517578125,-0.152587890625
1.3099999,-0.10295066982507706,0.7876923680305481,-9.84256362915039,0.6866455078125,0.518798828125,0.701904296875
1.3299999,-0.10773907601833344,0.7924807667732239,-9.84495735168457,1.0986328125,0.1373291015625,0.54931640625
1.3499999,-0.11013327538967133,0.7829039692878723,-9.854534149169922,-0.5035400390625,1.373291015625,-0.274658203125
1.3699999,-0.11252748221158981,0.768538773059845,-9.861717224121094,0.701904296875,1.129150390625,-1.3275146484375
1.3899999,-0.1149216815829277,0.751779317855835,-9.854534149169922,0.1983642578125,1.6326904296875,-0.8087158203125
1.4099999,-0.12210428714752197,0.7589619159698486,-9.84256362915039,0.457763671875,1.007080078125,-1.0223388671875
1.4299998999999999,-0.1173158809542656,0.7422025203704834,-9.840168952941895,1.068115234375,0.7781982421875,-0.4425048828125
1.4499999,-0.1173158809542656,0.7398083209991455,-9.854534149169922,1.0986328125,0.7476806640625,-1.434326171875
1.4699999,-0.1149216815829277,0.7469909191131592,-9.854534149169922,0.1983642578125,2.655029296875,-3.4942626953125
1.4899999,-0.11013327538967133,0.7445967197418213,-9.892841339111328,1.0223388671875,1.7242431640625,-1.129150390625
1.5099999,-0.10773907601833344,0.751779317855835,-9.9000244140625,3.021240234375,2.716064453125,0.2288818359375
1.5299999,-0.10773907601833344,0.7326257228851318,-9.907206535339355,0.0762939453125,3.204345703125,-2.197265625
1.5499999,-0.11013327538967133,0.7158663272857666,-9.90241813659668,0.67138671875,3.1280517578125,-4.08935546875
1.5699999,-0.10773907601833344,0.7038952708244324,-9.871294021606445,-0.2288818359375,3.509521484375,-3.0670166015625
1.5899999,-0.10773907601833344,0.751779317855835,-9.825803756713867,-0.6866455078125,2.86865234375,-2.0294189453125
1.6099999,-0.10055647045373917,0.790086567401886,-9.761159896850586,0.0152587890625,2.471923828125,-1.03759765625
1.6299999,-0.09576806426048279,0.8140285611152649,-9.727641105651855,0.9613037109375,1.15966796875,-0.5645751953125
1.6499999,-0.0933738648891449,0.7972691655158997,-9.703699111938477,1.1444091796875,1.220703125,-2.227783203125
1.6699999,-0.0933738648891449,0.7637503147125244,-9.734824180603027,0.885009765625,1.3427734375,-3.082275390625
1.6899998999999999,-0.0933738648891449,0.7326257228851318,-9.765948295593262,0.244140625,2.9296875,-2.5634765625
1.7099999,-0.09576806426048279,0.730231523513794,-9.816226959228516,0.8544921875,2.3651123046875,-1.617431640625
1.7299999,-0.08858546614646912,0.7422025203704834,-9.823410034179688,-0.9918212890625,3.0364990234375,-1.800537109375
1.7499999,-0.08858546614646912,0.7924807667732239,-9.828198432922363,-0.4425048828125,1.6937255859375,-2.5787353515625
1.7699999,-0.07661445438861847,0.8092401623725891,-9.813833236694336,0.5340576171875,2.13623046875,-0.4119873046875
1.7899999,-0.06703764945268631,0.8331822156906128,-9.792284965515137,1.0528564453125,2.5787353515625,-0.244140625
1.8099999,-0.05506663769483566,0.8355764150619507,-9.794678688049316,0.579833984375,2.0904541015625,-1.9989013671875
1.8299999,-0.05267243832349777,0.8475474119186401,-9.770736694335938,-0.9613037109375,2.74658203125,-2.349853515625
1.8499999,-0.05027823522686958,0.8403648138046265,-9.768342971801758,-0.457763671875,1.739501953125,0.1068115234375
1.8699999,-0.05027823522686958,0.8355764150619507,-9.75397777557373,-0.2593994140625,1.5869140625,0.4730224609375
1.8899999,-0.05027823522686958,0.8355764150619507,-9.75397777557373,-0.91552734375,1.8157958984375,-2.8076171875
1.9099999,-0.043095629662275314,0.828393816947937,-9.75397777557373,-0.6866455078125,2.50244140625,-1.89208984375
1.9299998999999999,-0.038307227194309235,0.8427590131759644,-9.751583099365234,-0.1373291015625,2.7008056640625,0.2288818359375
1.9499999,-0.031124621629714966,0.8571242094039917,-9.749189376831055,0.3662109375,1.64794921875,0.885009765625
1.9699999,-0.033518824726343155,0.871489405632019,-9.737217903137207,0.18310546875,0.54931640625,-0.1068115234375
1.9899999,-0.026336219161748886,0.8379706144332886,-9.742006301879883,-0.06103515625,0.5645751953125,0.7171630859375
2.0099999,-0.023942016065120697,0.811634361743927,-9.744400978088379,-0.213623046875,1.0223388671875,0.3662109375
2.0299999,-0.021547814831137657,0.7805097699165344,-9.770736694335938,0.3204345703125,0.6866455078125,-0.579833984375
2.0499999,-0.021547814831137657,0.7613561153411865,-9.794678688049316,0.6256103515625,1.0833740234375,-0.42724609375
2.0699999,-0.021547814831137657,0.7422025203704834,-9.830592155456543,0.18310546875,0.9002685546875,0.4119873046875
2.0899999,-0.028730420395731926,0.7254431247711182,-9.830592155456543,-0.0457763671875,2.4871826171875,-0.1220703125
2.1099999,-0.038307227194309235,0.7086837291717529,-9.861717224121094,1.373291015625,0.79345703125,-0.9918212890625
2.1299999,-0.043095629662275314,0.6967126727104187,-9.835380554199219,1.1444091796875,2.6092529296875,-0.9918212890625
2.1499999,-0.0454898327589035,0.6847416758537292,-9.84256362915039,1.495361328125,1.9989013671875,-0.030517578125
2.1699999,-0.038307227194309235,0.6799532771110535,-9.823410034179688,2.044677734375,1.8310546875,-0.48828125
2.1899999,-0.026336219161748886,0.6751648783683777,-9.830592155456543,1.6021728515625,1.2664794921875,-1.7852783203125
2.2099999,-0.019153613597154617,0.6823474764823914,-9.801861763000488,1.190185546875,2.5634765625,-1.2664794921875
2.2299999,-0.014365210197865963,0.6775590777397156,-9.792284965515137,0.5645751953125,1.7852783203125,0.152587890625
2.2499999,-0.011971008032560349,0.6823474764823914,-9.751583099365234,0.640869140625,0.579833984375,-0.7781982421875
2.2699999,-0.004788403399288654,0.6847416758537292,-9.708487510681152,0.335693359375,0.3204345703125,-2.5177001953125
2.2899999,0.004788403399288654,0.727837324142456,-9.6989107131958,0.701904296875,-0.4425048828125,-2.1820068359375
2.3099999,0.011971008032560349,0.7781155705451965,-9.691728591918945,-0.0457763671875,0.48828125,0.8544921875
2.3299999,0.009576806798577309,0.8259995579719543,-9.715670585632324,0.335693359375,0.030517578125,2.44140625
2.3499999,0.0071826050989329815,0.8259995579719543,-9.749189376831055,-0.0762939453125,-0.6256103515625,1.03759765625
2.3699999,0,0.7924807667732239,-9.782708168029785,-0.6866455078125,-0.1678466796875,-1.220703125
2.3899999,-0.002394201699644327,0.7661445140838623,-9.832986831665039,-0.8544921875,0.3662109375,-1.0223388671875
2.4099999,-0.0071826050989329815,0.7589619159698486,-9.847352027893066,-0.7171630859375,1.922607421875,1.03759765625
2.4299999,-0.014365210197865963,0.7852981686592102,-9.861717224121094,-0.335693359375,1.220703125,1.251220703125
2.4499999,-0.016759412363171577,0.7829039692878723,-9.847352027893066,-0.7476806640625,-0.1373291015625,1.1444091796875
2.4699999,-0.023942016065120697,0.7661445140838623,-9.84256362915039,-0.4119873046875,0.5035400390625,0.5035400390625
2.4899999,-0.033518824726343155,0.7398083209991455,-9.880870819091797,0.885009765625,0.7781982421875,0.274658203125
2.5099999,-0.031124621629714966,0.6823474764823914,-9.892841339111328,0.5035400390625,3.2196044921875,1.4190673828125
2.5299999,-0.038307227194309235,0.6631938815116882,-9.931148529052734,-0.06103515625,2.2125244140625,-0.762939453125
2.5499999,-0.035913024097681046,0.6392518281936646,-9.921571731567383,0.7476806640625,1.922607421875,-1.0223388671875
2.5699999,-0.026336219161748886,0.6224924325942993,-9.907206535339355,0.48828125,2.3040771484375,0.0152587890625
2.5899999,-0.023942016065120697,0.6344634294509888,-9.883264541625977,0.030517578125,3.2958984375,-0.9613037109375
2.6099999,-0.019153613597154617,0.6392518281936646,-9.890447616577148,1.861572265625,1.800537109375,-1.3275146484375
2.6299999,-0.0071826050989329815,0.6344634294509888,-9.8784761428833,1.40380859375,3.1585693359375,-0.5950927734375
2.6499999,0.002394201699644327,0.6320692300796509,-9.885659217834473,1.739501953125,4.5013427734375,-0.701904296875
2.6699999,0.0071826050989329815,0.6416460275650024,-9.873687744140625,2.197265625,3.72314453125,-2.1209716796875
2.6899999,0.014365210197865963,0.6560112833976746,-9.835380554199219,1.7242431640625,4.180908203125,-1.2054443359375
2.7099999,0.021547814831137657,0.6751648783683777,-9.785101890563965,1.007080078125,3.1585693359375,-0.06103515625
2.7299999,0.023942016065120697,0.7230489253997803,-9.718064308166504,-0.030517578125,3.143310546875,-1.0528564453125
2.7499999,0.038307227194309235,0.7398083209991455,-9.658209800720215,0.5035400390625,2.471923828125,-0.091552734375
2.7699999,0.043095629662275314,0.7661445140838623,-9.636661529541016,0.9613037109375,1.1138916015625,1.28173828125
2.7899999,0.05027823522686958,0.7422025203704834,-9.607931137084961,-0.6866455078125,2.9449462890625,1.2054443359375
2.8099999,0.05027823522686958,0.7110779285430908,-9.615114212036133,-0.30517578125,0.4730224609375,-0.67138671875
2.8299999,0.040701430290937424,0.7110779285430908,-9.622296333312988,-0.5340576171875,-0.4730224609375,-2.6092529296875
2.8499999,0.035913024097681046,0.6943184733390808,-9.624691009521484,-0.4730224609375,-0.5645751953125,1.129150390625
2.8699999,0.033518824726343155,0.7110779285430908,-9.651026725769043,-0.5035400390625,-0.5645751953125,1.953125
2.8899999,0.035913024097681046,0.7086837291717529,-9.674968719482422,-0.3204345703125,-0.457763671875,-0.640869140625
2.9099999,0.035913024097681046,0.7134721279144287,-9.718064308166504,-0.0457763671875,-0.885009765625,-2.0904541015625
2.9299999,0.026336219161748886,0.7158663272857666,-9.739612579345703,0.457763671875,0.3662109375,0.457763671875
2.9499999,0.009576806798577309,0.727837324142456,-9.763554573059082,0.2288818359375,-0.0152587890625,1.7242431640625
2.9699999,-0.011971008032560349,0.7230489253997803,-9.770736694335938,-0.3204345703125,-1.28173828125,0.152587890625
2.9899999,-0.023942016065120697,0.6991068720817566,-9.785101890563965,-0.5950927734375,-1.3580322265625,-0.701904296875
3.0099999,-0.035913024097681046,0.6943184733390808,-9.806650161743164,-0.4119873046875,-0.2899169921875,0
3.0299999,-0.035913024097681046,0.667982280254364,-9.847352027893066,0.701904296875,-0.30517578125,2.197265625
3.0499999,-0.035913024097681046,0.6631938815116882,-9.888052940368652,-0.2288818359375,0.1220703125,1.4190673828125
3.0699999,-0.031124621629714966,0.629675030708313,-9.940725326538086,0.2288818359375,-0.335693359375,-0.1068115234375
3.0899999,-0.028730420395731926,0.5961562395095825,-9.971850395202637,-0.0152587890625,1.2054443359375,-0.762939453125
3.1099999,-0.021547814831137657,0.5722141861915588,-9.995792388916016,-0.213623046875,1.77001953125,-0.701904296875
3.1299999,-0.016759412363171577,0.5913678407669067,-9.995792388916016,0.640869140625,1.5411376953125,-1.0833740234375
3.1499999,-0.011971008032560349,0.6272808313369751,-9.959878921508789,-0.6866455078125,2.3040771484375,-0.4730224609375
3.1699999,-0.0071826050989329815,0.6607996821403503,-9.93593692779541,0.885009765625,1.0528564453125,0.579833984375
3.1899999,-0.002394201699644327,0.6775590777397156,-9.9000244140625,1.2664794921875,1.8310546875,0.335693359375
3.2099999,-0.002394201699644327,0.6943184733390808,-9.880870819091797,0.5950927734375,2.7008056640625,-1.739501953125
3.2299999,-0.004788403399288654,0.6919242739677429,-9.859322547912598,0.091552734375,3.0517578125,-0.9918212890625
3.2499999,-0.004788403399288654,0.6967126727104187,-9.823410034179688,0.7476806640625,2.8533935546875,0.701904296875
3.2699999,-0.0071826050989329815,0.706289529800415,-9.78989028930664,0.457763671875,1.8310546875,-0.06103515625
3.2899999,-0.0071826050989329815,0.7086837291717529,-9.75397777557373,0.732421875,1.6326904296875,-1.0223388671875
3.3099999,0,0.689530074596405,-9.725247383117676,0.6866455078125,2.044677734375,-0.48828125
3.3299999000000002,-0.004788403399288654,0.7158663272857666,-9.701305389404297,-0.213623046875,2.2430419921875,-0.7476806640625
3.3499999,-0.002394201699644327,0.727837324142456,-9.68694019317627,0.0762939453125,0.762939453125,0.152587890625
3.3699999,0,0.7374141216278076,-9.682151794433594,0.67138671875,0.3509521484375,1.708984375
3.3899999,-0.002394201699644327,0.7350199222564697,-9.706093788146973,0.274658203125,1.251220703125,0.885009765625
3.4099999,0.002394201699644327,0.689530074596405,-9.746794700622559,-0.1068115234375,1.7242431640625,0.5950927734375
3.4299999,0,0.6488286852836609,-9.806650161743164,0.274658203125,2.349853515625,-0.4425048828125
3.4499999,0.004788403399288654,0.6248866319656372,-9.871294021606445,1.5869140625,2.7008056640625,-0.54931640625
3.4699999,0.0071826050989329815,0.646434485912323,-9.976638793945312,2.7313232421875,4.4097900390625,0.9918212890625
3.4899999,0.011971008032560349,0.6584054827690125,-10.14902114868164,5.7220458984375,9.185791015625,5.5999755859375
3.5099999,0.021547814831137657,0.6655880808830261,-10.285490036010742,3.8299560546875,21.575927734375,7.171630859375
3.5299999,0.031124621629714966,0.6607996821403503,-10.536881446838379,10.6048583984375,20.69091796875,5.2337646484375
3.5499999,0.06224924325942993,0.608127236366272,-10.747570991516113,12.8326416015625,35.980224609375,8.7890625
3.5699999,0.12449848651885986,0.5315127968788147,-10.951078414916992,9.246826171875,52.581787109375,10.7269287109375
3.5899999,0.21308395266532898,0.37828385829925537,-11.070788383483887,8.8958740234375,67.474365234375,10.040283203125
3.6099999,0.3519476354122162,0.08379705995321274,-11.113883972167969,5.4168701171875,74.249267578125,4.0435791015625
3.6299999,0.5051765441894531,-0.13407529890537262,-11.113883972167969,10.9100341796875,81.8939208984375,-10.650634765625
3.6499999,0.6823474764823914,-0.4381389021873474,-10.927136421203613,15.3961181640625,106.048583984375,-13.2904052734375
3.6699999,0.8978256583213806,-0.6607996821403503,-10.805032730102539,12.0086669921875,104.1717529296875,-16.265869140625
3.6899999,1.1420341730117798,-0.9457096457481384,-10.548852920532227,10.1318359375,101.50146484375,-35.552978515625
3.7099999,1.403002142906189,-1.216254472732544,-10.400412559509277,0.396728515625,108.88671875,-56.0302734375
3.7299999,1.6639702320098877,-1.5538369417190552,-10.414777755737305,3.90625,121.5972900390625,-72.3724365234375
3.7499999,1.9153614044189453,-1.656787633895874,-10.24000072479248,13.7939453125,143.98193359375,-90.75927734375
3.7699999,2.188300371170044,-1.8100165128707886,-9.90241813659668,1.4801025390625,135.31494140625,-99.6246337890625
3.7899999,2.4420857429504395,-1.7094600200653076,-9.241618156433105,-21.240234375,108.0474853515625,-123.6724853515625
3.8099999,2.7293899059295654,-1.522712230682373,-8.588001251220703,-11.16943359375,85.235595703125,-142.2576904296875
3.8299999000000002,2.985569477081299,-1.0127472877502441,-7.857769966125488,-17.9595947265625,93.902587890625,-158.02001953125
3.8499999,3.203441858291626,-0.3974374830722809,-7.347805023193359,-29.144287109375,75.4547119140625,-152.1453857421875
3.8699999,3.378218650817871,0.20111294090747833,-7.070077419281006,-24.017333984375,35.9039306640625,-152.496337890625
3.8899999,3.4763808250427246,0.6967126727104187,-6.615179061889648,-4.94384765625,36.712646484375,-176.483154296875
3.9099999,3.4763808250427246,1.1563993692398071,-6.270414352416992,25.909423828125,21.54541015625,-192.3980712890625
3.9299999,3.380612850189209,1.580173134803772,-6.050147533416748,32.71484375,-19.04296875,-174.8504638671875
3.9499999,3.1890766620635986,2.1068975925445557,-5.789179801940918,-6.4697265625,-48.0804443359375,-163.9556884765625
3.9699999,2.896984100341797,2.477998733520508,-5.863399982452393,-30.609130859375,-53.6041259765625,-166.5802001953125
3.9899999,2.564189910888672,2.626439332962036,-5.985504150390625,-30.670166015625,-58.197021484375,-162.933349609375
4.0099999,2.099714994430542,2.8610711097717285,-6.524199485778809,4.425048828125,-90.4541015625,-200.469970703125
4.029999900000001,1.659181833267212,2.894589900970459,-6.2416839599609375,-42.266845703125,-69.82421875,-176.1627197265625
4.0499999,1.0558429956436157,3.4308910369873047,-6.806715488433838,-27.374267578125,-138.3514404296875,-183.77685546875
4.069999900000001,0.45010992884635925,3.864241600036621,-6.766014099121094,-34.0423583984375,-145.2789306640625,-166.6717529296875
4.0899999000000005,-0.2513911724090576,4.256890773773193,-7.144298076629639,-44.281005859375,-124.3438720703125,-160.94970703125
4.1099999,-0.9888052940368652,4.364629745483398,-7.3885064125061035,-0.030517578125,-152.7557373046875,-175.567626953125
4.1299999000000005,-1.6950948238372803,4.07014274597168,-7.273584842681885,27.28271484375,-165.58837890625,-181.6558837890625
4.1499999,-2.5091233253479004,4.599261283874512,-6.732495307922363,-34.8663330078125,-200.408935546875,-201.0345458984375
4.1699999000000005,-3.464409828186035,5.319916248321533,-5.870582580566406,-100.6927490234375,-231.6436767578125,-156.707763671875
4.1899999,-4.570530891418457,6.287173748016357,-5.731719017028809,-53.497314453125,-296.44775390625,-88.7451171875
4.209999900000001,-5.686229228973389,6.54574728012085,-5.705382823944092,-10.6201171875,-270.2789306640625,-103.45458984375
4.2299999,-6.732495307922363,6.095637321472168,-5.559336185455322,-3.6773681640625,-212.95166015625,-157.0587158203125
4.249999900000001,-7.824251174926758,5.793968200683594,-4.912901878356934,-41.1376953125,-277.5115966796875,-169.952392578125
4.2699999,-9.059659004211426,6.466738700866699,-4.5825018882751465,-34.7900390625,-390.93017578125,-101.50146484375
4.289999900000001,-10.304644584655762,7.829039573669434,-4.656722068786621,19.561767578125,-358.062744140625,-2.0904541015625
4.3099999,-11.305420875549316,8.710105895996094,-5.485116004943848,52.1087646484375,-209.381103515625,37.04833984375
4.329999900000001,-11.710040092468262,8.29830265045166,-6.7492547035217285,40.1611328125,-197.479248046875,25.87890625
4.3499999,-11.549629211425781,7.173028469085693,-7.105990409851074,22.7203369140625,-192.2149658203125,-0.3509521484375
4.369999900000001,-11.185709953308105,6.174646377563477,-7.319074630737305,23.5595703125,-173.7213134765625,26.4739990234375
4.3899999,-10.714052200317383,5.3582234382629395,-6.828263282775879,48.33984375,-90.8660888671875,97.503662109375
4.409999900000001,-10.307038307189941,5.219359874725342,-6.370970726013184,60.1043701171875,-44.37255859375,94.512939453125
4.4299999,-9.466673851013184,5.370194435119629,-5.12119722366333,64.4683837890625,-28.1524658203125,90.087890625
4.449999900000001,-9.222464561462402,5.985504150390625,-4.436455726623535,91.217041015625,55.5877685546875,143.280029296875
4.4699999,-9.035717010498047,6.555324077606201,-4.182670593261719,84.9609375,68.7103271484375,195.526123046875
4.489999900000001,-8.889671325683594,6.708553314208984,-3.864241600036621,81.72607421875,57.1746826171875,175.10986328125
4.5099999,-8.65982723236084,6.366182327270508,-3.6367924213409424,88.5772705078125,84.197998046875,159.8968505859375
4.529999900000001,-8.336610794067383,5.793968200683594,-3.627215623855591,108.8714599609375,103.302001953125,169.708251953125
4.5499999,-7.999027729034424,5.578489780426025,-3.7253777980804443,116.5313720703125,94.3145751953125,171.20361328125
4.569999900000001,-7.682993412017822,5.719748020172119,-4.230554580688477,91.796875,61.0809326171875,159.9578857421875
4.5899999000000005,-7.3023152351379395,5.638344764709473,-4.527435302734375,96.771240234375,84.625244140625,170.2880859375
4.609999900000001,-6.715735912322998,5.243301868438721,-5.384559631347656,117.12646484375,84.8388671875,162.4908447265625
4.6299999000000005,-6.114790916442871,4.821922302246094,-5.839457988739014,170.562744140625,97.6715087890625,97.4884033203125
4.6499999,-5.303156852722168,4.422090530395508,-6.09324312210083,213.104248046875,114.2120361328125,62.408447265625
4.6699999000000005,-4.587290287017822,4.491522312164307,-6.5696892738342285,215.51513671875,58.319091796875,75.3326416015625
4.6899999,-3.9384617805480957,4.786009311676025,-6.964732646942139,183.624267578125,79.1473388671875,98.8616943359375
4.709999900000001,-3.450044631958008,4.845864295959473,-8.08282470703125,170.1812744140625,109.0850830078125,89.7979736328125
4.7299999,-3.095702886581421,4.802768707275391,-7.82185697555542,153.13720703125,187.92724609375,46.3104248046875
4.749999900000001,-2.7676970958709717,4.323928356170654,-8.508993148803711,137.4969482421875,68.84765625,36.6668701171875
4.7699999,-2.47560453414917,4.1156325340271,-8.133103370666504,142.3187255859375,15.7318115234375,46.112060546875
4.789999900000001,-2.1116859912872314,3.687070608139038,-8.44434928894043,124.908447265625,118.5150146484375,40.8782958984375
4.8099999,-1.745373010635376,3.1675288677215576,-8.971074104309082,142.425537109375,121.002197265625,37.445068359375
4.829999900000001,-1.4413094520568848,2.80361008644104,-8.700529098510742,130.9814453125,119.293212890625,11.3983154296875
4.8499999,-1.161187767982483,2.7078421115875244,-8.518569946289062,72.0672607421875,24.4903564453125,11.444091796875
4.869999900000001,-0.9145850539207458,2.585737943649292,-8.154650688171387,41.351318359375,-10.07080078125,45.379638671875
4.8899999,-0.629675030708313,2.410961151123047,-7.934384346008301,24.3072509765625,61.7828369140625,42.96875
4.909999900000001,-0.3495534360408783,1.8339585065841675,-8.245630264282227,37.2161865234375,24.383544921875,11.2457275390625
4.9299999,-0.1173158809542656,1.2306196689605713,-8.233659744262695,20.6298828125,6.65283203125,-12.87841796875
4.949999900000001,0.040701430290937424,0.8092401623725891,-8.528146743774414,8.514404296875,-18.2342529296875,-5.9661865234375
4.9699999,0.08379705995321274,1.0295066833496094,-8.65743350982666,-1.15966796875,10.8795166015625,-4.974365234375
4.989999900000001,0.08619125932455063,1.3431471586227417,-9.129091262817383,2.01416015625,3.326416015625,10.4217529296875
5.0099999,0.06224924325942993,1.644816517829895,-9.35893440246582,14.2669677734375,-6.256103515625,17.974853515625
5.029999900000001,0.043095629662275314,1.7142484188079834,-9.512163162231445,20.0042724609375,-5.157470703125,5.584716796875
5.0499999,0.040701430290937424,1.534683346748352,-9.610325813293457,11.90185546875,-6.6070556640625,-4.33349609375
5.069999900000001,0.05267243832349777,1.3048399686813354,-9.785101890563965,0.91552734375,-9.9945068359375,-6.3323974609375
5.0899999000000005,0.05027823522686958,1.213860273361206,-9.892841339111328,-4.974365234375,-0.42724609375,-6.6986083984375
5.109999900000001,0.040701430290937424,1.256955862045288,-10.096348762512207,2.655029296875,-0.8544921875,-4.2572021484375
5.1299999000000005,0.021547814831137657,1.357512354850769,-10.14902114868164,2.7008056640625,1.6632080078125,0.18310546875
5.1499999,-0.011971008032560349,1.4532804489135742,-10.160991668701172,3.9825439453125,2.288818359375,0.457763671875
5.1699999000000005,-0.033518824726343155,1.4652514457702637,-10.08437728881836,7.2174072265625,0.244140625,-0.8392333984375
5.1899999,-0.06464344263076782,1.4532804489135742,-10.029311180114746,4.4403076171875,0.274658203125,-3.96728515625
5.209999900000001,-0.07900865375995636,1.403002142906189,-9.919178009033203,-1.8463134765625,4.119873046875,-1.6937255859375
5.2299999,-0.08619125932455063,1.3910311460494995,-9.80904483795166,-0.701904296875,5.1422119140625,-0.2899169921875
5.249999900000001,-0.10055647045373917,1.400607943534851,-9.761159896850586,4.486083984375,-2.655029296875,-2.1514892578125
5.2699999,-0.090979665517807,1.3623007535934448,-9.639056205749512,0.091552734375,2.2735595703125,0.0457763671875
5.289999900000001,-0.09576806426048279,1.37906014919281,-9.674968719482422,0.8392333984375,1.4801025390625,-2.5634765625
5.3099999,-0.08619125932455063,1.3646949529647827,-9.600749015808105,1.8157958984375,6.439208984375,-0.1983642578125
5.329999900000001,-0.07661445438861847,1.37906014919281,-9.619902610778809,1.9073486328125,2.5634765625,0.5645751953125
5.3499999,-0.05985504388809204,1.3742717504501343,-9.552865028381348,6.439208984375,0.274658203125,1.1749267578125
5.369999900000001,-0.040701430290937424,1.3455413579940796,-9.586383819580078,8.48388671875,0.2288818359375,-0.0762939453125
5.3899999,-0.028730420395731926,1.2713210582733154,-9.653421401977539,8.23974609375,0.9613037109375,-0.3509521484375
5.409999900000001,-0.021547814831137657,1.1540051698684692,-9.818621635437012,8.209228515625,4.2572021484375,-0.5950927734375
5.4299999,-0.028730420395731926,1.0342950820922852,-9.95748519897461,6.591796875,7.62939453125,-4.5318603515625
5.449999900000001,-0.031124621629714966,0.9576807022094727,-10.074800491333008,3.9215087890625,6.317138671875,-7.5225830078125
5.4699999,-0.026336219161748886,0.9409212470054626,-10.120290756225586,3.692626953125,7.232666015625,-6.7901611328125
5.489999900000001,-0.019153613597154617,1.0271124839782715,-10.06043529510498,4.3182373046875,9.490966796875,-4.1046142578125
5.5099999,0,1.1420341730117798,-9.974244117736816,1.6632080078125,8.544921875,-2.0599365234375
5.529999900000001,0.021547814831137657,1.2234370708465576,-9.861717224121094,3.1280517578125,3.0670166015625,0.2899169921875
5.5499999,0.05746084079146385,1.2665326595306396,-9.775525093078613,2.8076171875,3.41796875,-1.6326904296875
5.569999900000001,0.08379705995321274,1.3192051649093628,-9.768342971801758,3.35693359375,2.9754638671875,-3.7994384765625
5.5899999000000005,0.12928688526153564,1.2880805730819702,-9.799467086791992,0.9918212890625,7.4310302734375,3.8604736328125
5.609999900000001,0.14844051003456116,1.3096283674240112,-9.837775230407715,4.1046142578125,7.843017578125,3.4332275390625
5.6299999000000005,0.15083470940589905,1.3215993642807007,-9.895236015319824,6.866455078125,4.2877197265625,2.2430419921875
5.6499999,0.15322890877723694,1.2737152576446533,-9.86889934539795,7.26318359375,4.0740966796875,7.38525390625
5.6699999000000005,0.13168109953403473,1.3000515699386597,-9.914389610290527,9.9029541015625,1.1444091796875,8.453369140625
5.6899999,0.09576806426048279,1.3096283674240112,-10.043676376342773,18.1732177734375,-1.9683837890625,12.176513671875
5.709999900000001,0.06224924325942993,1.316810965538025,-10.108319282531738,23.01025390625,12.14599609375,19.927978515625
5.7299999,0.033518824726343155,1.2856862545013428,-10.268731117248535,33.0657958984375,9.7503662109375,22.0184326171875
5.749999900000001,0.023942016065120697,1.1659762859344482,-10.319009780883789,48.7518310546875,10.467529296875,24.7955322265625
5.7699999,0.040701430290937424,1.0654197931289673,-10.369287490844727,73.18115234375,21.1944580078125,23.773193359375
5.789999900000001,0.07900865375995636,0.9457096457481384,-10.47702693939209,107.5439453125,33.87451171875,30.029296875
5.8099999,0.14365209639072418,0.6943184733390808,-10.596736907958984,162.384033203125,55.8013916015625,40.0390625
5.829999900000001,0.28969839215278625,0.2346317619085312,-10.651803016662598,169.43359375,73.2879638671875,33.294677734375
5.8499999,0.49320554733276367,-0.6057330369949341,-10.8720703125,269.2718505859375,91.644287109375,6.0577392578125
5.869999900000001,0.7709329724311829,-1.7884687185287476,-10.644620895385742,304.01611328125,142.4560546875,-19.7296142578125
5.8899999,1.0869675874710083,-3.181894063949585,-10.465055465698242,182.8155517578125,111.1297607421875,-32.1807861328125
5.909999900000001,1.4508862495422363,-4.651933670043945,-10.170568466186523,63.90380859375,70.5108642578125,-46.234130859375
5.9299999,1.7501614093780518,-5.772420406341553,-9.847352027893066,44.464111328125,95.3369140625,-81.8634033203125
5.949999900000001,2.0398597717285156,-6.560112476348877,-9.959878921508789,13.73291015625,105.65185546875,-101.6998291015625
5.9699999,2.2840683460235596,-7.091625213623047,-9.888052940368652,-11.53564453125,136.0626220703125,-113.006591796875
5.989999900000001,2.4396915435791016,-7.196970462799072,-9.220070838928223,-4.791259765625,164.4134521484375,-158.843994140625
6.0099999,2.580949544906616,-6.957550048828125,-7.876923561096191,60.5316162109375,118.9117431640625,-196.1517333984375
6.029999900000001,2.736572504043579,-6.528987884521484,-6.224924564361572,76.568603515625,29.6173095703125,-186.737060546875
6.0499999,2.8850131034851074,-5.813121795654297,-4.78122091293335,-65.032958984375,-28.717041015625,-185.24169921875
6.069999900000001,3.0358476638793945,-4.644751071929932,-4.122815132141113,-174.530029296875,-54.0313720703125,-222.47314453125
6.0899999000000005,3.141192674636841,-3.157952070236206,-4.098873138427734,-67.291259765625,-33.38623046875,-222.6409912109375
6.109999900000001,3.222595453262329,-1.5514427423477173,-4.505887508392334,-9.063720703125,-54.840087890625,-158.6456298828125
6.1299999000000005,3.268085241317749,0.035913024097681046,-5.104437828063965,1.983642578125,-77.6824951171875,-131.744384765625
6.149999900000001,3.315969467163086,1.015141487121582,-5.652710437774658,25.45166015625,-68.84765625,-135.9100341796875
6.1699999000000005,3.3016040325164795,1.4077905416488647,-6.217741966247559,27.3590087890625,-87.40234375,-130.9051513671875
6.1899999,3.2178070545196533,1.4963760375976562,-6.5050458908081055,31.036376953125,-115.9515380859375,-112.8082275390625
6.209999900000001,2.956839084625244,1.501164436340332,-6.718130111694336,16.4337158203125,-133.2244873046875,-88.2110595703125
6.2299999,2.6599581241607666,1.0271124839782715,-7.201758861541748,5.5694580078125,-153.9764404296875,-65.826416015625
6.249999900000001,2.3127987384796143,0.47165772318840027,-7.5848307609558105,7.965087890625,-127.960205078125,-96.405029296875
6.2699999,1.9345149993896484,-0.2082955539226532,-8.078036308288574,34.881591796875,-116.3787841796875,-128.3721923828125
6.289999900000001,1.5610195398330688,-0.5937620401382446,-8.221688270568848,49.8199462890625,-138.9923095703125,-110.9161376953125
6.3099999,1.05105459690094,-0.3064578175544739,-8.042123794555664,39.2913818359375,-156.707763671875,-87.982177734375
6.329999900000001,0.49320554733276367,0.033518824726343155,-7.99184513092041,15.7623291015625,-197.0062255859375,-55.511474609375
6.3499999,-0.16519992053508759,0.31842881441116333,-7.94635534286499,-7.0648193359375,-199.5086669921875,-59.906005859375
6.369999900000001,-0.8331822156906128,0.10055647045373917,-8.197746276855469,0.1983642578125,-196.7010498046875,-79.40673828125
6.3899999,-1.5155296325683594,-0.3064578175544739,-8.767566680908203,33.721923828125,-210.357666015625,-91.7816162109375
6.409999900000001,-2.188300371170044,-0.47884035110473633,-9.215282440185547,11.0626220703125,-192.1844482421875,-94.90966796875
6.4299999,-2.8874073028564453,-0.1149216815829277,-9.81143856048584,-3.8909912109375,-184.0057373046875,-76.324462890625
6.449999900000001,-3.529053211212158,0.667982280254364,-10.359710693359375,-13.61083984375,-191.5435791015625,-39.276123046875
6.4699999,-4.137180328369141,1.558625340461731,-10.582371711730957,-18.6920166015625,-167.0379638671875,-13.1988525390625
6.489999900000001,-4.613626480102539,2.207453966140747,-10.730812072753906,-1.3275146484375,-153.1219482421875,-2.9449462890625
6.5099999,-5.035006046295166,2.5522189140319824,-10.45547866821289,14.404296875,-155.853271484375,8.819580078125
6.529999900000001,-5.413290023803711,2.760514497756958,-10.046070098876953,27.374267578125,-146.4996337890625,31.73828125
6.5499999,-5.8203043937683105,2.8658595085144043,-9.734824180603027,42.9534912109375,-152.9541015625,73.9593505859375
6.569999900000001,-6.222530364990234,2.7437551021575928,-9.600749015808105,25.9857177734375,-130.2947998046875,108.062744140625
6.5899999000000005,-6.63433313369751,2.583343744277954,-9.588777542114258,12.9547119140625,-95.245361328125,108.9324951171875
6.609999900000001,-6.909666061401367,2.073378562927246,-10.189722061157227,47.0428466796875,-95.4437255859375,124.053955078125
6.6299999000000005,-7.268796443939209,1.8626888990402222,-10.309432983398438,61.492919921875,-24.10888671875,133.4991455078125
6.649999900000001,-7.448361396789551,1.4891934394836426,-10.812214851379395,61.798095703125,4.638671875,158.4930419921875
6.6699999000000005,-7.704541206359863,1.4389152526855469,-10.812214851379395,52.4444580078125,14.9993896484375,169.036865234375
6.6899999,-7.869740962982178,1.2066776752471924,-10.584765434265137,40.252685546875,42.144775390625,175.1251220703125
6.709999900000001,-7.86734676361084,0.751779317855835,-10.199298858642578,26.4739990234375,39.3829345703125,190.36865234375
6.7299999,-7.716512203216553,0.16998831927776337,-9.459490776062012,17.8070068359375,50.0946044921875,169.6929931640625
6.749999900000001,-7.4100542068481445,-0.3232172429561615,-8.9064302444458,36.68212890625,44.4488525390625,137.908935546875
6.7699999,-6.998251438140869,-0.6536170840263367,-8.592789649963379,45.5322265625,26.336669921875,138.2293701171875
6.789999900000001,-6.588842868804932,-0.4620809257030487,-8.611943244934082,22.88818359375,54.9774169921875,138.8702392578125
6.8099999,-6.229712963104248,0.019153613597154617,-9.215282440185547,35.919189453125,66.71142578125,136.383056640625
6.829999900000001,-5.937620162963867,0.545877993106842,-9.600749015808105,46.051025390625,103.57666015625,138.3209228515625
6.8499999,-5.633556365966797,0.8858546018600464,-10.103530883789062,50.201416015625,95.2606201171875,135.5133056640625
6.869999900000001,-5.295974254608154,0.849941611289978,-10.280701637268066,58.65478515625,93.292236328125,120.5596923828125
6.8899999,-4.888959884643555,0.5051765441894531,-10.450690269470215,66.131591796875,123.321533203125,98.724365234375
6.909999900000001,-4.402936935424805,0.011971008032560349,-10.649409294128418,78.8726806640625,148.13232421875,76.3092041015625
6.9299999,-3.9911341667175293,-0.031124621629714966,-10.319009780883789,75.8056640625,170.623779296875,54.3975830078125
6.949999900000001,-3.509899616241455,-0.011971008032560349,-9.86889934539795,60.272216796875,140.6707763671875,66.497802734375
6.9699999,-3.0406360626220703,0.05746084079146385,-9.332598686218262,56.1981201171875,80.62744140625,76.84326171875
6.989999900000001,-2.499546527862549,-0.21547815203666687,-8.700529098510742,58.807373046875,124.1912841796875,39.1845703125
7.0099999,-1.9081788063049316,-0.811634361743927,-8.674192428588867,65.1092529296875,114.8529052734375,2.0294189453125
7.029999900000001,-1.4317326545715332,-1.1803414821624756,-8.458714485168457,65.032958984375,111.5875244140625,-25.5584716796875
7.0499999,-1.0199298858642578,-1.0965443849563599,-8.08043098449707,28.411865234375,94.5281982421875,-18.6309814453125
7.069999900000001,-0.7230489253997803,-0.507570743560791,-7.82185697555542,0.54931640625,29.5867919921875,-2.899169921875
7.0899999000000005,-0.4381389021873474,0.11013327538967133,-7.469909191131592,9.2926025390625,19.3328857421875,8.1939697265625
7.109999900000001,-0.181959331035614,0.5841852426528931,-7.383718013763428,11.7340087890625,26.9775390625,4.364013671875
7.1299999000000005,0.028730420395731926,0.7230489253997803,-7.60637903213501,12.4969482421875,1.28173828125,-1.4801025390625
7.149999900000001,0.17477671802043915,0.6200982332229614,-7.864952564239502,5.7830810546875,-8.087158203125,2.3345947265625
7.1699999000000005,0.2298433631658554,0.5123591423034668,-8.35336971282959,2.9754638671875,-12.20703125,-1.0833740234375
7.1899999,0.21547815203666687,0.3878606855869293,-8.889671325683594,-3.2196044921875,-6.9122314453125,-2.38037109375
7.209999900000001,0.181959331035614,0.24420857429504395,-9.354146003723145,-11.65771484375,-0.885009765625,4.5318603515625
7.2299999,0.12449848651885986,0.15083470940589905,-9.706093788146973,-8.1939697265625,-8.5601806640625,-0.18310546875
7.249999900000001,0.0694318488240242,0.06464344263076782,-9.885659217834473,-4.69970703125,-14.068603515625,-6.0272216796875
7.2699999,0.016759412363171577,0.08619125932455063,-9.995792388916016,-9.46044921875,-8.23974609375,-7.26318359375
7.289999900000001,-0.035913024097681046,0.17956513166427612,-10.17296314239502,-8.1024169921875,-3.7994384765625,2.8533935546875
7.3099999,-0.090979665517807,0.4118026793003082,-10.280701637268066,-6.9122314453125,5.79833984375,4.3792724609375
7.329999900000001,-0.11013327538967133,0.6009446382522583,-10.457873344421387,-9.7808837890625,6.1492919921875,9.5367431640625
7.3499999,-0.1173158809542656,0.7613561153411865,-10.486603736877441,-9.33837890625,9.5977783203125,13.8702392578125
7.369999900000001,-0.07661445438861847,0.7086837291717529,-10.3549222946167,-8.5601806640625,19.8211669921875,19.744873046875
7.3899999,-0.026336219161748886,0.5602431893348694,-10.120290756225586,-3.3416748046875,8.4228515625,13.519287109375
7.409999900000001,0.05267243832349777,0.2346317619085312,-9.734824180603027,-7.2021484375,1.8157958984375,4.119873046875
7.4299999,0.11013327538967133,-0.047884032130241394,-9.442731857299805,-3.0517578125,-5.8746337890625,-2.349853515625
7.449999900000001,0.1364694982767105,-0.16998831927776337,-9.327810287475586,-1.190185546875,-6.072998046875,-8.7127685546875
7.4699999,0.11971008777618408,-0.08140286058187485,-9.440337181091309,-2.227783203125,-5.2337646484375,-6.7138671875
7.489999900000001,0.08379705995321274,0.13168109953403473,-9.619902610778809,-5.645751953125,3.84521484375,-1.678466796875
7.5099999,0.038307227194309235,0.38067805767059326,-9.84495735168457,-1.922607421875,1.953125,0.54931640625
7.529999900000001,0.009576806798577309,0.5315127968788147,-9.93354320526123,-2.0294189453125,0.8697509765625,-1.3885498046875
7.5499999,-0.002394201699644327,0.5770025849342346,-9.93593692779541,-1.2969970703125,1.03759765625,-1.5869140625
7.569999900000001,-0.004788403399288654,0.5889736413955688,-9.907206535339355,-2.1820068359375,-2.532958984375,-4.5013427734375
7.5899999000000005,0.004788403399288654,0.5626373887062073,-9.880870819091797,-1.4190673828125,-1.2664794921875,-1.3275146484375
7.609999900000001,0.009576806798577309,0.586579442024231,-9.864110946655273,-0.8697509765625,3.143310546875,-1.8157958984375
7.6299999000000005,0.019153613597154617,0.5961562395095825,-9.897629737854004,-2.349853515625,2.50244140625,-0.2593994140625
7.649999900000001,0.016759412363171577,0.6105214357376099,-9.914389610290527,-2.5787353515625,4.6234130859375,0.2593994140625
7.6699999000000005,0.014365210197865963,0.6224924325942993,-9.928754806518555,-8.2550048828125,5.8441162109375,-0.30517578125
7.6899999,0.009576806798577309,0.6416460275650024,-9.890447616577148,-9.307861328125,5.55419921875,-0.8697509765625
7.709999900000001,0.023942016065120697,0.608127236366272,-9.792284965515137,-8.2550048828125,4.364013671875,2.716064453125
7.7299999,0.040701430290937424,0.5770025849342346,-9.706093788146973,-3.4637451171875,-2.349853515625,1.3275146484375
7.749999900000001,0.06464344263076782,0.5171475410461426,-9.63187313079834,-2.01416015625,-1.7852783203125,-2.4261474609375
7.7699999,0.07900865375995636,0.47644615173339844,-9.643844604492188,-2.13623046875,1.190185546875,-2.0751953125
7.789999900000001,0.08140286058187485,0.47644615173339844,-9.72285270690918,-0.3662109375,0.7171630859375,-1.7242431640625
7.8099999,0.07900865375995636,0.5171475410461426,-9.785101890563965,0.5645751953125,3.0364990234375,-1.3580322265625
7.829999900000001,0.07900865375995636,0.545877993106842,-9.852140426635742,-0.5645751953125,1.4801025390625,-0.42724609375
7.8499999,0.07900865375995636,0.5674257874488831,-9.847352027893066,-0.8392333984375,1.3580322265625,-1.1749267578125
7.869999900000001,0.07900865375995636,0.5889736413955688,-9.856928825378418,-0.152587890625,-0.1068115234375,-2.38037109375
7.8899999,0.08140286058187485,0.6033388376235962,-9.830592155456543,-1.0528564453125,0.4119873046875,-1.068115234375
7.909999900000001,0.08140286058187485,0.6248866319656372,-9.823410034179688,-1.739501953125,1.8310546875,0.4425048828125
7.9299999,0.08619125932455063,0.6129156351089478,-9.80904483795166,-0.274658203125,0.885009765625,0.640869140625
7.949999900000001,0.08140286058187485,0.608127236366272,-9.787496566772461,-0.213623046875,0.7171630859375,-2.3345947265625
7.9699999,0.07182604819536209,0.608127236366272,-9.821015357971191,-2.6702880859375,-2.655029296875,-3.2806396484375
7.989999900000001,0.05985504388809204,0.6177040338516235,-9.801861763000488,-3.753662109375,2.227783203125,0.3814697265625
8.0099999,0.0454898327589035,0.6344634294509888,-9.849745750427246,-2.349853515625,1.6632080078125,1.312255859375
8.0299999,0.043095629662275314,0.6392518281936646,-9.86650562286377,-0.701904296875,-1.068115234375,-0.762939453125
8.049999900000001,0.043095629662275314,0.629675030708313,-9.911994934082031,-0.3814697265625,1.007080078125,-1.52587890625
8.069999900000001,0.047884032130241394,0.6153098344802856,-9.93593692779541,0.9765625,4.119873046875,0.79345703125
8.0899999,0.05506663769483566,0.629675030708313,-9.99100399017334,1.861572265625,3.0975341796875,0.54931640625
8.1099999,0.05746084079146385,0.6320692300796509,-10.036493301391602,2.9296875,1.9378662109375,0.5950927734375
8.129999900000001,0.06703764945268631,0.6320692300796509,-10.053253173828125,0.1373291015625,7.293701171875,2.13623046875
8.149999900000001,0.07661445438861847,0.6153098344802856,-10.065223693847656,-0.0457763671875,8.0108642578125,1.9989013671875
8.1699999,0.08619125932455063,0.5985504388809204,-10.067618370056152,2.197265625,5.8441162109375,1.9378662109375
8.1899999,0.10773907601833344,0.5817909836769104,-9.998186111450195,-0.762939453125,8.23974609375,1.46484375
8.2099999,0.12210428714752197,0.6512228846549988,-9.962273597717285,-2.44140625,5.67626953125,1.77001953125
8.229999900000001,0.14604631066322327,0.7350199222564697,-9.945513725280762,-3.509521484375,5.3558349609375,7.8887939453125
8.2499999,0.17238251864910126,0.8307880163192749,-10.005369186401367,-0.7476806640625,7.0953369140625,14.404296875
8.2699999,0.19153612852096558,0.9265560507774353,-10.074800491333008,4.0435791015625,15.1519775390625,13.24462890625
8.2899999,0.21787235140800476,0.9864110946655273,-10.153809547424316,7.1563720703125,16.571044921875,17.2119140625
8.309999900000001,0.24181437492370605,1.0055646896362305,-10.232817649841309,17.6239013671875,13.8702392578125,23.7884521484375
8.3299999,0.2753331959247589,0.9409212470054626,-10.220847129821777,23.3001708984375,20.965576171875,29.3121337890625
8.3499999,0.33039984107017517,0.7182605266571045,-10.292673110961914,22.88818359375,20.9808349609375,24.200439453125
8.3699999,0.3926490843296051,0.33518823981285095,-10.24000072479248,14.0838623046875,27.40478515625,15.4571533203125
8.389999900000001,0.4644751250743866,-0.016759412363171577,-10.146626472473145,3.6773681640625,28.717041015625,3.41796875
8.4099999,0.5363011956214905,-0.29209262132644653,-10.077195167541504,1.8768310546875,16.54052734375,0.152587890625
8.4299999,0.6033388376235962,-0.363918662071228,-9.8784761428833,3.326416015625,23.9105224609375,1.5106201171875
8.4499999,0.6536170840263367,-0.2777273952960968,-9.840168952941895,5.1422119140625,19.500732421875,-3.1280517578125
8.469999900000001,0.6847416758537292,0,-9.63187313079834,1.03759765625,20.5078125,-4.1961669921875
8.4899999,0.730231523513794,0.21308395266532898,-9.57441234588623,-2.13623046875,7.87353515625,6.134033203125
8.5099999,0.768538773059845,0.40701428055763245,-9.361329078674316,3.753662109375,10.2081298828125,10.5743408203125
8.5299999,0.828393816947937,0.42616790533065796,-9.255983352661133,4.2877197265625,10.5133056640625,1.5106201171875
8.549999900000001,0.8882488012313843,0.3495534360408783,-9.105149269104004,2.5482177734375,6.439208984375,-4.1351318359375
8.569999900000001,0.9313444495201111,0.3016694188117981,-8.932766914367676,-2.227783203125,2.593994140625,-5.3863525390625
8.5899999,0.9552865028381348,0.30885201692581177,-8.834604263305664,-1.9683837890625,-6.6070556640625,-1.03759765625
8.6099999,0.9409212470054626,0.4381389021873474,-8.882488250732422,0.3204345703125,-9.4757080078125,-0.7781982421875
8.629999900000001,0.9193734526634216,0.5147533416748047,-9.011775016784668,-3.1890869140625,0.274658203125,2.4566650390625
8.649999900000001,0.8810662031173706,0.5650315880775452,-9.141061782836914,-4.791259765625,6.4544677734375,2.0599365234375
8.6699999,0.8355764150619507,0.5506663918495178,-9.29189682006836,-4.180908203125,-7.62939453125,-0.8544921875
8.6899999,0.811634361743927,0.45010992884635925,-9.313444137573242,-1.2054443359375,-9.4451904296875,-1.068115234375
8.709999900000001,0.790086567401886,0.363918662071228,-9.421183586120605,-2.044677734375,-7.4462890625,-2.6397705078125
8.729999900000001,0.7757213711738586,0.31842881441116333,-9.548076629638672,-3.6773681640625,-4.9896240234375,-5.67626953125
8.7499999,0.7661445140838623,0.33039984107017517,-9.742006301879883,-4.2266845703125,-6.3629150390625,-2.1514892578125
8.7699999,0.7589619159698486,0.3998316824436188,-9.904812812805176,-3.23486328125,-3.814697265625,0.457763671875
8.7899999,0.7613561153411865,0.4596867263317108,-10.02691650390625,-1.6632080078125,-0.9613037109375,2.13623046875
8.809999900000001,0.768538773059845,0.5147533416748047,-10.156203269958496,-0.6103515625,-2.1820068359375,1.495361328125
8.8299999,0.7781155705451965,0.5171475410461426,-10.24239444732666,-0.3814697265625,0.4425048828125,3.509521484375
8.8499999,0.7924807667732239,0.4668693244457245,-10.316615104675293,-0.732421875,6.7291259765625,6.28662109375
8.8699999,0.7972691655158997,0.3758896589279175,-10.42195987701416,-1.4801025390625,7.0953369140625,5.4931640625
8.889999900000001,0.8164227604866028,0.2322375625371933,-10.457873344421387,-10.833740234375,11.3983154296875,5.2490234375
8.9099999,0.8236053586006165,0.20111294090747833,-10.47702693939209,-10.345458984375,14.404296875,1.1138916015625
8.9299999,0.8403648138046265,0.21547815203666687,-10.575188636779785,-6.9732666015625,14.007568359375,7.568359375
8.9499999,0.8595184087753296,0.3519476354122162,-10.697293281555176,-6.65283203125,28.80859375,15.0146484375
8.969999900000001,0.9050082564353943,0.3758896589279175,-10.986991882324219,-8.97216796875,46.08154296875,18.73779296875
8.9899999,0.9959878921508789,0.12689268589019775,-11.245565414428711,-18.00537109375,69.610595703125,14.9078369140625
9.0099999,1.1324573755264282,-0.33997663855552673,-11.592724800109863,-11.04736328125,87.2039794921875,-7.1563720703125
9.0299999,1.3263877630233765,-1.0965443849563599,-11.8225679397583,-1.2664794921875,115.478515625,-29.388427734375
9.049999900000001,1.501164436340332,-1.9297266006469727,-11.8225679397583,-29.571533203125,152.4810791015625,-57.3883056640625
9.069999900000001,1.647210717201233,-2.920926094055176,-11.987768173217773,-65.8721923828125,149.4598388671875,-87.4176025390625
9.0899999,1.5849615335464478,-3.5266590118408203,-11.312602996826172,-76.0650634765625,201.4312744140625,-153.38134765625
9.1099999,1.525106430053711,-3.778050184249878,-10.103530883789062,-58.7921142578125,214.324951171875,-191.070556640625
9.129999900000001,1.3646949529647827,-3.2968156337738037,-8.827422142028809,-35.736083984375,120.3460693359375,-205.2459716796875
9.149999900000001,1.2473790645599365,-2.161964178085327,-7.343016624450684,-52.154541015625,91.9189453125,-218.719482421875
9.1699999,1.3000515699386597,-0.7350199222564697,-6.191405773162842,-79.9713134765625,130.462646484375,-234.405517578125
9.1899999,1.3982137441635132,0.8379706144332886,-5.693411827087402,-40.283203125,78.2470703125,-249.0997314453125
9.209999900000001,1.577778935432434,2.123656988143921,-5.104437828063965,-48.2177734375,37.4908447265625,-243.7591552734375
9.229999900000001,1.723825216293335,3.272873640060425,-4.721365928649902,-18.00537109375,20.32470703125,-253.2806396484375
9.2499999,1.680729627609253,4.048594951629639,-4.752490520477295,12.5885009765625,-12.0697021484375,-252.960205078125
9.2699999,1.4891934394836426,4.759673118591309,-4.764461517333984,2.5177001953125,-24.5361328125,-250.4425048828125
9.2899999,1.1085153818130493,5.602431774139404,-4.941632270812988,-5.828857421875,-46.7071533203125,-254.5318603515625
9.309999900000001,0.6416460275650024,6.1770405769348145,-5.2696380615234375,12.7105712890625,-87.8448486328125,-213.165283203125
9.3299999,0.1628057211637497,6.50025749206543,-5.410895824432373,10.8642578125,-92.132568359375,-193.634033203125
9.3499999,-0.35913026332855225,6.4380083084106445,-5.829881191253662,24.3682861328125,-99.8687744140625,-215.8050537109375
9.3699999,-0.9433154463768005,6.086060523986816,-5.7987565994262695,9.27734375,-104.7821044921875,-218.8568115234375
9.389999900000001,-1.6208745241165161,5.791574001312256,-5.904101371765137,14.09912109375,-139.6484375,-198.1201171875
9.4099999,-2.403778553009033,5.623979568481445,-5.947196960449219,9.490966796875,-171.9512939453125,-172.8363037109375
9.4299999,-3.2297780513763428,5.52821159362793,-6.179434776306152,-14.6026611328125,-148.1170654296875,-170.0286865234375
9.4499999,-4.079719543457031,5.5329999923706055,-6.531382083892822,-9.09423828125,-142.7154541015625,-176.7425537109375
9.469999900000001,-4.879383087158203,5.66228723526001,-6.430825710296631,13.092041015625,-147.7813720703125,-165.191650390625
9.4899999,-5.705382823944092,5.992686748504639,-5.643133640289307,43.1365966796875,-194.6868896484375,-140.289306640625
9.5099999,-6.603208065032959,5.944802761077881,-5.015852451324463,45.7611083984375,-268.218994140625,-112.79296875
9.5299999,-7.529764175415039,6.00226354598999,-4.819528102874756,7.6446533203125,-286.1175537109375,-128.7841796875
9.549999900000001,-8.473079681396484,5.825092792510986,-5.224148273468018,10.3912353515625,-210.5712890625,-122.98583984375
9.569999900000001,-9.217676162719727,6.045359134674072,-5.829881191253662,90.6524658203125,-179.4281005859375,-75.3631591796875
9.5899999,-9.890447616577148,6.5696892738342285,-5.793968200683594,108.2305908203125,-209.2132568359375,-13.85498046875
9.6099999,-10.407594680786133,7.146692276000977,-5.231330871582031,106.99462890625,-255.1727294921875,30.3192138671875
9.629999900000001,-10.917559623718262,7.51779317855835,-5.0014872550964355,121.429443359375,-262.26806640625,57.3883056640625
9.649999900000001,-11.355698585510254,7.522581577301025,-5.439626216888428,143.24951171875,-192.44384765625,97.3358154296875
9.6699999,-11.738770484924316,7.666234016418457,-6.44279670715332,188.0645751953125,-70.8770751953125,133.056640625
9.6899999,-11.949460983276367,7.357381820678711,-7.24485445022583,212.9669189453125,-8.1634521484375,198.1201171875
9.709999900000001,-11.908759117126465,6.861782073974609,-7.307103633880615,187.774658203125,-0.8087158203125,241.88232421875
9.729999900000001,-11.760318756103516,6.028599739074707,-6.514622688293457,192.138671875,14.892578125,221.405029296875
9.7499999,-11.152191162109375,4.335899353027344,-6.00226354598999,181.94580078125,9.9334716796875,223.8006591796875
9.7699999,-10.381258964538574,2.873042106628418,-5.252878665924072,148.895263671875,72.75390625,194.4122314453125
9.7899999,-9.399636268615723,1.8148049116134644,-5.351040840148926,158.905029296875,94.23828125,142.9595947265625
9.809999900000001,-8.508993148803711,1.6328455209732056,-5.789179801940918,191.89453125,73.3642578125,140.0146484375
9.8299999,-7.778761386871338,2.0901381969451904,-6.217741966247559,209.65576171875,134.2926025390625,155.5328369140625
9.8499999,-7.225700855255127,2.6360161304473877,-6.794744491577148,221.4202880859375,154.4036865234375,150.0396728515625
9.8699999,-6.631938934326172,2.5689783096313477,-7.228095054626465,222.6409912109375,126.861572265625,114.6087646484375
9.889999900000001,-6.045359134674072,2.360682964324951,-7.575253963470459,197.3876953125,112.73193359375,59.4940185546875
9.9099999,-5.4875102043151855,2.2361843585968018,-7.999027729034424,200.7598876953125,128.7384033203125,44.9981689453125
9.9299999,-4.932055473327637,2.142810583114624,-8.487444877624512,183.8531494140625,149.0020751953125,92.9412841796875
9.9499999,-4.479551315307617,1.9991583824157715,-9.117119789123535,139.617919921875,131.866455078125,94.7723388671875
9.969999900000001,-4.005499362945557,1.3048399686813354,-9.320627212524414,119.5068359375,151.153564453125,41.9158935546875
9.9899999,-3.464409828186035,0.4405331015586853,-9.045293807983398,102.0050048828125,157.8369140625,0.6866455078125
10.0099999,-2.9664158821105957,-0.26336219906806946,-9.153033256530762,88.0279541015625,80.3985595703125,-2.655029296875
10.0299999,-2.5498247146606445,-0.40701428055763245,-9.117119789123535,59.02099609375,85.8154296875,7.62939453125
10.049999900000001,-2.1787235736846924,-0.3064578175544739,-9.241618156433105,9.002685546875,157.8826904296875,6.53076171875
10.069999900000001,-1.802833914756775,-0.23702596127986908,-9.318233489990234,-8.9263916015625,128.997802734375,2.410888671875
10.0899999,-1.4628572463989258,-0.10534487664699554,-8.832210540771484,12.6953125,79.65087890625,-19.6075439453125
10.1099999,-1.0654197931289673,0.11971008777618408,-7.943961143493652,22.6287841796875,54.6722412109375,-23.5748291015625
10.129999900000001,-0.7445967197418213,0.5937620401382446,-7.441178798675537,11.4288330078125,17.913818359375,-11.16943359375
10.149999900000001,-0.44771572947502136,1.072602391242981,-7.378929615020752,6.0882568359375,4.8065185546875,9.5977783203125
10.1699999,-0.2346317619085312,1.4245500564575195,-7.627926826477051,4.058837890625,26.8096923828125,14.22119140625
10.1899999,-0.08619125932455063,1.5466543436050415,-8.037335395812988,-2.0904541015625,16.510009765625,6.8511962890625
10.209999900000001,0.031124621629714966,1.3287819623947144,-8.53293514251709,-6.16455078125,-22.735595703125,11.1236572265625
10.229999900000001,0.07900865375995636,1.1180921792984009,-8.777143478393555,-0.7476806640625,-10.5743408203125,9.5672607421875
10.2499999,0.09576806426048279,0.9074024558067322,-9.078812599182129,1.861572265625,1.556396484375,3.814697265625
10.2699999,0.06224924325942993,0.7924807667732239,-9.35893440246582,3.1585693359375,-15.07568359375,7.965087890625
10.2899999,0.014365210197865963,0.7541735172271729,-9.545681953430176,5.9967041015625,-18.890380859375,14.007568359375
10.309999900000001,-0.07422025501728058,0.7948749661445618,-9.775525093078613,10.650634765625,-11.3983154296875,10.6353759765625
10.3299999,-0.1412578970193863,0.7398083209991455,-10.02452278137207,9.552001953125,-3.96728515625,12.664794921875
10.3499999,-0.20111294090747833,0.6488286852836609,-10.20887565612793,5.401611328125,-0.7171630859375,12.1917724609375
10.3699999,-0.2537853717803955,0.6153098344802856,-10.223240852355957,5.1422119140625,-2.3956298828125,6.6070556640625
10.389999900000001,-0.26575639843940735,0.4596867263317108,-10.244789123535156,15.045166015625,-11.2762451171875,12.359619140625
10.4099999,-0.2777273952960968,0.3758896589279175,-10.11550235748291,15.7470703125,-0.946044921875,10.6353759765625
10.4299999,-0.28969839215278625,0.26336219906806946,-10.089165687561035,12.5274658203125,2.593994140625,1.922607421875
10.4499999,-0.2944868206977844,0.12928688526153564,-10.000580787658691,5.7830810546875,0.2899169921875,2.6702880859375
10.469999900000001,-0.31603461503982544,0.07422025501728058,-9.959878921508789,-1.15966796875,-1.8157958984375,0.4425048828125
10.4899999,-0.33279404044151306,0.011971008032560349,-9.909601211547852,-6.561279296875,-1.617431640625,0.18310546875
10.5099999,-0.3519476354122162,0.004788403399288654,-9.890447616577148,-10.1776123046875,3.173828125,-4.669189453125
10.5299999,-0.35434186458587646,0.021547814831137657,-9.923966407775879,-10.92529296875,-1.800537109375,-7.32421875
10.549999900000001,-0.3734954595565796,0.13168109953403473,-9.883264541625977,-10.589599609375,3.631591796875,-7.8125
10.569999900000001,-0.3734954595565796,0.2777273952960968,-9.931148529052734,-6.988525390625,1.5869140625,-2.86865234375
10.5899999,-0.3711012601852417,0.43095630407333374,-9.90241813659668,-4.852294921875,5.37109375,-0.1678466796875
10.6099999,-0.35434186458587646,0.5386953949928284,-9.909601211547852,-2.3956298828125,6.40869140625,-1.3580322265625
10.629999900000001,-0.33518823981285095,0.5985504388809204,-9.8784761428833,-0.2899169921875,3.6163330078125,-3.4027099609375
10.649999900000001,-0.31842881441116333,0.6655880808830261,-9.837775230407715,-0.091552734375,3.4942626953125,-2.471923828125
10.6699999,-0.3064578175544739,0.7110779285430908,-9.837775230407715,0.030517578125,1.617431640625,3.2958984375
10.6899999,-0.2944868206977844,0.7350199222564697,-9.792284965515137,1.0223388671875,7.38525390625,6.4697265625
10.709999900000001,-0.2777273952960968,0.6919242739677429,-9.785101890563965,6.6680908203125,3.7689208984375,4.8980712890625
10.729999900000001,-0.26815059781074524,0.6009446382522583,-9.751583099365234,6.805419921875,0.0152587890625,2.197265625
10.7499999,-0.2585737705230713,0.47644615173339844,-9.75637149810791,4.241943359375,-0.030517578125,3.7994384765625
10.7699999,-0.26096799969673157,0.40940847992897034,-9.773131370544434,-1.28173828125,3.5552978515625,1.4801025390625
10.7899999,-0.26575639843940735,0.33997663855552673,-9.816226959228516,-0.823974609375,3.4027099609375,2.8533935546875
10.809999900000001,-0.2513911724090576,0.27054479718208313,-9.78989028930664,-0.0457763671875,4.2572021484375,3.90625
10.8299999,-0.24660277366638184,0.26815059781074524,-9.782708168029785,-0.0762939453125,-0.518798828125,-1.6937255859375
10.8499999,-0.22744916379451752,0.2513911724090576,-9.737217903137207,-1.9378662109375,0.244140625,-1.3275146484375
10.8699999,-0.21547815203666687,0.2777273952960968,-9.708487510681152,-1.5716552734375,2.9449462890625,1.220703125
10.889999900000001,-0.2082955539226532,0.30885201692581177,-9.696516990661621,0.0762939453125,0.0762939453125,-0.091552734375
10.9099999,-0.2059013396501541,0.31842881441116333,-9.672574996948242,-0.42724609375,-1.2054443359375,-2.0904541015625
10.9299999,-0.2059013396501541,0.3232172429561615,-9.682151794433594,1.28173828125,-1.8157958984375,-2.5787353515625
10.9499999,-0.21547815203666687,0.3687070608139038,-9.708487510681152,-0.9002685546875,0.1220703125,-3.72314453125
10.969999900000001,-0.22744916379451752,0.45010992884635925,-9.770736694335938,-3.570556640625,0.9765625,-1.64794921875
10.9899999,-0.23702596127986908,0.5434837937355042,-9.797073364257812,-2.50244140625,3.6163330078125,1.2969970703125
11.0099999,-0.24660277366638184,0.5937620401382446,-9.816226959228516,-0.9918212890625,1.0223388671875,3.3111572265625
11.0299999,-0.24420857429504395,0.5817909836769104,-9.801861763000488,0.244140625,-1.0223388671875,2.50244140625
11.049999900000001,-0.23942017555236816,0.5147533416748047,-9.797073364257812,0.3509521484375,0.06103515625,-0.640869140625
11.069999900000001,-0.23702596127986908,0.45250412821769714,-9.81143856048584,-1.7242431640625,1.64794921875,-2.105712890625
11.0899999,-0.24181437492370605,0.4381389021873474,-9.84495735168457,-1.953125,2.0751953125,0.213623046875
11.1099999,-0.24181437492370605,0.42377370595932007,-9.852140426635742,-1.9073486328125,2.4566650390625,4.150390625
11.129999900000001,-0.24899697303771973,0.43095630407333374,-9.861717224121094,1.0986328125,0.91552734375,2.4261474609375
11.149999900000001,-0.24420857429504395,0.40462008118629456,-9.830592155456543,0.091552734375,1.861572265625,-0.4119873046875
11.1699999,-0.23702596127986908,0.37828385829925537,-9.81143856048584,-1.28173828125,1.4495849609375,0.091552734375
11.1899999,-0.2322375625371933,0.3902548849582672,-9.77791976928711,-1.861572265625,1.5716552734375,-0.457763671875
11.209999900000001,-0.22266076505184174,0.40940847992897034,-9.758766174316406,-1.2054443359375,0.1373291015625,0.7171630859375
11.229999900000001,-0.22266076505184174,0.43335050344467163,-9.727641105651855,1.03759765625,0.030517578125,1.15966796875
11.2499999,-0.22505496442317963,0.4381389021873474,-9.75637149810791,1.3427734375,-1.9378662109375,-0.213623046875
11.2699999,-0.22744916379451752,0.4141969084739685,-9.775525093078613,0.0457763671875,0.7476806640625,0.06103515625
11.2899999,-0.22744916379451752,0.395043283700943,-9.828198432922363,-1.9683837890625,2.7008056640625,-0.3204345703125
11.309999900000001,-0.2346317619085312,0.4141969084739685,-9.852140426635742,-2.7008056640625,1.129150390625,-1.983642578125
11.3299999,-0.23702596127986908,0.4405331015586853,-9.847352027893066,-0.9918212890625,-0.1068115234375,0.152587890625
11.3499999,-0.24660277366638184,0.47644615173339844,-9.864110946655273,0.7171630859375,-2.3956298828125,1.007080078125
11.3699999,-0.2537853717803955,0.4812345504760742,-9.880870819091797,0.396728515625,1.0833740234375,-0.4119873046875
11.389999900000001,-0.2585737705230713,0.47165772318840027,-9.93354320526123,-1.0833740234375,3.0517578125,-2.471923828125
11.4099999,-0.26336219906806946,0.47884035110473633,-9.947908401489258,-1.0833740234375,3.8299560546875,-3.47900390625
11.4299999,-0.26575639843940735,0.507570743560791,-9.945513725280762,-0.42724609375,1.2359619140625,-0.762939453125
11.4499999,-0.26815059781074524,0.5554547905921936,-9.926360130310059,0.762939453125,-0.1220703125,0.8697509765625
11.469999900000001,-0.26575639843940735,0.5961562395095825,-9.885659217834473,-0.396728515625,3.387451171875,0.9918212890625
11.4899999,-0.2585737705230713,0.5913678407669067,-9.8784761428833,-0.5340576171875,2.471923828125,1.28173828125
11.5099999,-0.24899697303771973,0.5650315880775452,-9.823410034179688,-0.396728515625,2.86865234375,0.91552734375
11.5299999,-0.24420857429504395,0.5315127968788147,-9.775525093078613,0.2288818359375,0.3662109375,-0.457763671875
11.549999900000001,-0.24420857429504395,0.49799394607543945,-9.718064308166504,0.8544921875,-0.8392333984375,0.0762939453125
11.569999900000001,-0.24660277366638184,0.49320554733276367,-9.68694019317627,-0.54931640625,-0.5645751953125,0.8697509765625
11.5899999,-0.24899697303771973,0.5099649429321289,-9.725247383117676,-1.373291015625,-0.1373291015625,1.0986328125
11.6099999,-0.2561795711517334,0.5626373887062073,-9.761159896850586,0.1220703125,3.448486328125,1.2054443359375
11.629999900000001,-0.2537853717803955,0.5650315880775452,-9.806650161743164,-0.7171630859375,3.3111572265625,4.6234130859375
11.649999900000001,-0.2513911724090576,0.5410895943641663,-9.821015357971191,2.74658203125,0.2593994140625,5.2032470703125
11.6699999,-0.24181437492370605,0.45250412821769714,-9.806650161743164,4.4708251953125,0.5950927734375,1.1138916015625
11.6899999,-0.23942017555236816,0.36152446269989014,-9.84256362915039,2.7923583984375,-1.5716552734375,-0.946044921875
11.709999900000001,-0.23702596127986908,0.29209262132644653,-9.971850395202637,1.861572265625,-1.0986328125,-0.091552734375
11.729999900000001,-0.24181437492370605,0.24899697303771973,-10.146626472473145,4.33349609375,6.256103515625,2.44140625
11.7499999,-0.23942017555236816,0.22505496442317963,-10.362105369567871,6.3323974609375,10.040283203125,1.46484375
11.7699999,-0.22026655077934265,0.17477671802043915,-10.56800651550293,6.89697265625,9.2010498046875,0.79345703125
11.7899999,-0.18914192914962769,0.1388636976480484,-10.687716484069824,4.8370361328125,15.8233642578125,0.6256103515625
11.809999900000001,-0.14844051003456116,0.1412578970193863,-10.852916717529297,10.8795166015625,20.263671875,1.2359619140625
11.8299999,-0.09816227108240128,0.1388636976480484,-10.986991882324219,19.8516845703125,29.4036865234375,6.4697265625
11.8499999,-0.028730420395731926,0.1388636976480484,-11.142614364624023,26.0162353515625,39.1693115234375,10.07080078125
11.8699999,0.021547814831137657,0.18914192914962769,-11.329362869262695,35.33935546875,45.684814453125,9.735107421875
11.889999900000001,0.09816227108240128,0.20111294090747833,-11.477803230285645,48.6297607421875,64.849853515625,18.5394287109375
11.9099999,0.21787235140800476,0.19632454216480255,-11.535264015197754,57.12890625,84.9456787109375,30.4107666015625
11.9299999,0.31842881441116333,0.11252748221158981,-11.45146656036377,92.2698974609375,107.0404052734375,29.815673828125
11.9499999,0.5602431893348694,-0.35434186458587646,-11.099518775939941,104.6142578125,111.9842529296875,37.7655029296875
11.969999900000001,0.7733271718025208,-1.1013327836990356,-10.867281913757324,114.3798828125,85.9832763671875,26.55029296875
11.9899999,1.0869675874710083,-2.3343467712402344,-11.109095573425293,119.781494140625,82.9010009765625,-3.7994384765625
12.0099999,1.357512354850769,-3.6128504276275635,-11.638214111328125,118.3013916015625,147.979736328125,-48.919677734375
12.0299999,1.623268723487854,-4.683058738708496,-11.966219902038574,74.2034912109375,235.7635498046875,-97.9766845703125
12.049999900000001,1.922544002532959,-5.655104637145996,-11.829751014709473,-16.754150390625,203.9794921875,-89.7979736328125
12.069999900000001,2.188300371170044,-6.311115741729736,-10.843339920043945,-19.989013671875,166.778564453125,-117.9351806640625
12.0899999,2.535459518432617,-6.931213855743408,-9.57441234588623,36.9873046875,173.9959716796875,-183.319091796875
12.1099999,2.5977089405059814,-7.082048416137695,-8.101978302001953,-10.3759765625,194.091796875,-253.8604736328125
12.129999900000001,2.693476915359497,-6.598419666290283,-6.512228488922119,-54.6112060546875,175.3387451171875,-282.073974609375
12.149999900000001,2.492363929748535,-5.061342239379883,-4.551377296447754,-63.323974609375,100.2655029296875,-288.63525390625
12.1699999,2.425326347351074,-3.179499864578247,-2.7748796939849854,-78.5980224609375,1.556396484375,-265.8233642578125
12.1899999,2.346317768096924,-1.3287819623947144,-1.3527239561080933,-111.572265625,-64.4073486328125,-265.7318115234375
12.209999900000001,2.2601263523101807,0.2513911724090576,-1.0582371950149536,-88.56201171875,-95.306396484375,-303.558349609375
12.229999900000001,1.9991583824157715,1.6112977266311646,-1.256955862045288,-66.8792724609375,-101.74560546875,-327.4993896484375
12.2499999,1.479616641998291,2.7772738933563232,-1.6519991159439087,-99.8687744140625,-121.7803955078125,-304.412841796875
12.2699999,0.6153098344802856,3.9264907836914062,-2.43011474609375,-67.5811767578125,-202.056884765625,-286.956787109375
12.289999900000002,-0.42377370595932007,4.6950297355651855,-3.2178070545196533,-41.9921875,-212.7685546875,-291.5802001953125
12.309999900000001,-1.5849615335464478,5.499481201171875,-3.957615375518799,-30.6549072265625,-166.4886474609375,-296.3714599609375
12.3299999,-2.7102363109588623,6.406883716583252,-4.661510944366455,-77.7435302734375,-178.8787841796875,-278.62548828125
12.3499999,-3.7612907886505127,7.383718013763428,-4.699818134307861,-126.5716552734375,-238.58642578125,-243.7744140625
12.3699999,-4.671087741851807,8.317456245422363,-5.104437828063965,-101.5777587890625,-264.9993896484375,-222.137451171875
12.389999900000001,-5.43723201751709,8.98543930053711,-5.3797712326049805,-50.7659912109375,-216.766357421875,-218.780517578125
12.4099999,-6.028599739074707,9.205705642700195,-5.698200225830078,-18.7530517578125,-133.36181640625,-172.6531982421875
12.4299999,-6.512228488922119,9.461885452270508,-5.224148273468018,15.7470703125,-176.6357421875,-137.02392578125
12.4499999,-7.1251444816589355,9.672574996948242,-3.713406801223755,24.1241455078125,-258.1787109375,-106.3690185546875
12.469999900000001,-7.82185697555542,9.763554573059082,-2.80361008644104,57.586669921875,-370.05615234375,-69.6563720703125
12.4899999,-8.638279914855957,9.81143856048584,-2.473210334777832,60.943603515625,-326.2481689453125,-22.9034423828125
12.5099999,-9.418789863586426,10.038887977600098,-3.4524388313293457,92.742919921875,-222.1221923828125,27.0843505859375
12.5299999,-9.99100399017334,10.196905136108398,-4.788403511047363,128.326416015625,-195.86181640625,100.2655029296875
12.549999900000001,-10.438719749450684,10.232817649841309,-5.681440830230713,96.19140625,-202.7130126953125,168.6859130859375
12.569999900000001,-10.529699325561523,9.732429504394531,-6.746860504150391,103.21044921875,-212.9364013671875,196.6552734375
12.5899999,-10.469843864440918,9.244012832641602,-7.50582218170166,154.23583984375,-98.1597900390625,194.5953369140625
12.6099999,-10.292673110961914,8.315062522888184,-7.960720539093018,194.244384765625,33.69140625,235.137939453125
12.629999900000001,-9.797073364257812,7.264008045196533,-8.17380428314209,156.3568115234375,16.0980224609375,274.23095703125
12.649999900000001,-9.315838813781738,6.3949127197265625,-7.666234016418457,116.51611328125,-23.4832763671875,237.1826171875
12.6699999,-8.561665534973145,5.20978307723999,-7.184999465942383,96.435546875,29.4952392578125,202.81982421875
12.6899999,-7.6782050132751465,4.874594688415527,-7.484274387359619,108.6883544921875,44.2962646484375,185.1959228515625
12.709999900000001,-6.9695210456848145,5.468356609344482,-8.183381080627441,147.1710205078125,101.4556884765625,190.093994140625
12.729999900000001,-6.189011573791504,5.74129581451416,-8.662221908569336,229.91943359375,184.844970703125,249.9237060546875
12.7499999,-5.446808815002441,5.7772088050842285,-8.382100105285645,317.962646484375,183.16650390625,217.8192138671875
12.7699999,-4.455609321594238,4.728548526763916,-7.3454108238220215,344.4061279296875,103.912353515625,120.78857421875
12.789999900000002,-3.292027235031128,3.181894063949585,-6.619967937469482,337.1124267578125,10.31494140625,77.08740234375
12.809999900000001,-2.099714994430542,1.8986018896102905,-6.320692539215088,294.097900390625,57.9833984375,63.3697509765625
12.8299999,-1.1468225717544556,1.216254472732544,-6.892906665802002,213.8214111328125,88.2720947265625,56.610107421875
12.8499999,-0.4429273009300232,0.7637503147125244,-7.65186882019043,176.1932373046875,44.1131591796875,53.03955078125
12.8699999,0.009576806798577309,0.3926490843296051,-8.26239013671875,186.920166015625,1.64794921875,48.309326171875
12.889999900000001,0.28730419278144836,-0.06703764945268631,-8.638279914855957,179.4891357421875,13.1072998046875,27.099609375
12.9099999,0.44532153010368347,-0.524330198764801,-8.956708908081055,149.6734619140625,27.9693603515625,7.4920654296875
12.9299999,0.45489832758903503,-0.6775590777397156,-9.301473617553711,110.8551025390625,6.988525390625,-3.1890869140625
12.9499999,0.3663128614425659,-0.7182605266571045,-9.440337181091309,79.8492431640625,7.1868896484375,11.016845703125
12.969999900000001,0.26815059781074524,-0.7972691655158997,-9.586383819580078,66.558837890625,18.37158203125,37.41455078125
12.9899999,0.1364694982767105,-0.9361328482627869,-9.586383819580078,49.1790771484375,23.13232421875,11.2457275390625
13.0099999,0.07182604819536209,-1.41257905960083,-9.533711433410645,35.3546142578125,15.0146484375,-4.1046142578125
13.0299999,0.023942016065120697,-1.8579005002975464,-9.44991397857666,32.0281982421875,0.30517578125,-8.9569091796875
13.049999900000001,-0.06224924325942993,-1.965639591217041,-9.452308654785156,22.9339599609375,2.6702880859375,-22.369384765625
13.069999900000001,-0.14604631066322327,-1.843535304069519,-9.59596061706543,17.3797607421875,12.8173828125,-15.7928466796875
13.0899999,-0.22744916379451752,-1.558625340461731,-9.75637149810791,16.5863037109375,17.3797607421875,3.84521484375
13.1099999,-0.2849099934101105,-1.2066776752471924,-9.864110946655273,7.8125,14.007568359375,1.03759765625
13.129999900000001,-0.24899697303771973,-1.113303780555725,-9.919178009033203,4.913330078125,7.32421875,1.2969970703125
13.149999900000001,-0.15322890877723694,-1.0630255937576294,-9.859322547912598,-2.13623046875,14.16015625,-0.9307861328125
13.1699999,0.002394201699644327,-1.0630255937576294,-9.892841339111328,-9.9029541015625,7.8277587890625,-2.9449462890625
13.1899999,0.17717093229293823,-1.0127472877502441,-9.861717224121094,-8.6669921875,8.1787109375,4.150390625
13.209999900000001,0.33279404044151306,-0.9409212470054626,-9.806650161743164,-4.1046142578125,12.87841796875,9.9029541015625
13.229999900000001,0.4668693244457245,-0.9193734526634216,-9.78989028930664,-0.7781982421875,6.561279296875,11.9476318359375
13.2499999,0.5650315880775452,-1.015141487121582,-9.797073364257812,4.058837890625,0.701904296875,12.3138427734375
13.2699999,0.6320692300796509,-1.1180921792984009,-9.837775230407715,1.007080078125,8.1939697265625,7.99560546875
13.289999900000002,0.6943184733390808,-1.2713210582733154,-9.911994934082031,-2.0751953125,9.09423828125,10.4827880859375
13.309999900000001,0.7254431247711182,-1.3120225667953491,-9.998186111450195,-1.129150390625,7.5836181640625,14.984130859375
13.3299999,0.7254431247711182,-1.3000515699386597,-10.031704902648926,-2.3651123046875,8.6822509765625,18.1732177734375
13.3499999,0.7015010714530945,-1.3287819623947144,-9.928754806518555,-6.1798095703125,18.280029296875,27.28271484375
13.3699999,0.6488286852836609,-1.4245500564575195,-9.75397777557373,-5.9967041015625,12.02392578125,28.167724609375
13.389999900000001,0.6177040338516235,-1.6400281190872192,-9.536105155944824,-6.8817138671875,-0.9765625,23.01025390625
13.4099999,0.6105214357376099,-1.8770540952682495,-9.390059471130371,-6.9122314453125,-1.52587890625,15.9912109375
13.4299999,0.6248866319656372,-2.0183119773864746,-9.39245319366455,-5.4779052734375,5.767822265625,12.39013671875
13.4499999,0.6344634294509888,-2.0398597717285156,-9.488221168518066,-3.3721923828125,9.9945068359375,14.8162841796875
13.469999900000001,0.6057330369949341,-1.9081788063049316,-9.57441234588623,-2.3956298828125,6.65283203125,15.56396484375
13.4899999,0.5602431893348694,-1.7764976024627686,-9.512163162231445,-4.6539306640625,7.2479248046875,17.1051025390625
13.5099999,0.5315127968788147,-1.7310078144073486,-9.366117477416992,-9.3994140625,5.0048828125,19.775390625
13.5299999,0.5363011956214905,-1.742978811264038,-9.17936897277832,-12.4359130859375,-4.0435791015625,11.4288330078125
13.549999900000001,0.5913678407669067,-1.8124107122421265,-9.078812599182129,-14.251708984375,-5.523681640625,3.23486328125
13.569999900000001,0.6775590777397156,-1.8626888990402222,-9.131484985351562,-16.632080078125,-2.899169921875,2.777099609375
13.5899999,0.7374141216278076,-1.7573440074920654,-9.334992408752441,-22.4151611328125,1.9683837890625,-1.4190673828125
13.6099999,0.7565677165985107,-1.5538369417190552,-9.509769439697266,-21.697998046875,7.354736328125,0.213623046875
13.629999900000001,0.7374141216278076,-1.3263877630233765,-9.583989143371582,-14.129638671875,5.828857421875,10.0250244140625
13.649999900000001,0.706289529800415,-1.139639973640442,-9.552865028381348,-10.1318359375,-6.103515625,12.1612548828125
13.6699999,0.6919242739677429,-1.1300631761550903,-9.53849983215332,-10.467529296875,-11.962890625,9.46044921875
13.6899999,0.6919242739677429,-1.2018892765045166,-9.583989143371582,-16.2353515625,-3.1280517578125,3.5400390625
13.709999900000001,0.6703764796257019,-1.316810965538025,-9.75637149810791,-15.960693359375,1.28173828125,-0.0762939453125
13.729999900000001,0.6248866319656372,-1.400607943534851,-9.93354320526123,-12.2833251953125,3.0364990234375,3.448486328125
13.7499999,0.5410895943641663,-1.4484920501708984,-9.988609313964844,-9.0484619140625,7.3089599609375,3.387451171875
13.7699999,0.45010992884635925,-1.4867992401123047,-9.892841339111328,-8.5601806640625,8.392333984375,-0.5340576171875
13.789999900000002,0.3926490843296051,-1.501164436340332,-9.75397777557373,-12.5274658203125,-2.2735595703125,-7.50732421875
13.809999900000001,0.3471592366695404,-1.381454348564148,-9.612719535827637,-17.7459716796875,-5.462646484375,-14.251708984375
13.8299999,0.3232172429561615,-1.0845733880996704,-9.543288230895996,-17.76123046875,1.0528564453125,-14.1448974609375
13.8499999,0.31124621629714966,-0.689530074596405,-9.5408935546875,-13.336181640625,1.251220703125,-3.326416015625
13.8699999,0.3256114423274994,-0.2825157940387726,-9.576807022094727,-7.4005126953125,-5.0811767578125,5.218505859375
13.889999900000001,0.3663128614425659,-0.028730420395731926,-9.557653427124023,-7.50732421875,-5.3558349609375,3.6163330078125
13.9099999,0.42856210470199585,0.08858546614646912,-9.607931137084961,-5.5389404296875,-8.1634521484375,1.068115234375
13.9299999,0.5219359993934631,0.0454898327589035,-9.66299819946289,-2.50244140625,-7.8887939453125,4.913330078125
13.9499999,0.6129156351089478,-0.023942016065120697,-9.813833236694336,-4.3182373046875,-6.9580078125,6.7596435546875
13.969999900000001,0.7110779285430908,-0.181959331035614,-9.947908401489258,-5.8746337890625,-1.2359619140625,7.8887939453125
13.9899999,0.7924807667732239,-0.3663128614425659,-10.04846477508545,-5.43212890625,4.150390625,6.2713623046875
14.0099999,0.8523358106613159,-0.5386953949928284,-10.070012092590332,-4.4403076171875,-0.1068115234375,0.030517578125
14.0299999,0.8786720037460327,-0.6177040338516235,-10.022128105163574,-6.34765625,-3.8604736328125,-2.685546875
14.049999900000001,0.8690952062606812,-0.5793967843055725,-9.976638793945312,-6.256103515625,-3.2958984375,-0.762939453125
14.069999900000001,0.849941611289978,-0.47644615173339844,-9.952696800231934,-4.425048828125,0.3509521484375,5.4168701171875
14.0899999,0.8020575642585754,-0.3711012601852417,-9.940725326538086,-4.6844482421875,1.9989013671875,4.45556640625
14.1099999,0.727837324142456,-0.33039984107017517,-9.916783332824707,-5.5389404296875,-0.6561279296875,0.457763671875
14.129999900000001,0.6536170840263367,-0.3519476354122162,-9.837775230407715,-4.0435791015625,-0.1678466796875,-0.885009765625
14.149999900000001,0.5602431893348694,-0.3447650372982025,-9.77791976928711,-3.7689208984375,-1.7242431640625,-1.15966796875
14.1699999,0.4812345504760742,-0.3208230137825012,-9.710882186889648,-6.3018798828125,-1.89208984375,-1.03759765625
14.1899999,0.42616790533065796,-0.2513911724090576,-9.751583099365234,-7.7972412109375,-3.7689208984375,0.8087158203125
14.209999900000001,0.3758896589279175,-0.1388636976480484,-9.90241813659668,-4.94384765625,-4.21142578125,0.6561279296875
14.229999900000001,0.3423708379268646,-0.10055647045373917,-10.053253173828125,-3.2501220703125,6.04248046875,5.8441162109375
14.2499999,0.33039984107017517,-0.1843535304069519,-10.20887565612793,-1.0223388671875,7.4615478515625,8.941650390625
14.2699999,0.3280056416988373,-0.3232172429561615,-10.244789123535156,-0.6866455078125,3.875732421875,-2.227783203125
14.289999900000002,0.3471592366695404,-0.4572925269603729,-10.17296314239502,-0.579833984375,4.8828125,-10.68115234375
14.309999900000001,0.3687070608139038,-0.4620809257030487,-10.089165687561035,-0.9613037109375,5.8135986328125,-6.927490234375
14.3299999,0.3711012601852417,-0.304063618183136,-9.952696800231934,0.1678466796875,8.8348388671875,-2.25830078125
14.3499999,0.36152446269989014,-0.10773907601833344,-9.768342971801758,-0.3814697265625,10.955810546875,0.3509521484375
14.3699999,0.3447650372982025,0.040701430290937424,-9.581595420837402,-0.244140625,2.7618408203125,-0.3814697265625
14.389999900000001,0.3447650372982025,0.10534487664699554,-9.41639518737793,-0.3204345703125,-1.617431640625,-2.0904541015625
14.4099999,0.35673606395721436,0.13168109953403473,-9.349357604980469,-2.471923828125,-0.6256103515625,-2.74658203125
14.4299999,0.3758896589279175,0.18914192914962769,-9.421183586120605,-3.204345703125,-0.48828125,-1.4801025390625
14.4499999,0.4118026793003082,0.22026655077934265,-9.560047149658203,-1.495361328125,-0.3204345703125,3.4332275390625
14.469999900000001,0.4381389021873474,0.24660277366638184,-9.708487510681152,0.213623046875,1.068115234375,5.2947998046875
14.4899999,0.4572925269603729,0.20350714027881622,-9.828198432922363,2.8228759765625,0.579833984375,3.5858154296875
14.5099999,0.4668693244457245,0.08140286058187485,-9.86650562286377,4.5928955078125,1.1138916015625,5.126953125
14.5299999,0.4596867263317108,-0.06703764945268631,-9.837775230407715,5.37109375,1.434326171875,4.791259765625
14.549999900000001,0.45010992884635925,-0.22266076505184174,-9.758766174316406,4.5623779296875,0.4119873046875,3.4637451171875
14.569999900000001,0.4429273009300232,-0.3758896589279175,-9.670180320739746,3.8604736328125,-0.4730224609375,3.9520263671875
14.5899999,0.42616790533065796,-0.4908113479614258,-9.593565940856934,4.2266845703125,-1.0223388671875,1.8463134765625
14.6099999,0.40462008118629456,-0.5937620401382446,-9.579200744628906,4.1046142578125,-2.288818359375,0.732421875
14.629999900000001,0.3734954595565796,-0.6655880808830261,-9.622296333312988,2.4871826171875,-2.9296875,-0.2288818359375
14.649999900000001,0.33997663855552673,-0.751779317855835,-9.6989107131958,2.532958984375,-0.640869140625,-0.5035400390625
14.6699999,0.3064578175544739,-0.7876923680305481,-9.81143856048584,1.4801025390625,-0.946044921875,-4.241943359375
14.6899999,0.28730419278144836,-0.8188169598579407,-9.914389610290527,1.52587890625,-1.190185546875,-5.4168701171875
14.709999900000001,0.2825157940387726,-0.8044517636299133,-10.000580787658691,0.67138671875,-0.0762939453125,-3.6468505859375
14.729999900000001,0.2849099934101105,-0.7206547260284424,-10.062829971313477,0.213623046875,0.701904296875,-6.6375732421875
14.7499999,0.304063618183136,-0.6272808313369751,-10.091560363769531,0.8544921875,1.40380859375,-4.3487548828125
14.7699999,0.31842881441116333,-0.5219359993934631,-10.074800491333008,0.91552734375,2.227783203125,-1.068115234375
14.789999900000002,0.33518823981285095,-0.44771572947502136,-10.046070098876953,1.8310546875,0.732421875,-0.2899169921875
14.809999900000001,0.3519476354122162,-0.4357447028160095,-9.99100399017334,1.28173828125,1.434326171875,-0.9613037109375
14.8299999,0.3663128614425659,-0.45250412821769714,-9.955090522766113,1.0986328125,1.708984375,-2.0294189453125
14.8499999,0.3734954595565796,-0.4644751250743866,-9.947908401489258,1.6326904296875,1.3580322265625,-2.3040771484375
14.8699999,0.38307225704193115,-0.4644751250743866,-9.950302124023438,0.8697509765625,2.9296875,0.79345703125
14.889999900000001,0.3878606855869293,-0.4596867263317108,-9.952696800231934,1.220703125,3.8299560546875,2.8228759765625
14.9099999,0.40222588181495667,-0.4908113479614258,-9.931148529052734,0.9765625,3.143310546875,1.9989013671875
14.9299999,0.4141969084739685,-0.5147533416748047,-9.93354320526123,0.885009765625,0.396728515625,-0.7781982421875
14.9499999,0.4165911078453064,-0.4836287498474121,-9.911994934082031,2.777099609375,2.4566650390625,-2.5177001953125
14.969999900000001,0.4141969084739685,-0.44532153010368347,-9.86889934539795,2.1820068359375,5.5084228515625,4.364013671875
14.9899999,0.40701428055763245,-0.36152446269989014,-9.72285270690918,3.326416015625,0.3204345703125,6.40869140625
15.0099999,0.38546648621559143,-0.26815059781074524,-9.44991397857666,1.0986328125,-11.04736328125,2.3040771484375
15.0299999,0.3758896589279175,-0.22026655077934265,-9.306262016296387,9.0789794921875,-30.364990234375,6.439208984375
15.049999900000001,0.35673606395721436,-0.21547815203666687,-9.327810287475586,22.8118896484375,-30.181884765625,12.0086669921875
15.069999900000001,0.31842881441116333,-0.19871874153614044,-9.318233489990234,18.157958984375,-2.1514892578125,7.8887939453125
15.0899999,0.2849099934101105,-0.29209262132644653,-9.555258750915527,17.8375244140625,-18.7835693359375,9.124755859375
15.1099999,0.21787235140800476,-0.3998316824436188,-9.679757118225098,25.5584716796875,-35.46142578125,12.14599609375
15.129999900000001,0.1604115068912506,-0.5482721924781799,-9.821015357971191,26.4434814453125,-14.1754150390625,11.199951171875
15.149999900000001,0.09816227108240128,-0.730231523513794,-10.074800491333008,25.115966796875,-6.1187744140625,9.33837890625
15.1699999,0.05746084079146385,-0.9457096457481384,-10.350133895874023,19.53125,-4.1046142578125,8.0108642578125
15.1899999,0.023942016065120697,-1.1516109704971313,-10.527304649353027,12.1307373046875,6.8359375,4.5623779296875
15.209999900000001,0.009576806798577309,-1.2617442607879639,-10.72841739654541,1.434326171875,16.845703125,0.3509521484375
15.229999900000001,-0.004788403399288654,-1.2330138683319092,-10.903194427490234,2.8228759765625,24.5361328125,3.3111572265625
15.2499999,0.009576806798577309,-1.091755986213684,-11.094730377197266,10.2996826171875,43.8995361328125,14.2059326171875
15.2699999,0.05027823522686958,-0.8858546018600464,-11.45146656036377,33.8592529296875,57.8765869140625,23.5748291015625
15.289999900000002,0.14365209639072418,-0.8355764150619507,-11.858481407165527,55.9539794921875,92.254638671875,27.6947021484375
15.309999900000001,0.272938996553421,-0.9911994934082031,-12.02846908569336,42.449951171875,133.4228515625,26.7791748046875
15.3299999,0.48602294921875,-1.3838485479354858,-11.815385818481445,12.75634765625,142.1356201171875,17.3797607421875
15.3499999,0.7422025203704834,-1.8962076902389526,-11.425130844116211,7.110595703125,109.7259521484375,7.7972412109375
15.3699999,1.1013327836990356,-2.561795711517334,-11.44907283782959,36.5753173828125,105.7281494140625,4.1046142578125
15.389999900000001,1.41257905960083,-3.1651346683502197,-11.939884185791016,45.83740234375,182.861328125,-17.27294921875
15.4099999,1.599326729774475,-3.758896589279175,-12.198457717895508,36.07177734375,299.37744140625,-52.978515625
15.4299999,1.8124107122421265,-4.3622355461120605,-11.480196952819824,-7.3089599609375,294.7845458984375,-59.2498779296875
15.4499999,2.1092917919158936,-4.994304656982422,-9.986215591430664,-1.3885498046875,172.54638671875,-80.7952880859375
15.469999900000001,2.6862943172454834,-5.781997203826904,-9.030928611755371,37.2467041015625,92.864990234375,-110.65673828125
15.4899999,3.1028854846954346,-6.023811340332031,-8.686163902282715,22.552490234375,239.7003173828125,-191.5130615234375
15.5099999,3.4117374420166016,-5.4875102043151855,-8.451532363891602,-49.835205078125,407.928466796875,-226.7913818359375
15.5299999,3.509899616241455,-3.971980571746826,-6.7923502922058105,-61.9354248046875,346.7254638671875,-164.337158203125
15.549999900000001,3.6511576175689697,-2.142810583114624,-4.146757125854492,27.6031494140625,78.8116455078125,-106.048583984375
15.569999900000001,4.163516521453857,-0.8044517636299133,-2.123656988143921,96.5576171875,-69.27490234375,-100.8453369140625
15.5899999,4.869806289672852,-0.17717093229293823,-1.3311761617660522,4.8065185546875,75.225830078125,-160.2935791015625
15.6099999,5.489904403686523,0.047884032130241394,-1.8626888990402222,-57.586669921875,160.888671875,-199.1729736328125
15.629999900000001,5.875370979309082,0.031124621629714966,-2.7940332889556885,-1.739501953125,50.2166748046875,-180.4351806640625
15.649999900000001,5.8657941818237305,0.42377370595932007,-2.913743495941162,46.0052490234375,-30.0750732421875,-181.060791015625
15.6699999,5.750872611999512,0.8547300100326538,-2.913743495941162,26.092529296875,-17.9290771484375,-196.502685546875
15.6899999,5.406107425689697,1.5514427423477173,-2.8419175148010254,14.4805908203125,-25.604248046875,-207.122802734375
15.709999900000001,5.051765441894531,2.011129379272461,-2.889801502227783,9.857177734375,-67.7642822265625,-197.1282958984375
15.729999900000001,4.563348293304443,2.87064790725708,-3.090914487838745,1.3275146484375,-117.0654296875,-230.46875
15.7499999,4.07014274597168,3.5673606395721436,-3.270479440689087,16.78466796875,-102.0660400390625,-229.461669921875
15.7699999,3.5218706130981445,4.458003520965576,-3.6822822093963623,57.9681396484375,-123.96240234375,-198.4100341796875
15.789999900000002,2.849100112915039,5.564124584197998,-3.2178070545196533,67.169189453125,-166.595458984375,-184.661865234375
15.809999900000001,1.8938134908676147,6.253654956817627,-2.5450363159179688,72.1282958984375,-268.280029296875,-170.34912109375
15.8299999,0.6200982332229614,6.36378812789917,-2.3319525718688965,82.5042724609375,-394.1192626953125,-165.71044921875
15.8499999,-0.8858546018600464,6.023811340332031,-2.9520506858825684,50.048828125,-390.838623046875,-189.14794921875
15.869999900000002,-2.5043349266052246,5.839457988739014,-4.434061527252197,30.94482421875,-326.2176513671875,-205.474853515625
15.889999900000001,-3.9456443786621094,6.289567947387695,-6.825869083404541,75.1800537109375,-361.6180419921875,-165.924072265625
15.9099999,-5.0876784324646,7.3238630294799805,-8.851364135742188,117.889404296875,-343.231201171875,-90.6829833984375
15.9299999,-5.841852188110352,8.401253700256348,-10.474632263183594,116.76025390625,-275.7720947265625,-29.937744140625
15.9499999,-6.2632317543029785,9.023746490478516,-11.681309700012207,77.606201171875,-243.011474609375,-8.1787109375
15.969999900000001,-6.445190906524658,8.678980827331543,-11.875240325927734,74.9053955078125,-218.8568115234375,32.257080078125
15.9899999,-6.53377628326416,7.5848307609558105,-11.750741958618164,101.25732421875,-206.6802978515625,61.1114501953125
16.0099999,-6.538564682006836,6.174646377563477,-11.777078628540039,95.3826904296875,-201.385498046875,54.8858642578125
16.0299999,-6.603208065032959,4.831499099731445,-11.736376762390137,53.8177490234375,-101.13525390625,40.8477783203125
16.0499999,-6.6127848625183105,4.060565948486328,-11.18092155456543,70.37353515625,-22.0184326171875,66.5435791015625
16.0699999,-6.682217121124268,4.278438568115234,-10.802638053894043,101.6845703125,-87.2039794921875,81.97021484375
16.089999900000002,-6.89530086517334,4.908113479614258,-9.50498104095459,79.7119140625,-93.81103515625,123.199462890625
16.109999900000002,-7.058106422424316,5.513846397399902,-8.5903959274292,82.5653076171875,-45.34912109375,164.276123046875
16.1299999,-7.340622425079346,6.167463779449463,-8.271966934204102,124.8626708984375,-46.112060546875,156.829833984375
16.1499999,-7.501033782958984,6.064512729644775,-8.638279914855957,146.7437744140625,-17.2271728515625,190.2313232421875
16.1699999,-7.752425193786621,6.1770405769348145,-8.983044624328613,142.9595947265625,66.0858154296875,219.5892333984375
16.1899999,-7.898471355438232,5.671864032745361,-9.739612579345703,141.876220703125,100.4791259765625,246.9024658203125
16.2099999,-7.781155586242676,4.443638324737549,-10.031704902648926,133.8653564453125,90.7745361328125,268.2952880859375
16.2299999,-7.285555839538574,2.7940332889556885,-10.194510459899902,110.7025146484375,115.997314453125,212.4176025390625
16.249999900000002,-6.473921298980713,1.0678139925003052,-10.342951774597168,142.1661376953125,142.364501953125,154.144287109375
16.269999900000002,-5.360617637634277,-0.24899697303771973,-10.362105369567871,156.8450927734375,194.0765380859375,153.0609130859375
16.2899999,-4.381389141082764,-0.7805097699165344,-10.424354553222656,161.92626953125,186.5386962890625,142.6849365234375
16.3099999,-3.4572272300720215,-0.5793967843055725,-9.62947940826416,106.353759765625,201.171875,105.712890625
16.3299999,-2.628833532333374,-0.5746083855628967,-9.770736694335938,119.2169189453125,119.384765625,103.2562255859375
16.3499999,-1.8962076902389526,-0.5099649429321289,-9.469067573547363,128.0670166015625,169.7235107421875,85.113525390625
16.3699999,-1.2066776752471924,-0.7613561153411865,-9.452308654785156,86.1663818359375,235.565185546875,46.112060546875
16.3899999,-0.5889736413955688,-1.1348515748977661,-9.229647636413574,70.404052734375,181.4422607421875,19.8516845703125
16.4099999,-0.040701430290937424,-1.3670891523361206,-8.130708694458008,73.7457275390625,122.8485107421875,-2.3651123046875
16.429999900000002,0.5195417404174805,-1.278503656387329,-6.636727333068848,32.989501953125,81.451416015625,-15.80810546875
16.4499999,1.0582371950149536,-0.993593692779541,-5.664681434631348,23.6053466796875,10.101318359375,-9.1400146484375
16.4699999,1.5514427423477173,-0.545877993106842,-5.027823448181152,18.73779296875,-0.6561279296875,-7.4005126953125
16.4899999,1.9081788063049316,-0.07661445438861847,-5.214571475982666,12.420654296875,-8.636474609375,-10.43701171875
16.5099999,2.1140801906585693,0.24181437492370605,-6.13633918762207,25.69580078125,-43.9453125,-1.9989013671875
16.5299999,2.1475989818573,0.5817909836769104,-7.101202011108398,15.350341796875,-28.80859375,1.8310546875
16.5499999,2.118868589401245,0.5961562395095825,-8.413225173950195,-1.068115234375,-26.3214111328125,8.758544921875
16.5699999,2.03507137298584,0.4908113479614258,-9.344569206237793,4.7149658203125,-19.71435546875,8.270263671875
16.589999900000002,1.968033790588379,0.13407529890537262,-10.005369186401367,9.5977783203125,-14.434814453125,1.0528564453125
16.609999900000002,1.9081788063049316,-0.27054479718208313,-10.261548042297363,13.824462890625,-19.7601318359375,-1.007080078125
16.6299999,1.7812861204147339,-0.3734954595565796,-10.338163375854492,2.8076171875,-17.730712890625,-12.5579833984375
16.6499999,1.6974890232086182,-0.47165772318840027,-10.340557098388672,-3.9215087890625,-14.892578125,3.082275390625
16.6699999,1.5658079385757446,-0.24181437492370605,-10.101137161254883,-8.5296630859375,4.6539306640625,4.0435791015625
16.6899999,1.4915876388549805,-0.15322890877723694,-10.017339706420898,-1.3885498046875,-15.8843994140625,4.7607421875
16.7099999,1.4508862495422363,-0.13168109953403473,-9.710882186889648,7.3699951171875,-17.1051025390625,6.072998046875
16.7299999,1.436521053314209,-0.20350714027881622,-9.672574996948242,7.4005126953125,-11.322021484375,0.2593994140625
16.749999900000002,1.414973258972168,-0.2537853717803955,-9.684545516967773,5.859375,-6.927490234375,-3.8909912109375
16.769999900000002,1.3910311460494995,-0.23702596127986908,-9.739612579345703,-6.561279296875,1.1138916015625,-2.1820068359375
16.7899999,1.3623007535934448,-0.1867477297782898,-9.782708168029785,-9.0789794921875,-9.46044921875,4.21142578125
16.8099999,1.3192051649093628,-0.07182604819536209,-9.715670585632324,-2.99072265625,-6.927490234375,1.0528564453125
16.8299999,1.3024457693099976,0.002394201699644327,-9.591172218322754,-0.1068115234375,-4.547119140625,-0.1068115234375
16.8499999,1.278503656387329,0.08619125932455063,-9.557653427124023,-2.1514892578125,-11.4898681640625,1.9073486328125
16.8699999,1.2641384601593018,0.10295066982507706,-9.588777542114258,-4.2877197265625,-14.984130859375,7.0037841796875
16.8899999,1.2521674633026123,0.08858546614646912,-9.653421401977539,-3.96728515625,-2.349853515625,5.828857421875
16.9099999,1.2545616626739502,-0.043095629662275314,-9.806650161743164,-0.9918212890625,-2.3193359375,4.241943359375
16.929999900000002,1.2521674633026123,-0.19153612852096558,-9.892841339111328,3.3416748046875,-1.9073486328125,3.0670166015625
16.9499999,1.2449848651885986,-0.2585737705230713,-9.852140426635742,-0.244140625,2.960205078125,-0.8544921875
16.9699999,1.194706678390503,-0.26575639843940735,-9.880870819091797,-2.227783203125,-3.84521484375,4.0435791015625
16.9899999,1.173158884048462,-0.26096799969673157,-9.739612579345703,-0.79345703125,2.410888671875,11.1541748046875
17.0099999,1.1300631761550903,-0.23702596127986908,-9.715670585632324,-0.7781982421875,0.244140625,5.5694580078125
17.0299999,1.1037269830703735,-0.2825157940387726,-9.720458984375,0.2288818359375,-4.2877197265625,3.662109375
17.0499999,1.0893617868423462,-0.3902548849582672,-9.80904483795166,4.94384765625,3.509521484375,8.0108642578125
17.0699999,1.0558429956436157,-0.47884035110473633,-9.926360130310059,6.8817138671875,8.087158203125,6.7901611328125
17.089999900000002,1.0199298858642578,-0.6368576288223267,-10.050858497619629,-1.15966796875,6.8511962890625,3.0059814453125
17.109999900000002,0.9888052940368652,-0.8044517636299133,-10.002974510192871,-1.1749267578125,8.3770751953125,0.640869140625
17.1299999,0.9552865028381348,-0.9074024558067322,-9.806650161743164,-1.6326904296875,12.115478515625,-7.5531005859375
17.1499999,0.9074024558067322,-0.8738836050033569,-9.536105155944824,-1.6021728515625,5.462646484375,-12.02392578125
17.1699999,0.8738836050033569,-0.7661445140838623,-9.227252960205078,4.94384765625,4.9285888671875,-7.6141357421875
17.1899999,0.8164227604866028,-0.48602294921875,-8.978256225585938,5.3558349609375,8.8348388671875,-8.8043212890625
17.2099999,0.8403648138046265,-0.30885201692581177,-8.607154846191406,-3.0059814453125,19.47021484375,-4.791259765625
17.2299999,0.8786720037460327,-0.10055647045373917,-8.26239013671875,-9.46044921875,2.0599365234375,-8.392333984375
17.249999900000002,0.9696516990661621,0.026336219161748886,-7.924807548522949,-8.1329345703125,-21.4996337890625,-7.5836181640625
17.269999900000002,1.036689281463623,0.20350714027881622,-7.723694801330566,-3.84521484375,-20.5078125,-4.2724609375
17.2899999,1.0869675874710083,0.2777273952960968,-7.800309181213379,-2.197265625,-21.9573974609375,6.4544677734375
17.3099999,1.0821791887283325,0.2825157940387726,-8.032546997070312,-3.8909912109375,-26.4892578125,10.2081298828125
17.3299999,1.072602391242981,0.1388636976480484,-8.365341186523438,-3.35693359375,-33.5693359375,5.218505859375
17.3499999,1.0031704902648926,-0.0454898327589035,-8.705317497253418,-4.4403076171875,-36.1328125,0.8544921875
17.3699999,0.8858546018600464,-0.19393034279346466,-9.121908187866211,1.15966796875,-40.802001953125,5.645751953125
17.3899999,0.7015010714530945,-0.3447650372982025,-9.569623947143555,11.0626220703125,-42.694091796875,14.6636962890625
17.409999900000003,0.5171475410461426,-0.5937620401382446,-10.127472877502441,15.4571533203125,-39.61181640625,18.2952880859375
17.429999900000002,0.3447650372982025,-0.9864110946655273,-10.599130630493164,8.6669921875,-26.9622802734375,7.26318359375
17.4499999,0.19632454216480255,-1.41257905960083,-10.927136421203613,1.5106201171875,-15.380859375,-6.53076171875
17.4699999,0.019153613597154617,-1.7405846118927002,-11.05642318725586,5.8135986328125,-19.04296875,-9.735107421875
17.4899999,-0.2106897532939911,-1.8100165128707886,-11.051634788513184,25.1617431640625,-20.0958251953125,-7.7056884765625
17.5099999,-0.5147533416748047,-1.5849615335464478,-10.83855152130127,35.1409912109375,-1.9378662109375,-4.8675537109375
17.5299999,-0.7015010714530945,-1.4508862495422363,-10.560823440551758,14.1448974609375,3.0670166015625,7.7362060546875
17.5499999,-0.7661445140838623,-1.5107412338256836,-10.314221382141113,-19.4244384765625,-14.7705078125,2.9449462890625
17.5699999,-0.7469909191131592,-1.5897499322891235,-10.086771965026855,-33.172607421875,-4.6844482421875,-33.9508056640625
17.589999900000002,-0.6607996821403503,-1.625662922859192,-10.11550235748291,-8.4991455078125,4.45556640625,-46.661376953125
17.609999900000002,-0.6224924325942993,-1.1013327836990356,-10.086771965026855,7.293701171875,17.4560546875,-32.470703125
17.6299999,-0.4836287498474121,-0.47165772318840027,-9.871294021606445,13.519287109375,20.7061767578125,-0.54931640625
17.6499999,-0.21787235140800476,0.12449848651885986,-9.311050415039062,6.988525390625,5.5999755859375,11.749267578125
17.6699999,0.1173158809542656,0.6224924325942993,-8.669404029846191,13.2293701171875,-21.2249755859375,-13.61083984375
17.6899999,0.43335050344467163,0.8044517636299133,-8.17141056060791,33.50830078125,-36.041259765625,3.143310546875
17.7099999,0.6200982332229614,0.790086567401886,-8.085219383239746,48.7518310546875,-36.5753173828125,44.219970703125
17.7299999,0.7254431247711182,0.40222588181495667,-8.4108304977417,47.4700927734375,-37.4755859375,56.854248046875
17.749999900000002,0.8020575642585754,-0.4118026793003082,-8.990227699279785,36.4990234375,-40.52734375,33.14208984375
17.769999900000002,0.8738836050033569,-1.3287819623947144,-9.59596061706543,17.1356201171875,-37.7197265625,9.27734375
17.7899999,0.8331822156906128,-1.843535304069519,-10.067618370056152,12.9241943359375,-36.7279052734375,2.1209716796875
17.8099999,0.6560112833976746,-1.7836803197860718,-10.321403503417969,14.2974853515625,-40.2679443359375,16.1895751953125
17.8299999,0.395043283700943,-1.4508862495422363,-10.596736907958984,22.8271484375,-55.72509765625,34.5611572265625
17.8499999,0.10773907601833344,-1.1324573755264282,-10.809821128845215,23.4832763671875,-45.4864501953125,34.1339111328125
17.8699999,-0.1843535304069519,-0.993593692779541,-11.101913452148438,13.763427734375,-27.9388427734375,16.5863037109375
17.8899999,-0.45010992884635925,-1.0606313943862915,-11.463438034057617,8.3770751953125,-32.8369140625,14.739990234375
17.909999900000003,-0.7158663272857666,-1.1899182796478271,-11.695674896240234,3.5247802734375,-27.34375,21.9879150390625
17.929999900000002,-0.9552865028381348,-1.3551181554794312,-11.72201156616211,0.762939453125,-9.7198486328125,20.8740234375
17.9499999,-1.1276689767837524,-1.599326729774475,-11.554417610168457,0.091552734375,-6.77490234375,13.4735107421875
17.9699999,-1.2713210582733154,-1.7549498081207275,-11.130643844604492,-8.270263671875,-12.3291015625,2.3956298828125
17.9899999,-1.4269442558288574,-1.7357962131500244,-10.627861022949219,-13.73291015625,-15.31982421875,-1.3427734375
18.0099999,-1.6089035272598267,-1.6136919260025024,-10.304644584655762,-5.9967041015625,-17.364501953125,10.3607177734375
18.0299999,-1.8171991109848022,-1.45806884765625,-10.20887565612793,1.1444091796875,-8.2244873046875,13.7939453125
18.0499999,-1.9536685943603516,-1.5682021379470825,-10.256759643554688,1.4801025390625,4.791259765625,9.8724365234375
18.0699999,-1.9823989868164062,-1.9704279899597168,-10.122684478759766,-3.0517578125,5.462646484375,-21.9573974609375
18.089999900000002,-1.8842366933822632,-1.922544002532959,-9.873687744140625,0.8544921875,-0.8087158203125,-16.7236328125
18.109999900000002,-1.7908629179000854,-1.5394717454910278,-9.579200744628906,-1.8310546875,1.6021728515625,-6.0272216796875
18.1299999,-1.6927006244659424,-1.0965443849563599,-9.354146003723145,-2.4261474609375,2.655029296875,1.312255859375
18.1499999,-1.6112977266311646,-0.7996633648872375,-9.215282440185547,-0.7476806640625,-0.8087158203125,4.5928955078125
18.1699999,-1.556231141090393,-0.7326257228851318,-9.121908187866211,0.42724609375,-3.2501220703125,2.227783203125
18.1899999,-1.5275006294250488,-0.8475474119186401,-9.141061782836914,0.9613037109375,-5.92041015625,-0.5950927734375
18.2099999,-1.5442601442337036,-1.0271124839782715,-9.308655738830566,5.5084228515625,-9.5977783203125,-0.3814697265625
18.2299999,-1.5825673341751099,-1.194706678390503,-9.47146224975586,5.6915283203125,-0.9613037109375,2.655029296875
18.249999900000002,-1.6304513216018677,-1.3479355573654175,-9.66539192199707,5.706787109375,0.6103515625,3.2501220703125
18.269999900000002,-1.6711528301239014,-1.4748282432556152,-9.691728591918945,4.5623779296875,-0.67138671875,1.1749267578125
18.2899999,-1.7046716213226318,-1.5514427423477173,-9.648633003234863,4.08935546875,-5.37109375,-2.655029296875
18.3099999,-1.7477672100067139,-1.558625340461731,-9.57201862335205,4.2877197265625,-6.9427490234375,-1.251220703125
18.3299999,-1.7836803197860718,-1.5514427423477173,-9.512163162231445,2.9144287109375,-2.2735595703125,4.39453125
18.3499999,-1.8291701078414917,-1.5322890281677246,-9.550470352172852,3.570556640625,-4.2877197265625,2.6397705078125
18.3699999,-1.8555063009262085,-1.5610195398330688,-9.536105155944824,1.7242431640625,-0.67138671875,-1.312255859375
18.3899999,-1.8746598958969116,-1.5873557329177856,-9.519346237182617,1.495361328125,-0.48828125,-3.0364990234375
18.409999900000003,-1.8746598958969116,-1.5705963373184204,-9.485827445983887,1.9683837890625,-3.84521484375,-1.5716552734375
18.429999900000002,-1.8770540952682495,-1.4652514457702637,-9.425971984863281,0.8697509765625,-1.861572265625,-1.0986328125
18.4499999,-1.8746598958969116,-1.3838485479354858,-9.425971984863281,2.1209716796875,-1.7547607421875,2.8076171875
18.4699999,-1.8794482946395874,-1.3479355573654175,-9.390059471130371,1.46484375,0.8544921875,4.7454833984375
18.4899999,-1.8794482946395874,-1.400607943534851,-9.3828763961792,1.77001953125,-1.4495849609375,2.3345947265625
18.5099999,-1.8842366933822632,-1.4963760375976562,-9.3828763961792,1.8768310546875,-4.638671875,-2.0294189453125
18.5299999,-1.9057846069335938,-1.5131354331970215,-9.44752025604248,0.4425048828125,-3.4332275390625,-2.9144287109375
18.5499999,-1.920149803161621,-1.5083470344543457,-9.497797966003418,-1.15966796875,2.410888671875,3.2806396484375
18.5699999,-1.9393033981323242,-1.460463047027588,-9.619902610778809,1.2664794921875,-1.678466796875,6.7138671875
18.589999900000002,-1.9345149993896484,-1.482010841369629,-9.679757118225098,4.486083984375,-2.74658203125,4.2266845703125
18.609999900000002,-1.9057846069335938,-1.558625340461731,-9.727641105651855,3.7994384765625,0.6103515625,0.244140625
18.6299999,-1.86508309841156,-1.625662922859192,-9.768342971801758,3.7078857421875,-0.9307861328125,-0.6103515625
18.6499999,-1.8411411046981812,-1.6376339197158813,-9.770736694335938,3.4637451171875,0.8544921875,0.244140625
18.6699999,-1.824381709098816,-1.6400281190872192,-9.737217903137207,1.8157958984375,1.922607421875,3.9825439453125
18.6899999,-1.8267759084701538,-1.6304513216018677,-9.674968719482422,0.6103515625,0.8697509765625,2.5787353515625
18.7099999,-1.8387469053268433,-1.6424223184585571,-9.612719535827637,1.312255859375,-1.8157958984375,-1.190185546875
18.7299999,-1.8555063009262085,-1.6615760326385498,-9.536105155944824,0.8087158203125,-0.0152587890625,-0.91552734375
18.749999900000002,-1.8818424940109253,-1.6424223184585571,-9.533711433410645,0.885009765625,-1.983642578125,-0.3814697265625
18.769999900000002,-1.9081788063049316,-1.6136919260025024,-9.488221168518066,-0.4119873046875,0.3204345703125,0.6561279296875
18.7899999,-1.9321208000183105,-1.6136919260025024,-9.514557838439941,2.6702880859375,-0.8544921875,2.197265625
18.8099999,-1.9608511924743652,-1.623268723487854,-9.476250648498535,2.9754638671875,-0.091552734375,0.3814697265625
18.8299999,-1.9728221893310547,-1.680729627609253,-9.50498104095459,2.8228759765625,-1.9683837890625,-1.8463134765625
18.8499999,-1.9919757843017578,-1.723825216293335,-9.53849983215332,6.561279296875,-2.593994140625,-3.4027099609375
18.8699999,-1.9919757843017578,-1.7860745191574097,-9.586383819580078,3.4332275390625,1.3275146484375,-3.5400390625
18.8899999,-1.9991583824157715,-1.8124107122421265,-9.66539192199707,2.9296875,-0.335693359375,-4.852294921875
18.909999900000003,-1.9919757843017578,-1.8291701078414917,-9.715670585632324,3.692626953125,2.01416015625,-3.0517578125
18.929999900000002,-1.9967641830444336,-1.802833914756775,-9.739612579345703,3.8604736328125,3.6773681640625,-1.52587890625
18.9499999,-1.987187385559082,-1.800439715385437,-9.730035781860352,5.859375,3.7689208984375,1.9378662109375
18.9699999,-1.9752163887023926,-1.8171991109848022,-9.6989107131958,8.4228515625,3.6773681640625,2.166748046875
18.9899999,-1.9584569931030273,-1.8531121015548706,-9.639056205749512,8.331298828125,4.9285888671875,-1.4495849609375
19.0099999,-1.944091796875,-1.8722656965255737,-9.605537414550781,6.0882568359375,6.0272216796875,-1.4801025390625
19.0299999,-1.9129672050476074,-1.900996208190918,-9.550470352172852,4.4097900390625,7.4310302734375,3.0059814453125
19.0499999,-1.9033904075622559,-1.8722656965255737,-9.552865028381348,3.11279296875,5.279541015625,1.434326171875
19.0699999,-1.8962076902389526,-1.8555063009262085,-9.552865028381348,4.5318603515625,5.462646484375,0
19.089999900000002,-1.889025092124939,-1.867477297782898,-9.622296333312988,11.2762451171875,6.9732666015625,5.157470703125
19.109999900000002,-1.8962076902389526,-1.8531121015548706,-9.701305389404297,19.3328857421875,9.7198486328125,6.103515625
19.1299999,-1.8962076902389526,-1.7956513166427612,-9.880870819091797,21.759033203125,10.772705078125,6.6986083984375
19.1499999,-1.900996208190918,-1.6328455209732056,-10.216058731079102,12.7410888671875,14.923095703125,12.3138427734375
19.1699999,-1.8842366933822632,-1.4413094520568848,-10.517727851867676,-2.8228759765625,40.2069091796875,29.23583984375
19.1899999,-1.843535304069519,-1.2258312702178955,-10.733205795288086,4.33349609375,60.3790283203125,39.0777587890625
19.2099999,-1.7477672100067139,-1.158793568611145,-10.910377502441406,26.3214111328125,55.267333984375,46.5087890625
19.2299999,-1.623268723487854,-1.2880805730819702,-11.070788383483887,14.5111083984375,65.338134765625,50.6591796875
19.249999900000002,-1.357512354850769,-1.8387469053268433,-11.693281173706055,-1.5106201171875,98.5260009765625,56.640625
19.269999900000002,-1.158793568611145,-2.693476915359497,-12.531251907348633,-5.126953125,172.6226806640625,31.6314697265625
19.2899999,-0.933738648891449,-3.706224203109741,-12.926295280456543,-37.872314453125,259.2620849609375,-12.0086669921875
19.3099999,-0.7422025203704834,-4.587290287017822,-12.789825439453125,-59.0972900390625,250.091552734375,-44.952392578125
19.3299999,-0.5554547905921936,-5.039794445037842,-11.961431503295898,-54.62646484375,209.197998046875,-59.7381591796875
19.3499999,-0.19632454216480255,-5.171475887298584,-10.831368446350098,-22.4761962890625,225.311279296875,-70.6329345703125
19.3699999,0.181959331035614,-4.76924991607666,-9.763554573059082,-10.345458984375,251.220703125,-106.26220703125
19.3899999,0.7852981686592102,-4.120420932769775,-8.937555313110352,-43.15185546875,231.1859130859375,-120.4071044921875
19.409999900000003,1.357512354850769,-3.1028854846954346,-7.817068576812744,-34.515380859375,203.9642333984375,-114.6087646484375
19.429999900000002,2.0829553604125977,-2.1595699787139893,-6.586448669433594,-21.78955078125,178.497314453125,-101.9134521484375
19.4499999,2.8443117141723633,-1.4628572463989258,-5.827486991882324,-10.6353759765625,106.048583984375,-107.11669921875
19.4699999,3.581725835800171,-1.3838485479354858,-5.240907669067383,-19.47021484375,103.21044921875,-121.2005615234375
19.4899999,4.132391929626465,-1.5418659448623657,-4.953603267669678,-11.199951171875,130.340576171875,-161.6668701171875
19.5099999,4.4508209228515625,-1.946485996246338,-4.843470096588135,5.4168701171875,61.553955078125,-182.5714111328125
19.5299999,4.474762916564941,-2.169146776199341,-4.623203277587891,-8.0718994140625,-8.4075927734375,-209.442138671875
19.5499999,4.268861770629883,-1.9177556037902832,-4.721365928649902,-16.5557861328125,-34.97314453125,-246.826171875
19.5699999,3.8977603912353516,-1.1779472827911377,-4.776432514190674,-26.9317626953125,-18.1732177734375,-266.6778564453125
19.589999900000002,3.426102638244629,-0.08858546614646912,-5.166687488555908,-23.284912109375,-44.403076171875,-250.8392333984375
19.609999900000002,2.8634653091430664,1.4508862495422363,-5.145139217376709,-34.7137451171875,-84.4573974609375,-250.7781982421875
19.6299999,2.2864625453948975,2.8107926845550537,-5.360617637634277,-11.2457275390625,-128.7384033203125,-244.4610595703125
19.6499999,1.7334020137786865,4.050989151000977,-5.403713226318359,18.6004638671875,-122.13134765625,-229.6295166015625
19.6699999,1.1899182796478271,5.329493045806885,-6.00226354598999,39.3829345703125,-151.1688232421875,-222.747802734375
19.6899999,0.608127236366272,6.325480937957764,-5.679046630859375,2.7313232421875,-129.7149658203125,-186.9964599609375
19.7099999,-0.05267243832349777,7.036558628082275,-6.229712963104248,35.003662109375,-225.52490234375,-159.4390869140625
19.7299999,-0.7086837291717529,7.259219646453857,-6.385335922241211,67.0166015625,-252.7008056640625,-141.021728515625
19.749999900000002,-1.403002142906189,6.950367450714111,-7.422025203704834,62.530517578125,-203.91845703125,-130.0811767578125
19.769999900000002,-2.030282974243164,6.299144744873047,-8.022970199584961,29.4189453125,-170.47119140625,-117.9962158203125
19.7899999,-2.7269957065582275,5.894524574279785,-8.62391471862793,32.1807861328125,-206.11572265625,-118.5302734375
19.8099999,-3.4117374420166016,5.647922039031982,-8.53532886505127,75.1953125,-250.1678466796875,-87.1429443359375
19.8299999,-4.216189384460449,5.580883979797363,-8.504204750061035,118.2403564453125,-242.49267578125,-41.5802001953125
19.8499999,-4.929661273956299,5.501875400543213,-8.216899871826172,129.8065185546875,-197.7386474609375,-22.9949951171875
19.8699999,-5.578489780426025,4.927267074584961,-8.772355079650879,149.8260498046875,-237.9913330078125,-3.0059814453125
19.8899999,-6.090848922729492,4.1611223220825195,-8.53293514251709,106.2469482421875,-196.7620849609375,5.9356689453125
19.909999900000003,-6.53377628326416,3.512293815612793,-8.992621421813965,103.9276123046875,-179.7637939453125,-2.044677734375
19.929999900000002,-6.890512466430664,3.248931646347046,-9.366117477416992,136.0626220703125,-178.9398193359375,27.4810791015625
19.9499999,-7.2568254470825195,3.4955344200134277,-9.493009567260742,131.591796875,-117.2027587890625,70.86181640625
19.9699999,-7.594407558441162,3.866635799407959,-9.57441234588623,125.9918212890625,-107.7117919921875,112.823486328125
19.9899999,-7.802703380584717,3.6320040225982666,-9.500192642211914,125.091552734375,-119.6441650390625,135.3912353515625
20.0099999,-7.931990146636963,3.028665065765381,-9.27034854888916,103.912353515625,-81.573486328125,116.9281005859375
20.0299999,-8.001421928405762,2.3726539611816406,-9.394847869873047,128.997802734375,-23.7579345703125,96.0693359375
20.0499999,-8.075642585754395,1.843535304069519,-9.552865028381348,161.4837646484375,42.4957275390625,121.429443359375
20.0699999,-8.068459510803223,1.5179238319396973,-9.564835548400879,118.9422607421875,76.5838623046875,170.22705078125
20.089999900000002,-8.02536392211914,1.3048399686813354,-9.528923034667969,68.5882568359375,71.319580078125,158.50830078125
