# Time (seconds),Accel_X,Accel_Y,Accel_Z,Gyro_X,Gyro_Y,Gyro_Z
0.0099999,-1.113303780555725,-0.6416460275650024,-9.732429504394531,-6.6375732421875,-0.9002685546875,-4.2724609375
0.029999900000000003,-1.1085153818130493,-0.6560112833976746,-9.739612579345703,-10.0860595703125,1.068115234375,-4.6234130859375
0.0499999,-1.113303780555725,-0.6416460275650024,-9.744400978088379,-14.9383544921875,1.64794921875,-7.080078125
0.0699999,-1.113303780555725,-0.5985504388809204,-9.761159896850586,-12.664794921875,0.42724609375,-6.805419921875
0.08999990000000001,-1.1204863786697388,-0.5291185975074768,-9.758766174316406,-10.3302001953125,1.28173828125,-3.0975341796875
0.10999990000000001,-1.1252747774124146,-0.42856210470199585,-9.751583099365234,-9.368896484375,2.471923828125,-1.77001953125
0.1299999,-1.1324573755264282,-0.33997663855552673,-9.75637149810791,-7.293701171875,0.5035400390625,-1.556396484375
0.14999990000000002,-1.137245774269104,-0.28730419278144836,-9.751583099365234,-6.34765625,0.5950927734375,-0.091552734375
0.1699999,-1.1468225717544556,-0.26815059781074524,-9.75637149810791,-7.14111328125,1.220703125,0.9765625
0.1899999,-1.158793568611145,-0.26815059781074524,-9.775525093078613,-6.6986083984375,0.9613037109375,-1.15966796875
0.20999990000000002,-1.1683704853057861,-0.2992752194404602,-9.773131370544434,-6.103515625,0.9613037109375,-1.64794921875
0.2299999,-1.1779472827911377,-0.31842881441116333,-9.763554573059082,-7.9193115234375,0.6103515625,-1.8310546875
0.2499999,-1.1779472827911377,-0.3208230137825012,-9.746794700622559,-9.765625,-0.8544921875,-2.99072265625
0.2699999,-1.1779472827911377,-0.2992752194404602,-9.730035781860352,-9.46044921875,-0.79345703125,-3.509521484375
0.28999990000000003,-1.170764684677124,-0.26575639843940735,-9.720458984375,-10.101318359375,-0.0152587890625,-2.777099609375
0.3099999,-1.158793568611145,-0.22505496442317963,-9.718064308166504,-9.94873046875,0.1068115234375,-2.5787353515625
0.3299999,-1.1444283723831177,-0.17956513166427612,-9.727641105651855,-8.11767578125,-1.0986328125,-3.631591796875
0.34999990000000003,-1.1324573755264282,-0.12928688526153564,-9.746794700622559,-8.1329345703125,-1.0986328125,-4.7607421875
0.3699999,-1.1252747774124146,-0.05746084079146385,-9.792284965515137,-7.720947265625,-1.0986328125,-4.5013427734375
0.3899999,-1.1276689767837524,0.028730420395731926,-9.861717224121094,-8.11767578125,-1.0528564453125,-3.7078857421875
0.40999990000000003,-1.139639973640442,0.12449848651885986,-9.93593692779541,-7.9193115234375,-0.0457763671875,-3.448486328125
0.4299999,-1.1516109704971313,0.23942017555236816,-10.019734382629395,-7.232666015625,-0.3204345703125,-4.57763671875
0.4499999,-1.1659762859344482,0.3734954595565796,-10.108319282531738,-6.5460205078125,-0.0762939453125,-3.509521484375
0.4699999,-1.1971008777618408,0.608127236366272,-10.204087257385254,-3.4027099609375,2.593994140625,2.5634765625
0.4899999,-1.2282254695892334,0.6655880808830261,-10.194510459899902,-3.753662109375,1.8157958984375,2.3040771484375
0.5099999,-1.259350061416626,0.6272808313369751,-10.146626472473145,-8.3465576171875,1.495361328125,3.997802734375
0.5299999,-1.3000515699386597,0.5195417404174805,-10.034099578857422,-15.6097412109375,3.173828125,6.744384765625
0.5499999,-1.3263877630233765,0.3495534360408783,-9.897629737854004,-20.8892822265625,1.15966796875,5.5389404296875
0.5699999,-1.338358759880066,0.19871874153614044,-9.744400978088379,-25.4974365234375,-1.2664794921875,1.922607421875
0.5899998999999999,-1.314416766166687,0.10534487664699554,-9.588777542114258,-25.390625,-0.3662109375,1.068115234375
0.6099998999999999,-1.2641384601593018,0.06224924325942993,-9.442731857299805,-18.1427001953125,0.3662109375,3.662109375
0.6299999,-1.1971008777618408,0.07900865375995636,-9.351752281188965,-14.4195556640625,-3.2196044921875,3.7384033203125
0.6499999,-1.1228805780410767,0.10534487664699554,-9.263166427612305,-16.4947509765625,-2.288818359375,1.0986328125
0.6699999,-1.0630255937576294,0.14844051003456116,-9.23443603515625,-15.289306640625,-2.2430419921875,0.4119873046875
0.6899999,-1.0319008827209473,0.21547815203666687,-9.232041358947754,-10.0860595703125,-4.21142578125,0.67138671875
0.7099999,-1.0295066833496094,0.30885201692581177,-9.260771751403809,-7.5836181640625,-5.7220458984375,0.518798828125
0.7299998999999999,-1.0678139925003052,0.40701428055763245,-9.30386734008789,-7.843017578125,-5.55419921875,-0.335693359375
0.7499998999999999,-1.1300631761550903,0.48602294921875,-9.370905876159668,-6.7138671875,-6.16455078125,0.2899169921875
0.7699999,-1.216254472732544,0.545877993106842,-9.466673851013184,-4.21142578125,-7.62939453125,0.8544921875
0.7899999,-1.3000515699386597,0.5841852426528931,-9.5408935546875,-2.5482177734375,-6.439208984375,0.6561279296875
0.8099999,-1.3838485479354858,0.586579442024231,-9.634267807006836,-2.0294189453125,-6.4239501953125,0.6866455078125
0.8299999,-1.4484920501708984,0.5770025849342346,-9.68933391571045,-2.5787353515625,-5.615234375,0.274658203125
0.8499998999999999,-1.4915876388549805,0.569819986820221,-9.75397777557373,-1.7852783203125,-5.645751953125,-0.274658203125
0.8699998999999999,-1.5155296325683594,0.5817909836769104,-9.81143856048584,-2.0599365234375,-5.31005859375,-0.3814697265625
0.8899999,-1.522712230682373,0.6320692300796509,-9.86889934539795,-2.288818359375,-3.4332275390625,-1.0528564453125
0.9099999,-1.5179238319396973,0.689530074596405,-9.921571731567383,-2.2735595703125,-1.9989013671875,-0.4425048828125
0.9299999,-1.50355863571167,0.7541735172271729,-9.95748519897461,-4.1351318359375,-1.2664794921875,-0.152587890625
0.9499999,-1.482010841369629,0.8355764150619507,-9.971850395202637,-5.1727294921875,-0.762939453125,-2.2735595703125
0.9699998999999999,-1.455674648284912,0.9002198576927185,-9.976638793945312,-4.150390625,0.30517578125,-1.1749267578125
0.9899998999999999,-1.4389152526855469,0.9696516990661621,-9.962273597717285,-3.1585693359375,1.739501953125,0.30517578125
1.0099999,-1.4197616577148438,1.0079588890075684,-9.919178009033203,-3.72314453125,3.204345703125,0.701904296875
1.0299999,-1.414973258972168,1.0414776802062988,-9.856928825378418,-3.35693359375,2.7313232421875,-1.007080078125
1.0499999,-1.414973258972168,1.0630255937576294,-9.77791976928711,-2.0751953125,2.3193359375,-0.640869140625
1.0699999,-1.4197616577148438,1.0869675874710083,-9.701305389404297,-1.64794921875,2.3651123046875,1.3885498046875
1.0899999,-1.4245500564575195,1.1085153818130493,-9.619902610778809,-1.2359619140625,2.685546875,1.6937255859375
1.1099999,-1.4317326545715332,1.1109095811843872,-9.564835548400879,-1.8310546875,0.9765625,1.1444091796875
1.1299999,-1.4389152526855469,1.0965443849563599,-9.516951560974121,-2.1209716796875,0.457763671875,1.2054443359375
1.1499999,-1.4413094520568848,1.0630255937576294,-9.481039047241211,-0.762939453125,0.8544921875,2.0294189453125
1.1699998999999999,-1.4460978507995605,1.0342950820922852,-9.461885452270508,-1.739501953125,-0.030517578125,1.7242431640625
1.1899998999999999,-1.4484920501708984,1.0007762908935547,-9.442731857299805,-2.471923828125,-0.6103515625,1.3885498046875
1.2099999,-1.4508862495422363,0.9696516990661621,-9.435548782348633,-2.4566650390625,-0.67138671875,2.2125244140625
1.2299999,-1.455674648284912,0.9481038451194763,-9.437943458557129,-1.7852783203125,-0.4730224609375,2.5177001953125
1.2499999,-1.460463047027588,0.912190854549408,-9.44991397857666,-2.3193359375,-0.7171630859375,2.5177001953125
1.2699999,-1.4676456451416016,0.8834604024887085,-9.488221168518066,-3.936767578125,-1.3427734375,1.7547607421875
1.2899999,-1.4724340438842773,0.8619126081466675,-9.536105155944824,-5.0506591796875,-0.457763671875,0.91552734375
1.3099999,-1.4891934394836426,0.8379706144332886,-9.605537414550781,-3.082275390625,0.030517578125,1.220703125
1.3299999,-1.5107412338256836,0.8355764150619507,-9.679757118225098,-2.288818359375,-0.4730224609375,-0.1220703125
1.3499999,-1.534683346748352,0.8259995579719543,-9.751583099365234,-3.3721923828125,-0.0457763671875,-1.434326171875
1.3699999,-1.5634137392044067,0.8020575642585754,-9.804255485534668,-2.777099609375,1.6937255859375,-1.7242431640625
1.3899999,-1.5873557329177856,0.7924807667732239,-9.837775230407715,-3.1585693359375,2.13623046875,-3.143310546875
1.4099999,-1.6065093278884888,0.8044517636299133,-9.852140426635742,-4.302978515625,1.678466796875,-4.5318603515625
1.4299998999999999,-1.6160861253738403,0.8571242094039917,-9.852140426635742,-4.33349609375,2.25830078125,-4.1961669921875
1.4499999,-1.6160861253738403,0.9361328482627869,-9.86650562286377,-3.173828125,2.838134765625,-2.62451171875
1.4699999,-1.6160861253738403,1.0199298858642578,-9.86889934539795,-2.50244140625,3.6468505859375,-1.495361328125
1.4899999,-1.6065093278884888,1.0582371950149536,-9.856928825378418,-2.50244140625,4.4708251953125,-1.007080078125
1.5099999,-1.5873557329177856,1.0414776802062988,-9.823410034179688,-3.8604736328125,4.8828125,-1.434326171875
1.5299999,-1.558625340461731,1.0127472877502441,-9.773131370544434,-4.5623779296875,3.9825439453125,-3.41796875
1.5499999,-1.5179238319396973,0.9816226959228516,-9.727641105651855,-4.9591064453125,4.08935546875,-3.9825439453125
1.5699999,-1.4724340438842773,0.9959878921508789,-9.694122314453125,-5.92041015625,4.4097900390625,-4.33349609375
1.5899999,-1.4317326545715332,1.0462661981582642,-9.670180320739746,-6.2408447265625,4.21142578125,-4.5318603515625
1.6099999,-1.4053963422775269,1.1252747774124146,-9.677363395690918,-5.828857421875,2.8076171875,-4.08935546875
1.6299999,-1.3886369466781616,1.2114660739898682,-9.677363395690918,-5.767822265625,3.9215087890625,-3.5400390625
1.6499999,-1.3886369466781616,1.280897855758667,-9.6989107131958,-5.2032470703125,4.7607421875,-2.349853515625
1.6699999,-1.3910311460494995,1.3287819623947144,-9.710882186889648,-4.8675537109375,4.6234130859375,-3.0059814453125
1.6899998999999999,-1.4053963422775269,1.3646949529647827,-9.72285270690918,-4.1046142578125,4.3792724609375,-3.9825439453125
1.7099999,-1.41257905960083,1.3670891523361206,-9.708487510681152,-3.326416015625,5.4473876953125,-2.9449462890625
1.7299999,-1.4197616577148438,1.3646949529647827,-9.691728591918945,-3.631591796875,5.31005859375,-2.410888671875
1.7499999,-1.4221558570861816,1.3503297567367554,-9.658209800720215,-3.8299560546875,4.974365234375,-3.4027099609375
1.7699999,-1.414973258972168,1.3239935636520386,-9.622296333312988,-2.838134765625,4.791259765625,-4.058837890625
1.7899999,-1.414973258972168,1.290474772453308,-9.612719535827637,-3.0975341796875,4.241943359375,-3.2806396484375
1.8099999,-1.400607943534851,1.2282254695892334,-9.619902610778809,-2.044677734375,5.4779052734375,-2.7008056640625
1.8299999,-1.3886369466781616,1.1851298809051514,-9.627084732055664,-2.4871826171875,7.5225830078125,-5.7525634765625
1.8499999,-1.3670891523361206,1.1683704853057861,-9.641449928283691,-3.8909912109375,6.53076171875,-7.4005126953125
1.8699999,-1.3455413579940796,1.2018892765045166,-9.622296333312988,-2.0599365234375,5.2947998046875,-5.035400390625
1.8899999,-1.3311761617660522,1.259350061416626,-9.59596061706543,-0.244140625,4.9591064453125,-1.007080078125
1.9099999,-1.3263877630233765,1.259350061416626,-9.576807022094727,-0.274658203125,5.0811767578125,0.2899169921875
1.9299998999999999,-1.3215993642807007,1.1779472827911377,-9.560047149658203,-0.9002685546875,5.5694580078125,-3.23486328125
1.9499999,-1.3192051649093628,1.0749965906143188,-9.564835548400879,-2.25830078125,5.5084228515625,-8.30078125
1.9699999,-1.2976573705673218,0.9983820915222168,-9.57441234588623,-3.265380859375,5.1422119140625,-9.4451904296875
1.9899999,-1.2713210582733154,1.0223240852355957,-9.583989143371582,-5.3558349609375,5.1727294921875,-8.11767578125
2.0099999,-1.2306196689605713,1.1276689767837524,-9.579200744628906,-7.6904296875,4.33349609375,-6.3018798828125
2.0299999,-1.1971008777618408,1.2761094570159912,-9.569623947143555,-6.103515625,3.23486328125,-5.706787109375
2.0499999,-1.1659762859344482,1.4389152526855469,-9.560047149658203,-4.82177734375,2.38037109375,-6.0577392578125
2.0699999,-1.1468225717544556,1.599326729774475,-9.567230224609375,-5.889892578125,2.227783203125,-5.218505859375
2.0899999,-1.1348515748977661,1.7597382068634033,-9.603142738342285,-8.2244873046875,2.410888671875,-3.84521484375
2.1099999,-1.1252747774124146,1.9321208000183105,-9.643844604492188,-8.758544921875,3.173828125,-3.448486328125
2.1299999,-1.1204863786697388,2.118868589401245,-9.68694019317627,-7.476806640625,3.662109375,-2.2735595703125
2.1499999,-1.115697979927063,2.3032219409942627,-9.727641105651855,-5.5999755859375,3.753662109375,-0.457763671875
2.1699999,-1.1109095811843872,2.4851813316345215,-9.775525093078613,-6.256103515625,5.37109375,0.4119873046875
2.1899999,-1.1109095811843872,2.6671407222747803,-9.825803756713867,-11.4593505859375,9.4146728515625,0.2593994140625
2.2099999,-1.1109095811843872,2.873042106628418,-9.852140426635742,-14.7705078125,14.4500732421875,-0.3204345703125
2.2299999,-1.113303780555725,3.1723172664642334,-9.797073364257812,-13.12255859375,18.0511474609375,-0.7476806640625
2.2499999,-1.0893617868423462,3.5649664402008057,-9.639056205749512,-10.009765625,17.63916015625,2.349853515625
2.2699999,-1.0319008827209473,4.034229755401611,-9.346963882446289,-10.6201171875,17.7154541015625,10.223388671875
2.2899999,-0.9481038451194763,4.5394062995910645,-9.016563415527344,-15.6097412109375,12.63427734375,19.3328857421875
2.3099999,-0.8619126081466675,5.003881454467773,-8.724471092224121,-17.7764892578125,6.8206787109375,29.84619140625
2.3299999,-0.8068459630012512,5.461174011230469,-8.571242332458496,-12.603759765625,2.288818359375,39.1998291015625
2.3499999,-0.8092401623725891,5.770026206970215,-8.540117263793945,-8.514404296875,1.1138916015625,55.48095703125
2.3699999,-0.8858546018600464,5.892130374908447,-8.731653213500977,-5.1727294921875,-6.744384765625,70.4345703125
2.3899999,-1.01753568649292,5.834669589996338,-8.973467826843262,-1.190185546875,-8.0413818359375,73.028564453125
2.4099999,-1.1779472827911377,5.5976433753967285,-9.26795482635498,5.9661865234375,-5.2642822265625,74.951171875
2.4299999,-1.3311761617660522,5.284003257751465,-9.50737476348877,13.1378173828125,-6.7901611328125,82.7789306640625
2.4499999,-1.4748282432556152,4.98472785949707,-9.634267807006836,19.775390625,-9.3994140625,89.080810546875
2.4699999,-1.5849615335464478,4.649539470672607,-9.667786598205566,25.909423828125,-11.3677978515625,95.245361328125
2.4899999,-1.6831238269805908,4.271255970001221,-9.583989143371582,24.6734619140625,-8.6822509765625,101.165771484375
2.5099999,-1.7693150043487549,3.885789394378662,-9.481039047241211,23.162841796875,-12.20703125,103.4393310546875
2.5299999,-1.86508309841156,3.5003228187561035,-9.349357604980469,27.862548828125,-13.275146484375,107.7880859375
2.5499999,-1.9752163887023926,3.157952070236206,-9.23443603515625,36.285400390625,-12.8631591796875,110.77880859375
2.5699999,-2.1284453868865967,2.875436305999756,-9.169792175292969,44.7998046875,-12.6800537109375,116.119384765625
2.5899999,-2.2816741466522217,2.5785553455352783,-9.071630477905273,49.8504638671875,-17.5323486328125,129.4097900390625
2.6099999,-2.410961151123047,2.185906171798706,-9.138668060302734,54.2144775390625,-29.72412109375,138.6566162109375
2.6299999,-2.5258827209472656,1.86508309841156,-9.174580574035645,47.0428466796875,-16.2353515625,121.246337890625
2.6499999,-2.6024973392486572,1.5322890281677246,-9.334992408752441,49.7589111328125,-10.2691650390625,122.2381591796875
2.6699999,-2.6623523235321045,1.1827356815338135,-9.461885452270508,57.769775390625,-14.251708984375,135.6201171875
2.6899999,-2.717418909072876,0.828393816947937,-9.5408935546875,55.4656982421875,-13.61083984375,134.918212890625
2.7099999,-2.738966703414917,0.3758896589279175,-9.53849983215332,49.224853515625,-8.6212158203125,124.9237060546875
2.7299999,-2.7246015071868896,-0.12689268589019775,-9.469067573547363,44.7235107421875,-6.866455078125,121.612548828125
2.7499999,-2.691082715988159,-0.6320692300796509,-9.351752281188965,34.9884033203125,-9.09423828125,123.504638671875
2.7699999,-2.6216509342193604,-1.113303780555725,-9.21288776397705,21.942138671875,-14.1448974609375,121.185302734375
2.7899999,-2.559401512145996,-1.5538369417190552,-9.17697525024414,18.1121826171875,-20.751953125,109.80224609375
2.8099999,-2.518700122833252,-1.900996208190918,-9.23443603515625,18.585205078125,-19.744873046875,101.07421875
2.8299999,-2.513911724090576,-2.205059766769409,-9.440337181091309,16.265869140625,-13.1683349609375,99.8077392578125
2.8499999,-2.516305923461914,-2.473210334777832,-9.648633003234863,10.8184814453125,-4.33349609375,96.588134765625
2.8699999,-2.52109432220459,-2.806004285812378,-9.787496566772461,-0.3509521484375,4.364013671875,86.5020751953125
2.8899999,-2.5043349266052246,-3.071760892868042,-9.849745750427246,-16.66259765625,9.2620849609375,74.1424560546875
2.9099999,-2.387019157409668,-3.318363666534424,-9.80904483795166,-23.9410400390625,9.6435546875,71.6705322265625
2.9299999,-2.2146365642547607,-3.1914708614349365,-9.765948295593262,-19.622802734375,6.7291259765625,61.859130859375
2.9499999,-1.9512743949890137,-2.8371291160583496,-9.672574996948242,-3.2501220703125,2.8533935546875,44.5709228515625
2.9699999,-1.659181833267212,-2.315192937850952,-9.605537414550781,5.401611328125,-1.800537109375,44.1741943359375
2.9899999,-1.4053963422775269,-1.6903064250946045,-9.555258750915527,0.823974609375,-6.011962890625,42.9840087890625
3.0099999,-1.237802267074585,-1.2425906658172607,-9.531316757202148,-0.3662109375,-5.157470703125,38.8336181640625
3.0299999,-1.137245774269104,-0.9840168952941895,-9.581595420837402,-1.129150390625,-8.3770751953125,35.125732421875
3.0499999,-1.0821791887283325,-0.9074024558067322,-9.624691009521484,-3.5400390625,-8.48388671875,26.519775390625
3.0699999,-1.0558429956436157,-0.8906430602073669,-9.725247383117676,-6.7596435546875,-8.575439453125,17.2882080078125
3.0899999,-1.0127472877502441,-0.8547300100326538,-9.77791976928711,-12.8021240234375,-4.3792724609375,14.373779296875
3.1099999,-1.015141487121582,-0.6009446382522583,-9.856928825378418,-8.8653564453125,-6.9427490234375,14.0228271484375
3.1299999,-0.9816226959228516,-0.3519476354122162,-9.78989028930664,7.171630859375,-5.1422119140625,29.9072265625
3.1499999,-0.9696516990661621,-0.047884032130241394,-9.765948295593262,14.129638671875,-12.4359130859375,30.426025390625
3.1699999,-0.9792284965515137,0.17238251864910126,-9.674968719482422,9.1094970703125,-6.9580078125,17.913818359375
3.1899999,-0.9840168952941895,0.2059013396501541,-9.59596061706543,1.2054443359375,7.9803466796875,27.52685546875
3.2099999,-1.0414776802062988,0.1628057211637497,-9.567230224609375,-5.2337646484375,3.662109375,28.3966064453125
3.2299999,-1.0965443849563599,0.035913024097681046,-9.57201862335205,-12.0086669921875,-4.5623779296875,20.4315185546875
3.2499999,-1.1420341730117798,-0.0933738648891449,-9.619902610778809,-18.3563232421875,-3.8299560546875,15.5792236328125
3.2699999,-1.1755530834197998,-0.15083470940589905,-9.691728591918945,-24.0478515625,-1.5716552734375,13.6566162109375
3.2899999,-1.1875240802764893,-0.12928688526153564,-9.773131370544434,-20.477294921875,-5.3253173828125,13.1072998046875
3.3099999,-1.192312479019165,-0.014365210197865963,-9.792284965515137,-10.6964111328125,-9.246826171875,8.6822509765625
3.3299999000000002,-1.1803414821624756,0.11252748221158981,-9.799467086791992,-1.3580322265625,-6.805419921875,5.767822265625
3.3499999,-1.1899182796478271,0.26575639843940735,-9.78989028930664,-0.457763671875,-4.0435791015625,5.615234375
3.3699999,-1.192312479019165,0.3734954595565796,-9.780313491821289,-4.058837890625,-1.3885498046875,8.4686279296875
3.3899999,-1.1971008777618408,0.44532153010368347,-9.785101890563965,-5.2337646484375,-2.532958984375,8.3465576171875
3.4099999,-1.194706678390503,0.49559974670410156,-9.81143856048584,-6.3323974609375,-2.8076171875,4.5013427734375
3.4299999,-1.1683704853057861,0.5219359993934631,-9.837775230407715,-6.6070556640625,0.0457763671875,4.1046142578125
3.4499999,-1.1276689767837524,0.5674257874488831,-9.864110946655273,-4.0130615234375,-0.396728515625,3.23486328125
3.4699999,-1.0869675874710083,0.6248866319656372,-9.871294021606445,-0.9613037109375,-3.7841796875,-0.1373291015625
3.4899999,-1.05105459690094,0.6943184733390808,-9.835380554199219,-1.1138916015625,-4.2724609375,-1.5411376953125
3.5099999,-1.0319008827209473,0.7733271718025208,-9.768342971801758,-2.777099609375,-3.0059814453125,-0.762939453125
3.5299999,-1.036689281463623,0.871489405632019,-9.708487510681152,-2.0294189453125,-4.1351318359375,0.9765625
3.5499999,-1.0606313943862915,0.9648633003234863,-9.651026725769043,-0.8697509765625,-3.8909912109375,2.4871826171875
3.5699999,-1.0989385843276978,1.0199298858642578,-9.655815124511719,-1.983642578125,-2.471923828125,5.096435546875
3.5899999,-1.1348515748977661,1.0869675874710083,-9.701305389404297,-1.9989013671875,-0.48828125,4.8065185546875
3.6099999,-1.1659762859344482,1.1348515748977661,-9.768342971801758,-0.457763671875,0.2288818359375,4.9285888671875
3.6299999,-1.1851298809051514,1.1755530834197998,-9.832986831665039,-0.9307861328125,-1.0223388671875,8.9569091796875
3.6499999,-1.1971008777618408,1.1994950771331787,-9.861717224121094,-0.701904296875,-1.6326904296875,9.368896484375
3.6699999,-1.216254472732544,1.170764684677124,-9.861717224121094,-0.1983642578125,-1.89208984375,7.537841796875
3.6899999,-1.2473790645599365,1.113303780555725,-9.871294021606445,-0.9765625,-2.5634765625,6.0272216796875
3.7099999,-1.278503656387329,1.0438719987869263,-9.86650562286377,-1.7852783203125,-1.3275146484375,5.79833984375
3.7299999,-1.3048399686813354,0.9959878921508789,-9.883264541625977,-1.9683837890625,0.1220703125,5.5084228515625
3.7499999,-1.3192051649093628,0.9768342971801758,-9.907206535339355,-2.38037109375,0.1220703125,4.5928955078125
3.7699999,-1.3096283674240112,0.9672574996948242,-9.883264541625977,-3.5400390625,3.692626953125,6.1187744140625
3.7899999,-1.2952631711959839,0.9672574996948242,-9.856928825378418,-2.9296875,2.4871826171875,6.927490234375
3.8099999,-1.2737152576446533,0.9624691009521484,-9.782708168029785,-2.410888671875,0.579833984375,6.195068359375
3.8299999000000002,-1.259350061416626,0.9385270476341248,-9.708487510681152,-1.861572265625,0.2288818359375,5.9814453125
3.8499999,-1.2449848651885986,0.9193734526634216,-9.639056205749512,-2.960205078125,0.42724609375,5.859375
3.8699999,-1.2401964664459229,0.9169792532920837,-9.586383819580078,-3.3721923828125,-1.3275146484375,5.0201416015625
3.8899999,-1.235408067703247,0.9074024558067322,-9.548076629638672,-2.3193359375,-2.74658203125,5.3253173828125
3.9099999,-1.2234370708465576,0.9169792532920837,-9.536105155944824,-1.6021728515625,-3.4637451171875,4.8675537109375
3.9299999,-1.216254472732544,0.933738648891449,-9.545681953430176,-1.64794921875,-2.8839111328125,2.8076171875
3.9499999,-1.2018892765045166,0.9792284965515137,-9.586383819580078,-3.2806396484375,-2.9754638671875,3.2501220703125
3.9699999,-1.1875240802764893,1.0534487962722778,-9.636661529541016,-2.0904541015625,-3.265380859375,4.94384765625
3.9899999,-1.1779472827911377,1.1420341730117798,-9.679757118225098,2.13623046875,-2.0751953125,6.134033203125
4.0099999,-1.1803414821624756,1.216254472732544,-9.710882186889648,4.4097900390625,-2.6397705078125,6.7901611328125
4.029999900000001,-1.2042834758758545,1.2497732639312744,-9.710882186889648,3.5552978515625,-2.685546875,7.6141357421875
4.0499999,-1.2497732639312744,1.216254472732544,-9.701305389404297,1.1444091796875,-2.9296875,9.70458984375
4.069999900000001,-1.3048399686813354,1.1037269830703735,-9.703699111938477,-3.814697265625,-2.227783203125,10.498046875
4.0899999000000005,-1.3646949529647827,0.950498104095459,-9.708487510681152,-9.33837890625,0.885009765625,8.1024169921875
4.1099999,-1.4197616577148438,0.8355764150619507,-9.734824180603027,-7.50732421875,2.4871826171875,3.4332275390625
4.1299999000000005,-1.45806884765625,0.811634361743927,-9.768342971801758,-3.082275390625,1.251220703125,1.8768310546875
4.1499999,-1.4772224426269531,0.8619126081466675,-9.799467086791992,0.3814697265625,1.4801025390625,4.974365234375
4.1699999000000005,-1.4772224426269531,0.950498104095459,-9.821015357971191,1.495361328125,2.2735595703125,5.55419921875
4.1899999,-1.455674648284912,1.0247182846069336,-9.828198432922363,0.946044921875,2.3193359375,3.204345703125
4.209999900000001,-1.414973258972168,1.0821791887283325,-9.785101890563965,3.204345703125,1.40380859375,1.77001953125
4.2299999,-1.3646949529647827,1.1276689767837524,-9.72285270690918,5.767822265625,-0.9307861328125,3.96728515625
4.249999900000001,-1.3263877630233765,1.1659762859344482,-9.651026725769043,4.7149658203125,-3.204345703125,4.9285888671875
4.2699999,-1.3048399686813354,1.1635819673538208,-9.600749015808105,1.800537109375,-3.0517578125,4.119873046875
4.289999900000001,-1.292868971824646,1.161187767982483,-9.555258750915527,-2.2125244140625,-1.5411376953125,2.6092529296875
4.3099999,-1.2737152576446533,1.1851298809051514,-9.519346237182617,-1.9378662109375,-2.5177001953125,2.044677734375
4.329999900000001,-1.2401964664459229,1.2497732639312744,-9.452308654785156,2.86865234375,-6.6375732421875,3.7384033203125
4.3499999,-1.2066776752471924,1.3215993642807007,-9.399636268615723,3.0059814453125,-12.1002197265625,6.65283203125
4.369999900000001,-1.2066776752471924,1.3287819623947144,-9.41400146484375,-1.52587890625,-16.2200927734375,7.6751708984375
4.3899999,-1.2521674633026123,1.280897855758667,-9.50737476348877,-5.859375,-13.48876953125,5.523681640625
4.409999900000001,-1.314416766166687,1.213860273361206,-9.605537414550781,-7.8125,-8.636474609375,3.3111572265625
4.4299999,-1.3718775510787964,1.2234370708465576,-9.672574996948242,-8.819580078125,-10.55908203125,3.509521484375
4.449999900000001,-1.4197616577148438,1.3000515699386597,-9.706093788146973,-7.0953369140625,-17.181396484375,6.4239501953125
4.4699999,-1.455674648284912,1.4173674583435059,-9.68694019317627,-3.2196044921875,-13.4429931640625,9.82666015625
4.489999900000001,-1.5131354331970215,1.522712230682373,-9.718064308166504,-0.6561279296875,-11.1236572265625,9.33837890625
4.5099999,-1.5897499322891235,1.5298948287963867,-9.770736694335938,-0.6866455078125,-7.99560546875,11.7645263671875
4.529999900000001,-1.6615760326385498,1.5059528350830078,-9.792284965515137,0.3204345703125,-6.0577392578125,11.4593505859375
4.5499999,-1.723825216293335,1.455674648284912,-9.761159896850586,2.532958984375,-5.6304931640625,9.5977783203125
4.569999900000001,-1.7693150043487549,1.3982137441635132,-9.694122314453125,4.3487548828125,-8.7432861328125,11.962890625
4.5899999000000005,-1.8195933103561401,1.316810965538025,-9.624691009521484,6.256103515625,-9.6282958984375,13.336181640625
4.609999900000001,-1.8746598958969116,1.1899182796478271,-9.579200744628906,3.2806396484375,-5.157470703125,12.26806640625
4.6299999000000005,-1.941697597503662,1.0582371950149536,-9.581595420837402,0,-0.5950927734375,7.720947265625
4.6499999,-1.9943699836730957,0.9888052940368652,-9.569623947143555,1.3580322265625,0.518798828125,4.5166015625
4.6699999000000005,-2.0039467811584473,0.9576807022094727,-9.481039047241211,3.47900390625,2.1209716796875,8.60595703125
4.6899999,-1.9943699836730957,0.9888052940368652,-9.390059471130371,1.03759765625,-2.3345947265625,10.6658935546875
4.709999900000001,-1.9800047874450684,0.9864110946655273,-9.289502143859863,0.640869140625,-3.2501220703125,8.087158203125
4.7299999,-1.98958158493042,0.9145850539207458,-9.253589630126953,3.814697265625,-1.434326171875,6.011962890625
4.749999900000001,-1.9991583824157715,0.8427590131759644,-9.284713745117188,3.3721923828125,-2.166748046875,2.838134765625
4.7699999,-2.006340980529785,0.8020575642585754,-9.344569206237793,2.2125244140625,-3.4027099609375,-0.67138671875
4.789999900000001,-1.9919757843017578,0.790086567401886,-9.3828763961792,2.410888671875,-4.3182373046875,0.6256103515625
4.8099999,-1.965639591217041,0.8331822156906128,-9.445125579833984,0.79345703125,-6.622314453125,0
4.829999900000001,-1.9512743949890137,0.8906430602073669,-9.50498104095459,-0.7476806640625,-7.38525390625,-1.953125
4.8499999,-1.944091796875,0.933738648891449,-9.586383819580078,0.335693359375,-5.2490234375,-1.861572265625
4.869999900000001,-1.9512743949890137,0.9816226959228516,-9.684545516967773,0.1373291015625,-5.279541015625,-2.7008056640625
4.8899999,-1.968033790588379,1.015141487121582,-9.768342971801758,-0.8087158203125,-4.4097900390625,-2.7923583984375
4.909999900000001,-1.9847931861877441,1.0438719987869263,-9.837775230407715,-1.922607421875,-2.716064453125,-2.7313232421875
4.9299999,-2.0015525817871094,1.072602391242981,-9.852140426635742,-1.800537109375,-1.434326171875,-2.655029296875
4.949999900000001,-2.011129379272461,1.0893617868423462,-9.830592155456543,-0.5950927734375,-1.9989013671875,-1.9989013671875
4.9699999,-2.0231003761291504,1.1061211824417114,-9.75637149810791,0.091552734375,-3.0670166015625,-2.8076171875
4.989999900000001,-2.0446481704711914,1.1061211824417114,-9.682151794433594,0.48828125,-4.1046142578125,-3.570556640625
5.0099999,-2.0805611610412598,1.091755986213684,-9.646238327026367,0.1373291015625,-4.180908203125,-3.5552978515625
5.029999900000001,-2.123656988143921,1.094150185585022,-9.634267807006836,2.7313232421875,-1.007080078125,-5.096435546875
5.0499999,-2.161964178085327,1.1085153818130493,-9.653421401977539,5.37109375,-0.8392333984375,-6.195068359375
5.069999900000001,-2.183511972427368,1.1300631761550903,-9.653421401977539,8.4228515625,-1.2054443359375,-4.8828125
5.0899999000000005,-2.185906171798706,1.173158884048462,-9.643844604492188,14.46533203125,-3.204345703125,-5.828857421875
5.109999900000001,-2.161964178085327,1.2282254695892334,-9.591172218322754,22.1405029296875,-4.0740966796875,-7.6751708984375
5.1299999000000005,-2.1332337856292725,1.2880805730819702,-9.490615844726562,37.200927734375,-6.805419921875,-6.0882568359375
5.1499999,-2.118868589401245,1.3000515699386597,-9.363722801208496,56.1676025390625,-13.1072998046875,-3.23486328125
5.1699999000000005,-2.1332337856292725,1.2425906658172607,-9.263166427612305,62.1337890625,-18.6004638671875,-3.3721923828125
5.1899999,-2.207453966140747,1.0295066833496094,-9.193734169006348,58.5479736328125,-16.3421630859375,-1.953125
5.209999900000001,-2.322375535964966,0.6967126727104187,-9.272743225097656,55.3436279296875,-15.6097412109375,-1.434326171875
5.2299999,-2.4420857429504395,0.2992752194404602,-9.378087997436523,46.1883544921875,-12.4053955078125,-2.288818359375
5.249999900000001,-2.5498247146606445,-0.08379705995321274,-9.567230224609375,34.7137451171875,-9.429931640625,-4.8370361328125
5.2699999,-2.612074136734009,-0.3926490843296051,-9.684545516967773,25.115966796875,-3.2806396484375,-6.3018798828125
5.289999900000001,-2.63362193107605,-0.5961562395095825,-9.737217903137207,16.937255859375,-1.4495849609375,-7.2479248046875
5.3099999,-2.6240451335906982,-0.6871358752250671,-9.732429504394531,8.9874267578125,-6.7901611328125,-7.8582763671875
5.329999900000001,-2.604891538619995,-0.6967126727104187,-9.672574996948242,0.335693359375,-5.31005859375,-8.331298828125
5.3499999,-2.5785553455352783,-0.667982280254364,-9.63187313079834,-6.1798095703125,-1.8463134765625,-5.9661865234375
5.369999900000001,-2.557007312774658,-0.6129156351089478,-9.612719535827637,-9.1705322265625,-0.8087158203125,-7.4005126953125
5.3899999,-2.535459518432617,-0.5363011956214905,-9.610325813293457,-9.8419189453125,-1.0223388671875,-10.55908203125
5.409999900000001,-2.5115175247192383,-0.45489832758903503,-9.605537414550781,-9.674072265625,0.8697509765625,-9.58251953125
5.4299999,-2.4899697303771973,-0.3447650372982025,-9.59835433959961,-8.48388671875,1.6632080078125,-7.0648193359375
5.449999900000001,-2.47560453414917,-0.24899697303771973,-9.593565940856934,-7.7362060546875,2.01416015625,-4.1351318359375
5.4699999,-2.473210334777832,-0.16519992053508759,-9.552865028381348,-5.859375,2.6702880859375,-3.35693359375
5.489999900000001,-2.4827871322631836,-0.12928688526153564,-9.502586364746094,-4.5623779296875,2.01416015625,-2.3651123046875
5.5099999,-2.5019407272338867,-0.1149216815829277,-9.457097053527832,-4.058837890625,0.0152587890625,-1.312255859375
5.529999900000001,-2.5282769203186035,-0.11252748221158981,-9.433155059814453,-4.852294921875,0.7781982421875,-0.9002685546875
5.5499999,-2.5522189140319824,-0.12928688526153564,-9.445125579833984,-6.8817138671875,2.99072265625,0.244140625
5.569999900000001,-2.5689783096313477,-0.15562310814857483,-9.469067573547363,-6.103515625,3.9825439453125,0.48828125
5.5899999000000005,-2.5713725090026855,-0.19153612852096558,-9.48343276977539,-1.7852783203125,3.5247802734375,-1.2969970703125
5.609999900000001,-2.564189910888672,-0.2106897532939911,-9.47146224975586,-1.5716552734375,2.1820068359375,-1.8157958984375
5.6299999000000005,-2.5522189140319824,-0.22266076505184174,-9.44991397857666,-2.50244140625,2.0751953125,-0.2899169921875
5.6499999,-2.542642116546631,-0.2059013396501541,-9.409213066101074,-2.1514892578125,1.64794921875,0.54931640625
5.6699999000000005,-2.535459518432617,-0.20350714027881622,-9.370905876159668,-0.9307861328125,0.9613037109375,0.6561279296875
5.6899999,-2.540247917175293,-0.21787235140800476,-9.330204010009766,-0.640869140625,0.091552734375,-0.701904296875
5.709999900000001,-2.559401512145996,-0.24420857429504395,-9.32302188873291,-2.593994140625,-1.3885498046875,-2.3956298828125
5.7299999,-2.585737943649292,-0.2801215946674347,-9.35893440246582,-5.401611328125,-0.1373291015625,-1.5106201171875
5.749999900000001,-2.6216509342193604,-0.31124621629714966,-9.418789863586426,-5.67626953125,1.3275146484375,-1.8768310546875
5.7699999,-2.655169725418091,-0.363918662071228,-9.497797966003418,-4.0130615234375,0.2593994140625,-3.0364990234375
5.789999900000001,-2.6839001178741455,-0.42616790533065796,-9.555258750915527,-3.8909912109375,-0.244140625,-5.096435546875
5.8099999,-2.7102363109588623,-0.5003881454467773,-9.610325813293457,-2.471923828125,-0.3509521484375,-7.5225830078125
5.829999900000001,-2.7269957065582275,-0.5506663918495178,-9.636661529541016,-0.8544921875,-0.1373291015625,-10.0860595703125
5.8499999,-2.736572504043579,-0.5793967843055725,-9.641449928283691,1.129150390625,0.518798828125,-11.7034912109375
5.869999900000001,-2.736572504043579,-0.5937620401382446,-9.600749015808105,2.38037109375,-1.2054443359375,-13.0767822265625
5.8899999,-2.7222073078155518,-0.5793967843055725,-9.555258750915527,2.01416015625,-3.2806396484375,-16.3421630859375
5.909999900000001,-2.7030537128448486,-0.5482721924781799,-9.514557838439941,0.06103515625,-3.662109375,-17.5628662109375
5.9299999,-2.6862943172454834,-0.5051765441894531,-9.490615844726562,-2.410888671875,-0.91552734375,-15.411376953125
5.949999900000001,-2.676717519760132,-0.4596867263317108,-9.490615844726562,-2.3193359375,-0.1373291015625,-14.83154296875
5.9699999,-2.674323320388794,-0.40940847992897034,-9.512163162231445,-1.2664794921875,0.06103515625,-17.1051025390625
5.989999900000001,-2.674323320388794,-0.35434186458587646,-9.48343276977539,-0.7781982421875,3.72314453125,-15.6707763671875
6.0099999,-2.674323320388794,-0.2777273952960968,-9.548076629638672,-1.739501953125,-4.364013671875,-14.312744140625
6.029999900000001,-2.6671407222747803,-0.18914192914962769,-9.519346237182617,-4.69970703125,5.9814453125,-14.46533203125
6.0499999,-2.6431987285614014,-0.09816227108240128,-9.557653427124023,-6.16455078125,5.7373046875,-9.70458984375
6.069999900000001,-2.628833532333374,-0.016759412363171577,-9.560047149658203,-6.3629150390625,4.7149658203125,-12.237548828125
6.0899999000000005,-2.5977089405059814,0.021547814831137657,-9.567230224609375,-5.6915283203125,10.101318359375,-9.1552734375
6.109999900000001,-2.5953147411346436,0.043095629662275314,-9.59835433959961,-4.82177734375,11.5966796875,-10.0860595703125
6.1299999000000005,-2.5929205417633057,0.014365210197865963,-9.641449928283691,-3.326416015625,14.801025390625,-11.8408203125
6.149999900000001,-2.5905263423919678,-0.043095629662275314,-9.682151794433594,-3.143310546875,18.9666748046875,-12.1612548828125
6.1699999000000005,-2.5737667083740234,-0.12928688526153564,-9.715670585632324,-2.5634765625,19.8516845703125,-12.9241943359375
6.1899999,-2.542642116546631,-0.21787235140800476,-9.708487510681152,-0.2899169921875,19.805908203125,-14.34326171875
6.209999900000001,-2.499546527862549,-0.33758243918418884,-9.679757118225098,1.2969970703125,18.1884765625,-13.2293701171875
6.2299999,-2.4468741416931152,-0.47884035110473633,-9.615114212036133,-0.30517578125,18.1884765625,-12.8936767578125
6.249999900000001,-2.3774423599243164,-0.5937620401382446,-9.560047149658203,-1.9073486328125,16.998291015625,-17.333984375
6.2699999,-2.300827741622925,-0.6512228846549988,-9.500192642211914,-3.5552978515625,12.969970703125,-19.6380615234375
6.289999900000001,-2.1930887699127197,-0.6847416758537292,-9.516951560974121,-11.16943359375,9.063720703125,-18.310546875
6.3099999,-2.1140801906585693,-0.6344634294509888,-9.53849983215332,-14.7857666015625,18.096923828125,-25.0701904296875
6.329999900000001,-2.0207061767578125,-0.6177040338516235,-9.617507934570312,-13.7786865234375,12.6190185546875,-20.538330078125
6.3499999,-1.9704279899597168,-0.5219359993934631,-9.641449928283691,-16.6778564453125,11.1083984375,-35.21728515625
6.369999900000001,-1.8962076902389526,-0.4381389021873474,-9.57201862335205,-20.7061767578125,13.641357421875,-28.7628173828125
6.3899999,-1.8507179021835327,-0.26815059781074524,-9.406818389892578,-23.4832763671875,8.087158203125,-24.749755859375
6.409999900000001,-1.8195933103561401,-0.09816227108240128,-9.2033109664917,-20.416259765625,-0.2899169921875,-27.77099609375
6.4299999,-1.8291701078414917,0.040701430290937424,-9.035717010498047,-18.4173583984375,-3.4942626953125,-24.71923828125
6.449999900000001,-1.8746598958969116,0.12210428714752197,-8.96149730682373,-18.463134765625,-2.044677734375,-22.003173828125
6.4699999,-1.944091796875,0.13168109953403473,-8.992621421813965,-16.54052734375,-3.662109375,-25.9552001953125
6.489999900000001,-2.0183119773864746,0.11252748221158981,-9.090784072875977,-15.594482421875,-5.279541015625,-30.7464599609375
6.5099999,-2.0685901641845703,0.06703764945268631,-9.232041358947754,-14.862060546875,-2.6092529296875,-28.1829833984375
6.529999900000001,-2.1092917919158936,0.11252748221158981,-9.406818389892578,-13.763427734375,1.5411376953125,-29.3426513671875
6.5499999,-2.121262788772583,0.19153612852096558,-9.591172218322754,-14.46533203125,3.3416748046875,-27.2369384765625
6.569999900000001,-2.097320795059204,0.3064578175544739,-9.749189376831055,-12.4969482421875,5.9814453125,-24.1851806640625
6.5899999000000005,-2.054224967956543,0.40940847992897034,-9.876082420349121,-4.150390625,8.1634521484375,-23.6968994140625
6.609999900000001,-2.0015525817871094,0.45250412821769714,-9.950302124023438,0.54931640625,9.94873046875,-24.8870849609375
6.6299999000000005,-1.9560627937316895,0.43335050344467163,-10.012551307678223,-0.732421875,11.5966796875,-25.7415771484375
6.649999900000001,-1.9273324012756348,0.38307225704193115,-10.04846477508545,-3.4942626953125,16.2506103515625,-25.87890625
6.6699999000000005,-1.9033904075622559,0.35673606395721436,-10.0580415725708,-2.7618408203125,20.751953125,-25.360107421875
6.6899999,-1.86508309841156,0.363918662071228,-10.02691650390625,-1.6632080078125,20.3857421875,-23.8189697265625
6.709999900000001,-1.8100165128707886,0.3926490843296051,-9.950302124023438,-2.044677734375,18.9666748046875,-21.30126953125
6.7299999,-1.7405846118927002,0.42616790533065796,-9.859322547912598,-1.9378662109375,17.2882080078125,-21.270751953125
6.749999900000001,-1.659181833267212,0.4668693244457245,-9.787496566772461,-1.9378662109375,16.143798828125,-21.270751953125
6.7699999,-1.5825673341751099,0.49320554733276367,-9.727641105651855,-1.3275146484375,16.815185546875,-18.37158203125
6.789999900000001,-1.5131354331970215,0.48602294921875,-9.696516990661621,1.2359619140625,15.0299072265625,-14.617919921875
6.8099999,-1.4628572463989258,0.4357447028160095,-9.667786598205566,1.4190673828125,12.054443359375,-15.6402587890625
6.829999900000001,-1.4317326545715332,0.33518823981285095,-9.655815124511719,-2.50244140625,11.505126953125,-17.364501953125
6.8499999,-1.4245500564575195,0.2082955539226532,-9.66299819946289,-5.18798828125,12.908935546875,-17.730712890625
6.869999900000001,-1.4317326545715332,0.12449848651885986,-9.691728591918945,-5.035400390625,12.725830078125,-18.310546875
6.8899999,-1.4484920501708984,0.08858546614646912,-9.720458984375,-3.7994384765625,12.26806640625,-19.683837890625
6.909999900000001,-1.4460978507995605,0.08140286058187485,-9.727641105651855,-2.716064453125,12.6495361328125,-19.683837890625
6.9299999,-1.4437036514282227,0.10534487664699554,-9.713275909423828,-2.1820068359375,11.3983154296875,-20.7366943359375
6.949999900000001,-1.414973258972168,0.1173158809542656,-9.682151794433594,-3.753662109375,9.5977783203125,-20.56884765625
6.9699999,-1.3742717504501343,0.1628057211637497,-9.648633003234863,-3.47900390625,8.941650390625,-21.9879150390625
6.989999900000001,-1.3239935636520386,0.18914192914962769,-9.610325813293457,0.3204345703125,10.406494140625,-20.751953125
7.0099999,-1.259350061416626,0.2298433631658554,-9.569623947143555,1.9989013671875,9.0789794921875,-19.5465087890625
7.029999900000001,-1.1971008777618408,0.24420857429504395,-9.548076629638672,-1.3885498046875,5.584716796875,-19.317626953125
7.0499999,-1.1420341730117798,0.23942017555236816,-9.5408935546875,-4.2877197265625,5.096435546875,-17.974853515625
7.069999900000001,-1.1085153818130493,0.21547815203666687,-9.564835548400879,-3.326416015625,6.8817138671875,-17.0135498046875
7.0899999000000005,-1.094150185585022,0.1843535304069519,-9.617507934570312,-2.349853515625,5.828857421875,-17.4713134765625
7.109999900000001,-1.0869675874710083,0.1364694982767105,-9.658209800720215,-4.425048828125,3.509521484375,-17.5628662109375
7.1299999000000005,-1.1013327836990356,0.10055647045373917,-9.715670585632324,-6.2255859375,1.068115234375,-18.5394287109375
7.149999900000001,-1.1085153818130493,0.0454898327589035,-9.734824180603027,-7.476806640625,6.0272216796875,-16.6778564453125
7.1699999000000005,-1.1324573755264282,0.033518824726343155,-9.782708168029785,-5.9356689453125,2.50244140625,-18.0511474609375
7.1899999,-1.1635819673538208,0.047884032130241394,-9.797073364257812,0.0152587890625,1.03759765625,-20.599365234375
7.209999900000001,-1.1755530834197998,0.014365210197865963,-9.792284965515137,6.53076171875,2.7008056640625,-17.2119140625
7.2299999,-1.194706678390503,-0.0071826050989329815,-9.794678688049316,7.293701171875,-0.8087158203125,-19.5159912109375
7.249999900000001,-1.192312479019165,-0.09816227108240128,-9.763554573059082,4.7454833984375,0.6103515625,-22.27783203125
7.2699999,-1.1899182796478271,-0.20350714027881622,-9.734824180603027,2.1514892578125,1.46484375,-21.8505859375
7.289999900000001,-1.1827356815338135,-0.2849099934101105,-9.696516990661621,2.685546875,0.030517578125,-22.9949951171875
7.3099999,-1.173158884048462,-0.3471592366695404,-9.66299819946289,4.7454833984375,-0.6866455078125,-23.37646484375
7.329999900000001,-1.1803414821624756,-0.3663128614425659,-9.639056205749512,3.2958984375,-1.6021728515625,-25.8026123046875
7.3499999,-1.1827356815338135,-0.37828385829925537,-9.617507934570312,0.701904296875,0.030517578125,-25.5126953125
7.369999900000001,-1.2018892765045166,-0.3663128614425659,-9.624691009521484,0.5035400390625,-0.732421875,-26.18408203125
7.3899999,-1.213860273361206,-0.3495534360408783,-9.619902610778809,-0.885009765625,-0.518798828125,-27.1759033203125
7.409999900000001,-1.2258312702178955,-0.3208230137825012,-9.653421401977539,-2.2125244140625,-1.4495849609375,-28.0609130859375
7.4299999,-1.2258312702178955,-0.2513911724090576,-9.696516990661621,-4.6234130859375,-0.640869140625,-29.693603515625
7.449999900000001,-1.216254472732544,-0.16759411990642548,-9.751583099365234,-6.561279296875,1.495361328125,-27.7252197265625
7.4699999,-1.2018892765045166,-0.05746084079146385,-9.794678688049316,-5.2642822265625,1.4495849609375,-26.8707275390625
7.489999900000001,-1.1851298809051514,0.0454898327589035,-9.832986831665039,-4.2266845703125,0.1068115234375,-27.252197265625
7.5099999,-1.170764684677124,0.1364694982767105,-9.84495735168457,-6.5765380859375,1.4801025390625,-26.8707275390625
7.529999900000001,-1.1803414821624756,0.17238251864910126,-9.86650562286377,-7.904052734375,1.1444091796875,-24.90234375
7.5499999,-1.1971008777618408,0.17238251864910126,-9.8784761428833,-6.256103515625,1.40380859375,-24.9481201171875
7.569999900000001,-1.2306196689605713,0.1604115068912506,-9.888052940368652,-3.7384033203125,2.4261474609375,-28.6407470703125
7.5899999000000005,-1.2521674633026123,0.10773907601833344,-9.897629737854004,-2.44140625,2.99072265625,-27.9998779296875
7.609999900000001,-1.2665326595306396,0.090979665517807,-9.880870819091797,-5.31005859375,4.058837890625,-26.9775390625
7.6299999000000005,-1.2497732639312744,0.08619125932455063,-9.840168952941895,-7.6446533203125,5.5694580078125,-27.4200439453125
7.649999900000001,-1.2258312702178955,0.14365209639072418,-9.792284965515137,-8.7432861328125,2.7313232421875,-28.4271240234375
7.6699999000000005,-1.2018892765045166,0.2106897532939911,-9.734824180603027,-7.9193115234375,2.5634765625,-26.031494140625
7.6899999,-1.1899182796478271,0.29209262132644653,-9.694122314453125,-7.354736328125,3.2958984375,-23.62060546875
7.709999900000001,-1.1875240802764893,0.36152446269989014,-9.691728591918945,-6.744384765625,1.251220703125,-24.84130859375
7.7299999,-1.2018892765045166,0.3998316824436188,-9.706093788146973,-5.7525634765625,1.1444091796875,-26.5960693359375
7.749999900000001,-1.216254472732544,0.4213795065879822,-9.746794700622559,-6.072998046875,0.9307861328125,-24.3988037109375
7.7699999,-1.2330138683319092,0.4405331015586853,-9.782708168029785,-5.1727294921875,2.4261474609375,-23.6968994140625
7.789999900000001,-1.2497732639312744,0.4644751250743866,-9.825803756713867,-4.241943359375,1.77001953125,-23.5595703125
7.8099999,-1.2545616626739502,0.49559974670410156,-9.861717224121094,-1.7547607421875,1.6021728515625,-23.9410400390625
7.829999900000001,-1.2401964664459229,0.5339069962501526,-9.84495735168457,2.5482177734375,4.6234130859375,-24.3072509765625
7.8499999,-1.213860273361206,0.5722141861915588,-9.787496566772461,2.9144287109375,5.1727294921875,-22.7203369140625
7.869999900000001,-1.1635819673538208,0.6105214357376099,-9.655815124511719,0.2899169921875,2.7618408203125,-22.064208984375
7.8899999,-1.1013327836990356,0.6512228846549988,-9.488221168518066,0.1373291015625,0.9765625,-21.2860107421875
7.909999900000001,-1.036689281463623,0.7015010714530945,-9.342175483703613,1.9073486328125,-1.8157958984375,-19.5159912109375
7.9299999,-0.993593692779541,0.7254431247711182,-9.27034854888916,4.0740966796875,-4.0740966796875,-16.9677734375
7.949999900000001,-0.9792284965515137,0.6919242739677429,-9.301473617553711,4.241943359375,-5.37109375,-13.885498046875
7.9699999,-0.9959878921508789,0.5889736413955688,-9.41639518737793,2.86865234375,-4.33349609375,-14.0228271484375
7.989999900000001,-1.0414776802062988,0.43095630407333374,-9.586383819580078,0.9918212890625,-2.6092529296875,-15.106201171875
8.0099999,-1.0965443849563599,0.2849099934101105,-9.751583099365234,-0.67138671875,-0.4730224609375,-15.9912109375
8.0299999,-1.1492167711257935,0.20350714027881622,-9.871294021606445,1.1749267578125,0.79345703125,-15.31982421875
8.049999900000001,-1.1875240802764893,0.16998831927776337,-9.93354320526123,4.0740966796875,1.52587890625,-11.0321044921875
8.069999900000001,-1.2210428714752197,0.1867477297782898,-9.940725326538086,5.9661865234375,2.593994140625,-12.20703125
8.0899999,-1.235408067703247,0.19871874153614044,-9.90241813659668,9.2926025390625,2.9449462890625,-13.2598876953125
8.1099999,-1.2401964664459229,0.15801730751991272,-9.835380554199219,11.993408203125,3.35693359375,-10.467529296875
8.129999900000001,-1.2330138683319092,0.08858546614646912,-9.751583099365234,14.007568359375,2.838134765625,-9.27734375
8.149999900000001,-1.213860273361206,-0.031124621629714966,-9.674968719482422,15.44189453125,1.7547607421875,-11.627197265625
8.1699999,-1.192312479019165,-0.17477671802043915,-9.615114212036133,16.1285400390625,1.2664794921875,-10.1776123046875
8.1899999,-1.1755530834197998,-0.3280056416988373,-9.603142738342285,14.8773193359375,2.2125244140625,-7.7362060546875
8.2099999,-1.1635819673538208,-0.4644751250743866,-9.63187313079834,12.5579833984375,2.62451171875,-9.7808837890625
8.229999900000001,-1.1468225717544556,-0.5746083855628967,-9.672574996948242,7.5531005859375,4.7760009765625,-10.6964111328125
8.2499999,-1.1252747774124146,-0.6320692300796509,-9.734824180603027,4.119873046875,5.4473876953125,-10.5133056640625
8.2699999,-1.1037269830703735,-0.629675030708313,-9.746794700622559,3.11279296875,6.927490234375,-11.077880859375
8.2899999,-1.0845733880996704,-0.6105214357376099,-9.742006301879883,2.7618408203125,5.8746337890625,-10.6048583984375
8.309999900000001,-1.0749965906143188,-0.5770025849342346,-9.713275909423828,2.0751953125,3.7384033203125,-12.3138427734375
8.3299999,-1.0989385843276978,-0.5626373887062073,-9.710882186889648,1.708984375,3.0517578125,-13.18359375
8.3499999,-1.1228805780410767,-0.5722141861915588,-9.744400978088379,-3.2806396484375,4.638671875,-11.3525390625
8.3699999,-1.1659762859344482,-0.6057330369949341,-9.780313491821289,-5.92041015625,7.6904296875,-11.9171142578125
8.389999900000001,-1.192312479019165,-0.667982280254364,-9.835380554199219,-4.4708251953125,4.5318603515625,-15.44189453125
8.4099999,-1.2090718746185303,-0.7110779285430908,-9.847352027893066,-3.35693359375,3.4027099609375,-20.0653076171875
8.4299999,-1.2042834758758545,-0.751779317855835,-9.883264541625977,-2.1209716796875,3.4027099609375,-19.866943359375
8.4499999,-1.1994950771331787,-0.7422025203704834,-9.926360130310059,-0.7781982421875,2.13623046875,-19.4854736328125
8.469999900000001,-1.1683704853057861,-0.7398083209991455,-9.950302124023438,0.885009765625,5.096435546875,-19.34814453125
8.4899999,-1.137245774269104,-0.7398083209991455,-9.962273597717285,-1.3885498046875,4.608154296875,-20.8282470703125
8.5099999,-1.094150185585022,-0.7469909191131592,-9.979032516479492,-7.0343017578125,-0.42724609375,-23.1170654296875
8.5299999,-1.0558429956436157,-0.7493851184844971,-9.998186111450195,-8.270263671875,0.8087158203125,-25.848388671875
8.549999900000001,-1.0295066833496094,-0.7110779285430908,-10.053253173828125,-6.6070556640625,2.3345947265625,-28.2135009765625
8.569999900000001,-1.0223240852355957,-0.6320692300796509,-10.108319282531738,-7.8277587890625,3.3111572265625,-29.388427734375
8.5899999,-1.01753568649292,-0.5099649429321289,-10.125079154968262,-7.75146484375,4.2266845703125,-28.289794921875
8.6099999,-1.0199298858642578,-0.38067805767059326,-10.110713958740234,-6.378173828125,4.2266845703125,-27.3284912109375
8.629999900000001,-1.0295066833496094,-0.2298433631658554,-10.055646896362305,-6.439208984375,4.94384765625,-27.496337890625
8.649999900000001,-1.039083480834961,-0.10534487664699554,-9.986215591430664,-5.0811767578125,4.8828125,-27.0233154296875
8.6699999,-1.048660397529602,-0.004788403399288654,-9.9000244140625,-5.2032470703125,4.1656494140625,-25.726318359375
8.6899999,-1.0558429956436157,0.047884032130241394,-9.823410034179688,-6.28662109375,3.7078857421875,-24.3988037109375
8.709999900000001,-1.0438719987869263,0.06224924325942993,-9.75637149810791,-5.3253173828125,3.1585693359375,-24.7650146484375
8.729999900000001,-1.0295066833496094,0.05506663769483566,-9.710882186889648,-3.0517578125,2.8076171875,-26.1383056640625
8.7499999,-1.0055646896362305,0.06464344263076782,-9.706093788146973,-1.434326171875,1.15966796875,-25.2227783203125
8.7699999,-0.9816226959228516,0.07182604819536209,-9.68694019317627,0.9765625,3.2958984375,-22.9034423828125
8.7899999,-0.9576807022094727,0.06224924325942993,-9.658209800720215,0.2288818359375,5.1422119140625,-19.3023681640625
8.809999900000001,-0.9289502501487732,0.031124621629714966,-9.605537414550781,-2.7008056640625,2.8533935546875,-20.3704833984375
8.8299999,-0.8954314589500427,0.0071826050989329815,-9.564835548400879,-2.9449462890625,0.1068115234375,-23.3917236328125
8.8499999,-0.8547300100326538,0.016759412363171577,-9.516951560974121,-2.4871826171875,1.1749267578125,-22.2930908203125
8.8699999,-0.8379706144332886,0.06464344263076782,-9.569623947143555,-3.84521484375,-0.0762939453125,-17.3797607421875
8.889999900000001,-0.8427590131759644,0.13407529890537262,-9.648633003234863,-3.082275390625,-0.9613037109375,-16.571044921875
8.9099999,-0.8667010068893433,0.15083470940589905,-9.730035781860352,-0.1983642578125,2.7008056640625,-15.716552734375
8.9299999,-0.9002198576927185,0.10534487664699554,-9.828198432922363,0,2.288818359375,-14.9383544921875
8.9499999,-0.9265560507774353,0.05267243832349777,-9.885659217834473,-3.5858154296875,0.701904296875,-16.9525146484375
8.969999900000001,-0.933738648891449,0.002394201699644327,-9.928754806518555,-5.0048828125,2.3193359375,-16.54052734375
8.9899999,-0.9217676520347595,0.016759412363171577,-9.955090522766113,-2.7008056640625,3.2806396484375,-16.0064697265625
9.0099999,-0.9002198576927185,0.05985504388809204,-9.967061996459961,-1.2664794921875,4.5013427734375,-13.458251953125
9.0299999,-0.8762778043746948,0.11252748221158981,-9.979032516479492,-2.8839111328125,3.4942626953125,-12.2528076171875
9.049999900000001,-0.8595184087753296,0.15322890877723694,-9.986215591430664,-3.631591796875,4.8980712890625,-13.427734375
9.069999900000001,-0.8451532125473022,0.16998831927776337,-10.005369186401367,-2.86865234375,6.40869140625,-13.85498046875
9.0899999,-0.8259995579719543,0.1843535304069519,-10.031704902648926,-6.0577392578125,6.8359375,-12.1917724609375
9.1099999,-0.7948749661445618,0.20111294090747833,-10.036493301391602,-6.927490234375,7.75146484375,-11.3067626953125
9.129999900000001,-0.7637503147125244,0.24181437492370605,-10.077195167541504,-4.8370361328125,6.988525390625,-12.63427734375
9.149999900000001,-0.7230489253997803,0.28969839215278625,-10.070012092590332,-4.5318603515625,9.9029541015625,-11.7950439453125
9.1699999,-0.689530074596405,0.33758243918418884,-10.091560363769531,-3.5552978515625,10.467529296875,-9.0789794921875
9.1899999,-0.6512228846549988,0.3519476354122162,-10.065223693847656,-3.7994384765625,9.0789794921875,-8.1329345703125
9.209999900000001,-0.6177040338516235,0.3495534360408783,-10.012551307678223,-3.41796875,8.7432861328125,-9.552001953125
9.229999900000001,-0.5841852426528931,0.2849099934101105,-9.926360130310059,-4.180908203125,9.918212890625,-8.0413818359375
9.2499999,-0.5554547905921936,0.21308395266532898,-9.835380554199219,-5.43212890625,8.1634521484375,-7.049560546875
9.2699999,-0.5291185975074768,0.14604631066322327,-9.725247383117676,-4.1046142578125,8.2550048828125,-9.46044921875
9.2899999,-0.4908113479614258,0.10055647045373917,-9.63187313079834,-4.2724609375,8.4381103515625,-8.636474609375
9.309999900000001,-0.4668693244457245,0.0933738648891449,-9.564835548400879,-5.2337646484375,6.2103271484375,-6.28662109375
9.3299999,-0.4405331015586853,0.10295066982507706,-9.524134635925293,-2.74658203125,6.2255859375,-4.21142578125
9.3499999,-0.42377370595932007,0.10534487664699554,-9.495404243469238,-0.152587890625,6.40869140625,-4.0283203125
9.3699999,-0.40940847992897034,0.0694318488240242,-9.47146224975586,-0.885009765625,4.7454833984375,-3.997802734375
9.389999900000001,-0.3998316824436188,0.016759412363171577,-9.44991397857666,-2.7923583984375,2.6397705078125,-4.425048828125
9.4099999,-0.3878606855869293,-0.028730420395731926,-9.433155059814453,-3.0059814453125,1.4801025390625,-4.7760009765625
9.4299999,-0.3878606855869293,-0.047884032130241394,-9.452308654785156,-2.8076171875,0.8544921875,-3.96728515625
9.4499999,-0.40222588181495667,-0.05267243832349777,-9.502586364746094,-2.9754638671875,0.457763671875,-2.716064453125
9.469999900000001,-0.42616790533065796,-0.06224924325942993,-9.593565940856934,-1.5106201171875,-1.0833740234375,-2.2430419921875
9.4899999,-0.45250412821769714,-0.08619125932455063,-9.679757118225098,-0.0457763671875,-0.457763671875,-4.39453125
9.5099999,-0.4692635238170624,-0.11971008777618408,-9.768342971801758,0.9002685546875,0.5950927734375,-5.340576171875
9.5299999,-0.47884035110473633,-0.1364694982767105,-9.825803756713867,3.84521484375,-0.823974609375,-5.3558349609375
9.549999900000001,-0.47405192255973816,-0.14365209639072418,-9.832986831665039,8.087158203125,-0.5645751953125,-4.1656494140625
9.569999900000001,-0.4692635238170624,-0.15322890877723694,-9.825803756713867,13.153076171875,-1.678466796875,-4.2877197265625
9.5899999,-0.4620809257030487,-0.17956513166427612,-9.78989028930664,14.3280029296875,-2.2735595703125,-4.9285888671875
9.6099999,-0.4620809257030487,-0.23702596127986908,-9.761159896850586,12.87841796875,-2.0904541015625,-5.18798828125
9.629999900000001,-0.4692635238170624,-0.2992752194404602,-9.749189376831055,13.214111328125,-3.7078857421875,-6.317138671875
9.649999900000001,-0.49559974670410156,-0.3471592366695404,-9.744400978088379,15.6402587890625,-3.72314453125,-8.1024169921875
9.6699999,-0.5267243981361389,-0.38307225704193115,-9.75397777557373,19.9737548828125,-3.6773681640625,-7.6751708984375
9.6899999,-0.5626373887062073,-0.40940847992897034,-9.746794700622559,22.247314453125,-4.6539306640625,-5.889892578125
9.709999900000001,-0.5961562395095825,-0.45489832758903503,-9.746794700622559,20.0958251953125,-5.7220458984375,-3.814697265625
9.729999900000001,-0.6248866319656372,-0.524330198764801,-9.742006301879883,14.4805908203125,-5.55419921875,-5.157470703125
9.7499999,-0.646434485912323,-0.5961562395095825,-9.751583099365234,11.41357421875,-3.8909912109375,-6.6375732421875
9.7699999,-0.6607996821403503,-0.6584054827690125,-9.773131370544434,10.7421875,-3.5400390625,-6.65283203125
9.7899999,-0.6655880808830261,-0.6799532771110535,-9.801861763000488,9.8724365234375,-4.45556640625,-6.134033203125
9.809999900000001,-0.6631938815116882,-0.6799532771110535,-9.84495735168457,6.866455078125,-3.47900390625,-5.6610107421875
9.8299999,-0.6607996821403503,-0.6560112833976746,-9.883264541625977,3.173828125,-1.3580322265625,-5.5084228515625
9.8499999,-0.6536170840263367,-0.6440402865409851,-9.904812812805176,2.410888671875,0.0762939453125,-5.096435546875
9.8699999,-0.6512228846549988,-0.6200982332229614,-9.883264541625977,4.0740966796875,0.2899169921875,-6.1798095703125
9.889999900000001,-0.6440402865409851,-0.6153098344802856,-9.84495735168457,2.99072265625,-1.251220703125,-6.011962890625
9.9099999,-0.6368576288223267,-0.6177040338516235,-9.799467086791992,-1.678466796875,-0.4730224609375,-5.035400390625
9.9299999,-0.6344634294509888,-0.6009446382522583,-9.780313491821289,-3.265380859375,0.274658203125,-5.9661865234375
9.9499999,-0.6320692300796509,-0.5889736413955688,-9.773131370544434,-0.732421875,0.9307861328125,-4.94384765625
9.969999900000001,-0.6392518281936646,-0.5554547905921936,-9.792284965515137,0.0152587890625,-0.244140625,-4.486083984375
9.9899999,-0.6440402865409851,-0.5506663918495178,-9.785101890563965,-0.9307861328125,0.5645751953125,-3.5552978515625
10.0099999,-0.6584054827690125,-0.5410895943641663,-9.801861763000488,-0.579833984375,-0.0152587890625,-4.4708251953125
10.0299999,-0.6631938815116882,-0.5626373887062073,-9.799467086791992,-0.3814697265625,0.3204345703125,-5.096435546875
10.049999900000001,-0.667982280254364,-0.5722141861915588,-9.823410034179688,-1.6021728515625,0.0152587890625,-4.3182373046875
10.069999900000001,-0.6607996821403503,-0.5674257874488831,-9.84256362915039,-1.89208984375,0.9002685546875,-4.180908203125
10.0899999,-0.6584054827690125,-0.5482721924781799,-9.861717224121094,-0.823974609375,2.166748046875,-3.60107421875
10.1099999,-0.6607996821403503,-0.5363011956214905,-9.84495735168457,-1.1749267578125,2.716064453125,-1.373291015625
10.129999900000001,-0.6751648783683777,-0.5339069962501526,-9.801861763000488,-1.3885498046875,1.1138916015625,-1.251220703125
10.149999900000001,-0.7015010714530945,-0.5434837937355042,-9.749189376831055,-0.946044921875,-0.030517578125,-2.349853515625
10.1699999,-0.730231523513794,-0.5841852426528931,-9.701305389404297,0.5645751953125,0.30517578125,-2.105712890625
10.1899999,-0.7565677165985107,-0.6248866319656372,-9.691728591918945,0.2288818359375,0.5950927734375,-2.044677734375
10.209999900000001,-0.7709329724311829,-0.667982280254364,-9.706093788146973,-0.1373291015625,0.42724609375,-2.9296875
10.229999900000001,-0.768538773059845,-0.706289529800415,-9.727641105651855,0.6256103515625,1.0528564453125,-3.082275390625
10.2499999,-0.7469909191131592,-0.7374141216278076,-9.739612579345703,2.50244140625,1.6632080078125,-3.47900390625
10.2699999,-0.7110779285430908,-0.7876923680305481,-9.718064308166504,3.0670166015625,1.03759765625,-4.302978515625
10.2899999,-0.6751648783683777,-0.8427590131759644,-9.713275909423828,-0.396728515625,-2.8228759765625,-7.0037841796875
10.309999900000001,-0.6536170840263367,-0.9074024558067322,-9.6989107131958,-3.7384033203125,-2.7923583984375,-10.1470947265625
10.3299999,-0.6560112833976746,-0.933738648891449,-9.727641105651855,-4.3182373046875,-1.861572265625,-13.12255859375
10.3499999,-0.6751648783683777,-0.912190854549408,-9.761159896850586,-2.838134765625,-2.166748046875,-14.5263671875
10.3699999,-0.7086837291717529,-0.8331822156906128,-9.761159896850586,-2.8533935546875,-1.5869140625,-13.7939453125
10.389999900000001,-0.7350199222564697,-0.7374141216278076,-9.75397777557373,-2.532958984375,-3.570556640625,-12.298583984375
10.4099999,-0.7565677165985107,-0.6512228846549988,-9.725247383117676,-1.922607421875,-5.0048828125,-10.955810546875
10.4299999,-0.7709329724311829,-0.586579442024231,-9.739612579345703,-1.3427734375,-4.69970703125,-10.2996826171875
10.4499999,-0.7781155705451965,-0.5339069962501526,-9.794678688049316,-0.9307861328125,-2.6092529296875,-9.3994140625
10.469999900000001,-0.7805097699165344,-0.45489832758903503,-9.873687744140625,0.0457763671875,0.48828125,-6.65283203125
10.4899999,-0.7661445140838623,-0.3974374830722809,-9.923966407775879,1.3275146484375,2.716064453125,-1.190185546875
10.5099999,-0.7589619159698486,-0.3423708379268646,-9.907206535339355,1.77001953125,2.7923583984375,1.0528564453125
10.5299999,-0.7445967197418213,-0.3663128614425659,-9.854534149169922,2.99072265625,0.42724609375,1.068115234375
10.549999900000001,-0.7422025203704834,-0.4141969084739685,-9.761159896850586,2.349853515625,0.3662109375,-0.4425048828125
10.569999900000001,-0.7493851184844971,-0.47405192255973816,-9.691728591918945,1.2359619140625,0.7781982421875,-0.4425048828125
10.5899999,-0.7637503147125244,-0.5219359993934631,-9.653421401977539,2.044677734375,0.30517578125,1.2359619140625
10.6099999,-0.7805097699165344,-0.5506663918495178,-9.63187313079834,2.655029296875,-0.0762939453125,1.7547607421875
10.629999900000001,-0.7972691655158997,-0.5889736413955688,-9.634267807006836,3.5400390625,-0.4425048828125,0.48828125
10.649999900000001,-0.8259995579719543,-0.6177040338516235,-9.63187313079834,4.5166015625,-0.9918212890625,-2.044677734375
10.6699999,-0.8451532125473022,-0.6512228846549988,-9.643844604492188,4.9591064453125,-3.0975341796875,-0.885009765625
10.6899999,-0.8738836050033569,-0.6631938815116882,-9.641449928283691,5.9051513671875,-4.2572021484375,0.2593994140625
10.709999900000001,-0.8882488012313843,-0.6799532771110535,-9.66539192199707,6.89697265625,-5.615234375,0.9918212890625
10.729999900000001,-0.9026140570640564,-0.6943184733390808,-9.674968719482422,7.4310302734375,-5.096435546875,0.6561279296875
10.7499999,-0.8954314589500427,-0.7374141216278076,-9.694122314453125,8.087158203125,-4.5318603515625,1.03759765625
10.7699999,-0.8810662031173706,-0.811634361743927,-9.68694019317627,4.0740966796875,-3.1585693359375,2.044677734375
10.7899999,-0.8619126081466675,-0.871489405632019,-9.694122314453125,0.91552734375,-4.974365234375,-0.762939453125
10.809999900000001,-0.849941611289978,-0.9313444495201111,-9.706093788146973,0.335693359375,-5.0201416015625,-1.0986328125
10.8299999,-0.8571242094039917,-0.9457096457481384,-9.739612579345703,1.5106201171875,-3.204345703125,0.8697509765625
10.8499999,-0.8738836050033569,-0.9624691009521484,-9.751583099365234,1.2359619140625,-0.6866455078125,2.6397705078125
10.8699999,-0.8954314589500427,-0.9672574996948242,-9.773131370544434,0.1068115234375,-3.2196044921875,1.15966796875
10.889999900000001,-0.9241618514060974,-0.9792284965515137,-9.765948295593262,0.1068115234375,-3.2196044921875,-0.67138671875
10.9099999,-0.9552865028381348,-0.9911994934082031,-9.787496566772461,1.007080078125,-2.3193359375,0.732421875
10.9299999,-0.9959878921508789,-0.9840168952941895,-9.823410034179688,1.739501953125,-2.0599365234375,1.220703125
10.9499999,-1.0342950820922852,-0.9840168952941895,-9.86889934539795,0.7781982421875,-1.5106201171875,1.8157958984375
10.969999900000001,-1.0678139925003052,-1.0007762908935547,-9.907206535339355,0.9918212890625,0.1220703125,1.556396484375
10.9899999,-1.091755986213684,-1.0271124839782715,-9.919178009033203,1.4801025390625,1.1749267578125,1.007080078125
11.0099999,-1.1037269830703735,-1.0558429956436157,-9.897629737854004,0.823974609375,2.13623046875,0.4425048828125
11.0299999,-1.0965443849563599,-1.0582371950149536,-9.837775230407715,0.3662109375,1.7852783203125,-0.6561279296875
11.049999900000001,-1.0797849893569946,-1.0247182846069336,-9.765948295593262,0.5035400390625,0.79345703125,-1.0528564453125
11.069999900000001,-1.0462661981582642,-0.9576807022094727,-9.710882186889648,0.091552734375,0.1220703125,0.213623046875
11.0899999,-1.0199298858642578,-0.8882488012313843,-9.684545516967773,0.701904296875,1.251220703125,1.068115234375
11.1099999,-1.0007762908935547,-0.8547300100326538,-9.6989107131958,-0.030517578125,1.129150390625,2.50244140625
11.129999900000001,-0.9959878921508789,-0.8619126081466675,-9.720458984375,-0.946044921875,1.6937255859375,0.701904296875
11.149999900000001,-1.0007762908935547,-0.8834604024887085,-9.744400978088379,-1.5106201171875,1.77001953125,-0.885009765625
11.1699999,-1.0079588890075684,-0.9074024558067322,-9.749189376831055,-1.64794921875,1.5716552734375,-0.06103515625
11.1899999,-1.0199298858642578,-0.9002198576927185,-9.746794700622559,-1.6021728515625,1.251220703125,1.1138916015625
11.209999900000001,-1.0223240852355957,-0.9002198576927185,-9.732429504394531,-1.40380859375,1.40380859375,1.6021728515625
11.229999900000001,-1.0247182846069336,-0.9002198576927185,-9.732429504394531,-1.220703125,0.91552734375,1.068115234375
11.2499999,-1.0223240852355957,-0.9217676520347595,-9.744400978088379,-1.495361328125,0.8392333984375,0.6866455078125
11.2699999,-1.0247182846069336,-0.950498104095459,-9.773131370544434,-1.220703125,1.4495849609375,0.5950927734375
11.2899999,-1.0199298858642578,-0.9840168952941895,-9.78989028930664,-2.3193359375,2.8533935546875,0.2288818359375
11.309999900000001,-1.0223240852355957,-0.993593692779541,-9.80904483795166,-2.9754638671875,2.288818359375,-1.2054443359375
11.3299999,-1.0199298858642578,-1.0103530883789062,-9.799467086791992,-1.9683837890625,2.0599365234375,-0.6103515625
11.3499999,-1.01753568649292,-1.0007762908935547,-9.785101890563965,-3.0670166015625,2.4261474609375,-1.190185546875
11.3699999,-1.0199298858642578,-1.0031704902648926,-9.775525093078613,-3.814697265625,2.1514892578125,-1.8463134765625
11.389999900000001,-1.0199298858642578,-0.9911994934082031,-9.761159896850586,-5.0811767578125,2.62451171875,-3.1280517578125
11.4099999,-1.015141487121582,-0.9720458984375,-9.749189376831055,-6.0272216796875,2.899169921875,-3.7994384765625
11.4299999,-1.0103530883789062,-0.9217676520347595,-9.742006301879883,-5.9814453125,1.922607421875,-3.47900390625
11.4499999,-1.0007762908935547,-0.8571242094039917,-9.713275909423828,-5.615234375,2.0751953125,-2.0294189453125
11.469999900000001,-0.9864110946655273,-0.8068459630012512,-9.691728591918945,-3.936767578125,1.9378662109375,-0.7781982421875
11.4899999,-0.9816226959228516,-0.7733271718025208,-9.677363395690918,-3.3416748046875,0.67138671875,-1.1749267578125
11.5099999,-0.9768342971801758,-0.7637503147125244,-9.677363395690918,-4.425048828125,1.0223388671875,-2.1514892578125
11.5299999,-0.9768342971801758,-0.7589619159698486,-9.68694019317627,-3.1280517578125,2.01416015625,-2.5634765625
11.549999900000001,-0.9744400978088379,-0.7326257228851318,-9.6989107131958,-2.44140625,2.5482177734375,-1.6937255859375
11.569999900000001,-0.9744400978088379,-0.6871358752250671,-9.691728591918945,-2.1209716796875,1.007080078125,-1.0528564453125
11.5899999,-0.9672574996948242,-0.6584054827690125,-9.677363395690918,-1.556396484375,0.4119873046875,0.457763671875
11.6099999,-0.9696516990661621,-0.629675030708313,-9.66539192199707,-2.2125244140625,-0.0152587890625,-0.1983642578125
11.629999900000001,-0.9720458984375,-0.629675030708313,-9.679757118225098,-3.204345703125,0.213623046875,-0.42724609375
11.649999900000001,-0.9744400978088379,-0.6320692300796509,-9.696516990661621,-2.9144287109375,0.42724609375,-0.18310546875
11.6699999,-0.9768342971801758,-0.6344634294509888,-9.72285270690918,-1.15966796875,0.823974609375,-0.244140625
11.6899999,-0.9816226959228516,-0.6224924325942993,-9.746794700622559,-1.373291015625,-0.1373291015625,-0.152587890625
11.709999900000001,-0.9792284965515137,-0.6320692300796509,-9.775525093078613,-2.44140625,-0.0762939453125,1.7242431640625
11.729999900000001,-0.9888052940368652,-0.6392518281936646,-9.801861763000488,-1.46484375,0.396728515625,0.7171630859375
11.7499999,-0.9959878921508789,-0.6703764796257019,-9.825803756713867,-2.0599365234375,1.1749267578125,-0.4425048828125
11.7699999,-1.0055646896362305,-0.6919242739677429,-9.832986831665039,-2.38037109375,1.4801025390625,-1.3427734375
11.7899999,-1.0079588890075684,-0.6847416758537292,-9.823410034179688,-1.8157958984375,1.373291015625,-0.946044921875
11.809999900000001,-1.0103530883789062,-0.6631938815116882,-9.801861763000488,-1.251220703125,0.9613037109375,0.7781982421875
11.8299999,-1.0103530883789062,-0.6488286852836609,-9.782708168029785,-0.9918212890625,0.9765625,1.6632080078125
11.8499999,-1.0055646896362305,-0.6560112833976746,-9.773131370544434,-2.1514892578125,0.6256103515625,0.091552734375
11.8699999,-1.0079588890075684,-0.667982280254364,-9.780313491821289,-2.9449462890625,1.0528564453125,-1.7852783203125
11.889999900000001,-1.0007762908935547,-0.6823474764823914,-9.780313491821289,-2.044677734375,1.8310546875,-1.129150390625
11.9099999,-0.9959878921508789,-0.6727706789970398,-9.782708168029785,-1.77001953125,2.0599365234375,-0.2899169921875
11.9299999,-0.9888052940368652,-0.6584054827690125,-9.768342971801758,-1.5716552734375,1.251220703125,-0.67138671875
11.9499999,-0.9911994934082031,-0.6416460275650024,-9.758766174316406,-1.6937255859375,0.640869140625,-1.129150390625
11.969999900000001,-0.993593692779541,-0.6368576288223267,-9.744400978088379,-1.6021728515625,1.15966796875,-0.5645751953125
11.9899999,-0.993593692779541,-0.6440402865409851,-9.737217903137207,-2.0599365234375,1.5716552734375,-0.3509521484375
12.0099999,-0.9959878921508789,-0.6512228846549988,-9.725247383117676,-2.3956298828125,1.1138916015625,-1.3885498046875
12.0299999,-0.993593692779541,-0.6631938815116882,-9.725247383117676,-2.13623046875,0.4730224609375,-1.64794921875
12.049999900000001,-0.9911994934082031,-0.6655880808830261,-9.72285270690918,-1.3885498046875,1.0223388671875,-1.220703125
12.069999900000001,-0.9888052940368652,-0.6655880808830261,-9.72285270690918,-0.946044921875,1.46484375,-0.701904296875
12.0899999,-0.9888052940368652,-0.689530074596405,-9.75397777557373,-2.0599365234375,0.3509521484375,-0.8392333984375
12.1099999,-0.9911994934082031,-0.7182605266571045,-9.773131370544434,-2.9449462890625,1.40380859375,-2.9296875
12.129999900000001,-0.9959878921508789,-0.7709329724311829,-9.823410034179688,-2.044677734375,2.50244140625,-4.6844482421875
12.149999900000001,-1.0055646896362305,-0.828393816947937,-9.885659217834473,-2.0294189453125,3.23486328125,-5.7220458984375
12.1699999,-1.0271124839782715,-0.9217676520347595,-9.95748519897461,0,3.9825439453125,-7.8125
12.1899999,-1.0414776802062988,-1.01753568649292,-10.017339706420898,-0.2899169921875,6.28662109375,-11.383056640625
12.209999900000001,-1.048660397529602,-1.0773907899856567,-10.022128105163574,-1.9683837890625,8.1939697265625,-16.632080078125
12.229999900000001,-1.0271124839782715,-1.0630255937576294,-9.99339771270752,-1.77001953125,5.9051513671875,-18.310546875
12.2499999,-0.9792284965515137,-0.9433154463768005,-9.90241813659668,-2.6397705078125,5.706787109375,-18.1732177734375
12.2699999,-0.9026140570640564,-0.7254431247711182,-9.825803756713867,-4.791259765625,6.134033203125,-18.2647705078125
12.289999900000002,-0.8188169598579407,-0.43095630407333374,-9.761159896850586,-7.01904296875,6.9732666015625,-19.012451171875
12.309999900000001,-0.7326257228851318,-0.047884032130241394,-9.780313491821289,-11.0626220703125,6.9427490234375,-15.380859375
12.3299999,-0.6560112833976746,0.3711012601852417,-9.852140426635742,-15.472412109375,9.185791015625,-7.5531005859375
12.3499999,-0.6200982332229614,0.8236053586006165,-9.962273597717285,-14.58740234375,14.09912109375,-2.3651123046875
12.3699999,-0.5746083855628967,1.237802267074585,-10.08437728881836,-10.8184814453125,17.852783203125,-1.800537109375
12.389999900000001,-0.4908113479614258,1.6974890232086182,-10.0580415725708,-21.026611328125,27.557373046875,-2.4566650390625
12.4099999,-0.33997663855552673,2.403778553009033,-9.988609313964844,-42.9229736328125,27.6031494140625,-1.0528564453125
12.4299999,-0.14604631066322327,3.428496837615967,-9.8784761428833,-62.530517578125,18.7530517578125,14.068603515625
12.4499999,0.002394201699644327,4.738125324249268,-9.840168952941895,-56.82373046875,15.3961181640625,40.4510498046875
12.469999900000001,-0.026336219161748886,6.04775333404541,-9.945513725280762,-23.590087890625,5.2490234375,64.208984375
12.4899999,-0.22266076505184174,6.926425457000732,-10.254365921020508,-1.8463134765625,-9.552001953125,91.5069580078125
12.5099999,-0.5674257874488831,7.208941459655762,-10.639832496643066,-3.448486328125,-1.5106201171875,105.77392578125
12.5299999,-0.9672574996948242,6.97430944442749,-10.977415084838867,-10.9100341796875,23.162841796875,103.759765625
12.549999900000001,-1.3239935636520386,6.461950302124023,-11.195286750793457,-7.415771484375,26.0467529296875,107.1929931640625
12.569999900000001,-1.6280571222305298,5.980715751647949,-11.176133155822754,0.823974609375,20.660400390625,118.408203125
12.5899999,-1.8746598958969116,5.60722017288208,-10.936713218688965,8.270263671875,25.2227783203125,132.568359375
12.6099999,-2.0853497982025146,5.284003257751465,-10.575188636779785,17.0440673828125,26.6265869140625,145.7672119140625
12.629999900000001,-2.300827741622925,4.922478675842285,-10.158597946166992,26.0009765625,20.5078125,153.86962890625
12.649999900000001,-2.5115175247192383,4.410119533538818,-9.682151794433594,32.196044921875,22.9949951171875,161.0260009765625
12.6699999,-2.7054479122161865,3.7900211811065674,-9.17936897277832,34.48486328125,26.458740234375,168.64013671875
12.6899999,-2.8395233154296875,3.0526070594787598,-8.573636054992676,30.5023193359375,24.993896484375,173.309326171875
12.709999900000001,-2.935291290283203,2.3702597618103027,-7.955932140350342,24.200439453125,10.8489990234375,172.54638671875
12.729999900000001,-3.0358476638793945,1.7812861204147339,-7.510610580444336,33.63037109375,-8.1939697265625,172.8363037109375
12.7499999,-3.205836057662964,1.2306196689605713,-7.283161640167236,61.5997314453125,-16.1590576171875,182.220458984375
12.7699999,-3.509899616241455,0.5602431893348694,-7.4100542068481445,86.822509765625,-16.8914794921875,194.8394775390625
12.789999900000002,-3.9169139862060547,-0.524330198764801,-7.747636795043945,93.7957763671875,-15.0146484375,200.836181640625
12.809999900000001,-4.314351558685303,-2.1045033931732178,-8.111555099487305,87.921142578125,-1.28173828125,194.305419921875
12.8299999,-4.630385875701904,-3.9695863723754883,-8.44434928894043,74.0814208984375,8.087158203125,174.041748046875
12.8499999,-4.716577529907227,-5.87776517868042,-8.678980827331543,57.525634765625,1.0833740234375,151.5045166015625
12.8699999,-4.594472885131836,-7.350199222564697,-8.765172004699707,32.5775146484375,9.09423828125,120.4376220703125
12.889999900000001,-4.273650169372559,-8.248024940490723,-8.743624687194824,6.3934326171875,7.32421875,96.282958984375
12.9099999,-3.8139634132385254,-8.62391471862793,-8.678980827331543,-11.322021484375,-5.2642822265625,82.1533203125
12.9299999,-3.313575267791748,-8.465897560119629,-8.530540466308594,-28.076171875,-6.65283203125,50.78125
12.9499999,-2.8562827110290527,-7.94635534286499,-8.671798706054688,-31.1126708984375,-14.6484375,21.3165283203125
12.969999900000001,-2.365471363067627,-7.280767440795898,-8.592789649963379,-39.5355224609375,21.0723876953125,14.892578125
12.9899999,-2.0183119773864746,-6.186617374420166,-8.722076416015625,-31.707763671875,20.69091796875,5.0048828125
13.0099999,-1.5945383310317993,-5.195417881011963,-8.81784439086914,6.8817138671875,-14.7857666015625,28.656005859375
13.0299999,-1.2713210582733154,-4.0078935623168945,-9.097966194152832,24.749755859375,-12.298583984375,33.38623046875
13.049999900000001,-0.9576807022094727,-3.1196448802948,-9.461885452270508,17.486572265625,13.85498046875,52.1697998046875
13.069999900000001,-0.790086567401886,-2.580949544906616,-9.911994934082031,13.4429931640625,12.6190185546875,65.8111572265625
13.0899999,-0.6919242739677429,-2.6240451335906982,-10.165780067443848,8.6669921875,19.683837890625,67.32177734375
13.1099999,-0.706289529800415,-3.0095114707946777,-10.017339706420898,-0.3204345703125,27.2674560546875,40.863037109375
13.129999900000001,-0.7182605266571045,-3.6104562282562256,-9.8784761428833,-13.3056640625,2.01416015625,15.899658203125
13.149999900000001,-0.7326257228851318,-3.909731388092041,-9.588777542114258,-29.4342041015625,-13.397216796875,-4.730224609375
13.1699999,-0.689530074596405,-3.892971992492676,-9.418789863586426,-28.5491943359375,-5.279541015625,-2.7618408203125
13.1899999,-0.6320692300796509,-3.488351821899414,-9.366117477416992,-12.3443603515625,-6.7138671875,0.8544921875
13.209999900000001,-0.5722141861915588,-2.920926094055176,-9.375694274902344,-4.5166015625,-7.965087890625,2.1209716796875
13.229999900000001,-0.5219359993934631,-2.367865562438965,-9.406818389892578,-9.2620849609375,0.701904296875,5.584716796875
13.2499999,-0.49320554733276367,-1.8986018896102905,-9.500192642211914,-16.0675048828125,7.5836181640625,7.26318359375
13.2699999,-0.4812345504760742,-1.5394717454910278,-9.622296333312988,-12.63427734375,8.7432861328125,6.134033203125
13.289999900000002,-0.4692635238170624,-1.316810965538025,-9.734824180603027,-8.0718994140625,10.467529296875,6.2255859375
13.309999900000001,-0.4429273009300232,-1.1444283723831177,-9.797073364257812,-8.575439453125,8.23974609375,3.6163330078125
13.3299999,-0.42377370595932007,-1.036689281463623,-9.785101890563965,-10.6964111328125,-0.0762939453125,-0.1068115234375
13.3499999,-0.40462008118629456,-0.9648633003234863,-9.703699111938477,-13.092041015625,-8.880615234375,0.3814697265625
13.3699999,-0.4189853072166443,-0.8906430602073669,-9.658209800720215,-13.3056640625,-15.533447265625,-0.244140625
13.389999900000001,-0.45250412821769714,-0.8355764150619507,-9.672574996948242,-9.490966796875,-12.5885009765625,0.091552734375
13.4099999,-0.5003881454467773,-0.7757213711738586,-9.780313491821289,-5.889892578125,-3.6163330078125,1.190185546875
13.4299999,-0.5315127968788147,-0.7015010714530945,-9.914389610290527,-6.04248046875,4.08935546875,4.2266845703125
13.4499999,-0.5410895943641663,-0.6488286852836609,-10.019734382629395,-4.4097900390625,7.2784423828125,10.0860595703125
13.469999900000001,-0.5219359993934631,-0.608127236366272,-10.072406768798828,-0.518798828125,6.1187744140625,13.12255859375
13.4899999,-0.5051765441894531,-0.629675030708313,-10.043676376342773,-0.6103515625,5.5694580078125,12.725830078125
13.5099999,-0.48602294921875,-0.7182605266571045,-9.988609313964844,-2.7313232421875,1.8768310546875,11.932373046875
13.5299999,-0.4908113479614258,-0.8571242094039917,-9.909601211547852,-3.204345703125,-2.2125244140625,8.087158203125
13.549999900000001,-0.5051765441894531,-1.0127472877502441,-9.832986831665039,-2.9144287109375,-3.8299560546875,3.35693359375
13.569999900000001,-0.5410895943641663,-1.1180921792984009,-9.804255485534668,-5.218505859375,-2.899169921875,1.1138916015625
13.5899999,-0.5793967843055725,-1.1899182796478271,-9.785101890563965,-5.9661865234375,-0.1678466796875,3.72314453125
13.6099999,-0.6200982332229614,-1.2282254695892334,-9.77791976928711,-2.0294189453125,1.220703125,5.8746337890625
13.629999900000001,-0.6560112833976746,-1.2641384601593018,-9.77791976928711,0.7171630859375,0.5950927734375,4.8065185546875
13.649999900000001,-0.6823474764823914,-1.3096283674240112,-9.758766174316406,-0.2288818359375,3.1585693359375,3.5858154296875
13.6699999,-0.689530074596405,-1.3503297567367554,-9.761159896850586,-1.28173828125,3.875732421875,3.4027099609375
13.6899999,-0.6847416758537292,-1.3646949529647827,-9.751583099365234,-3.3416748046875,2.9449462890625,1.2359619140625
13.709999900000001,-0.6703764796257019,-1.3742717504501343,-9.730035781860352,-7.720947265625,2.288818359375,-1.40380859375
13.729999900000001,-0.6488286852836609,-1.3407529592514038,-9.701305389404297,-11.71875,0.946044921875,-5.92041015625
13.7499999,-0.6272808313369751,-1.2473790645599365,-9.68694019317627,-13.2598876953125,-1.1749267578125,-8.9569091796875
13.7699999,-0.5937620401382446,-1.0773907899856567,-9.6989107131958,-10.19287109375,-2.0294189453125,-7.0037841796875
13.789999900000002,-0.569819986820221,-0.8786720037460327,-9.720458984375,-5.279541015625,-0.3814697265625,-1.678466796875
13.809999900000001,-0.5554547905921936,-0.7086837291717529,-9.780313491821289,-2.899169921875,-0.9002685546875,1.2969970703125
13.8299999,-0.5626373887062073,-0.6057330369949341,-9.828198432922363,-3.173828125,-0.3509521484375,0.1373291015625
13.8499999,-0.5793967843055725,-0.5793967843055725,-9.895236015319824,-2.2125244140625,0.946044921875,0.3509521484375
13.8699999,-0.5961562395095825,-0.586579442024231,-9.940725326538086,-1.2359619140625,2.044677734375,0.701904296875
13.889999900000001,-0.6057330369949341,-0.6129156351089478,-9.962273597717285,-1.129150390625,1.77001953125,0.274658203125
13.9099999,-0.6033388376235962,-0.6440402865409851,-9.952696800231934,-2.1514892578125,-0.0762939453125,-1.007080078125
13.9299999,-0.5961562395095825,-0.6823474764823914,-9.921571731567383,-3.0364990234375,-1.46484375,-2.13623046875
13.9499999,-0.5889736413955688,-0.7015010714530945,-9.897629737854004,-2.2430419921875,-1.0528564453125,-2.655029296875
13.969999900000001,-0.5841852426528931,-0.7015010714530945,-9.892841339111328,-0.8392333984375,-0.7476806640625,-2.13623046875
13.9899999,-0.5770025849342346,-0.6727706789970398,-9.890447616577148,-0.7781982421875,1.495361328125,-0.5340576171875
14.0099999,-0.5674257874488831,-0.6488286852836609,-9.86889934539795,0.0152587890625,3.8604736328125,1.556396484375
14.0299999,-0.5602431893348694,-0.629675030708313,-9.821015357971191,0.7781982421875,3.875732421875,2.3345947265625
14.049999900000001,-0.5602431893348694,-0.6416460275650024,-9.75397777557373,0.6256103515625,2.3651123046875,1.9989013671875
14.069999900000001,-0.5650315880775452,-0.6703764796257019,-9.682151794433594,0.9918212890625,1.4190673828125,1.3885498046875
14.0899999,-0.5746083855628967,-0.706289529800415,-9.641449928283691,2.0294189453125,0.244140625,1.0986328125
14.1099999,-0.5770025849342346,-0.7206547260284424,-9.610325813293457,0.946044921875,-0.274658203125,1.3427734375
14.129999900000001,-0.5746083855628967,-0.730231523513794,-9.57201862335205,-0.8697509765625,-1.0986328125,2.8533935546875
14.149999900000001,-0.569819986820221,-0.7134721279144287,-9.521739959716797,-1.2969970703125,-4.913330078125,4.302978515625
14.1699999,-0.5793967843055725,-0.6967126727104187,-9.500192642211914,-2.0904541015625,-9.3231201171875,5.7830810546875
14.1899999,-0.6105214357376099,-0.6799532771110535,-9.50498104095459,-2.5482177734375,-8.2244873046875,7.0953369140625
14.209999900000001,-0.6536170840263367,-0.6727706789970398,-9.564835548400879,-0.7781982421875,-6.9122314453125,7.01904296875
14.229999900000001,-0.706289529800415,-0.6799532771110535,-9.660603523254395,1.64794921875,-7.2174072265625,6.04248046875
14.2499999,-0.7445967197418213,-0.7086837291717529,-9.749189376831055,-0.30517578125,-6.439208984375,5.828857421875
14.2699999,-0.7852981686592102,-0.730231523513794,-9.852140426635742,-2.9754638671875,-6.6986083984375,3.0059814453125
14.289999900000002,-0.8164227604866028,-0.7469909191131592,-9.940725326538086,-2.74658203125,-5.43212890625,0.8392333984375
14.309999900000001,-0.8523358106613159,-0.7565677165985107,-9.998186111450195,-0.823974609375,-3.082275390625,0.9765625
14.3299999,-0.8834604024887085,-0.7541735172271729,-10.02691650390625,0.457763671875,-3.265380859375,0.152587890625
14.3499999,-0.9097966551780701,-0.7541735172271729,-10.014945983886719,-0.5950927734375,-2.5482177734375,-1.4190673828125
14.3699999,-0.9361328482627869,-0.7661445140838623,-9.976638793945312,-1.2969970703125,0.213623046875,-1.8157958984375
14.389999900000001,-0.9481038451194763,-0.7709329724311829,-9.947908401489258,-0.762939453125,1.1138916015625,-2.62451171875
14.4099999,-0.9457096457481384,-0.7637503147125244,-9.926360130310059,-0.762939453125,1.1444091796875,-4.0130615234375
14.4299999,-0.933738648891449,-0.751779317855835,-9.919178009033203,-1.373291015625,1.9073486328125,-3.753662109375
14.4499999,-0.912190854549408,-0.730231523513794,-9.911994934082031,-1.6937255859375,2.532958984375,-3.3111572265625
14.469999900000001,-0.8906430602073669,-0.7134721279144287,-9.90241813659668,-0.67138671875,1.6326904296875,-3.936767578125
14.4899999,-0.8643068075180054,-0.689530074596405,-9.8784761428833,-1.068115234375,0.640869140625,-4.9896240234375
14.5099999,-0.8475474119186401,-0.6631938815116882,-9.856928825378418,-1.7242431640625,1.3275146484375,-4.8828125
14.5299999,-0.828393816947937,-0.6344634294509888,-9.828198432922363,-0.885009765625,1.6937255859375,-3.35693359375
14.549999900000001,-0.8212111592292786,-0.608127236366272,-9.794678688049316,0.42724609375,1.64794921875,-2.74658203125
14.569999900000001,-0.8259995579719543,-0.608127236366272,-9.765948295593262,1.6021728515625,0,-2.5634765625
14.5899999,-0.8355764150619507,-0.6272808313369751,-9.737217903137207,3.3111572265625,-0.5035400390625,-3.5552978515625
14.6099999,-0.8475474119186401,-0.6560112833976746,-9.72285270690918,6.9427490234375,-0.4425048828125,-4.82177734375
14.629999900000001,-0.8619126081466675,-0.6919242739677429,-9.720458984375,11.8255615234375,-1.556396484375,-4.730224609375
14.649999900000001,-0.8690952062606812,-0.7206547260284424,-9.708487510681152,13.1072998046875,-2.4261474609375,-4.5928955078125
14.6699999,-0.8762778043746948,-0.7565677165985107,-9.710882186889648,16.0369873046875,-3.936767578125,-5.1727294921875
14.6899999,-0.8762778043746948,-0.7757213711738586,-9.706093788146973,16.632080078125,-3.4027099609375,-5.2642822265625
14.709999900000001,-0.8738836050033569,-0.7924807667732239,-9.68933391571045,12.9547119140625,-1.6021728515625,-2.9449462890625
14.729999900000001,-0.8858546018600464,-0.8236053586006165,-9.667786598205566,11.4593505859375,-3.9215087890625,0.6103515625
14.7499999,-0.8954314589500427,-0.8475474119186401,-9.648633003234863,13.6566162109375,-6.622314453125,0.7171630859375
14.7699999,-0.9145850539207458,-0.8978256583213806,-9.63187313079834,15.777587890625,-3.662109375,-0.0152587890625
14.789999900000002,-0.9385270476341248,-0.9457096457481384,-9.627084732055664,17.4102783203125,-1.4495849609375,0.9613037109375
14.809999900000001,-0.9768342971801758,-1.036689281463623,-9.619902610778809,15.68603515625,-2.1514892578125,2.2430419921875
14.8299999,-1.0223240852355957,-1.1755530834197998,-9.62947940826416,11.65771484375,-4.7760009765625,1.3885498046875
14.8499999,-1.0797849893569946,-1.3455413579940796,-9.655815124511719,1.8463134765625,-4.2572021484375,-2.9296875
14.8699999,-1.1324573755264282,-1.5275006294250488,-9.703699111938477,-5.6915283203125,0.640869140625,-4.7760009765625
14.889999900000001,-1.173158884048462,-1.6687586307525635,-9.770736694335938,-6.2713623046875,2.044677734375,-6.622314453125
14.9099999,-1.2018892765045166,-1.7381904125213623,-9.81143856048584,-6.8206787109375,1.1444091796875,-11.260986328125
14.9299999,-1.2114660739898682,-1.764526605606079,-9.806650161743164,-9.124755859375,2.044677734375,-13.4124755859375
14.9499999,-1.2042834758758545,-1.7381904125213623,-9.77791976928711,-7.5836181640625,1.5869140625,-15.31982421875
14.969999900000001,-1.1875240802764893,-1.659181833267212,-9.739612579345703,-6.5155029296875,-0.2899169921875,-19.0277099609375
14.9899999,-1.158793568611145,-1.5466543436050415,-9.706093788146973,-9.5977783203125,-0.030517578125,-20.263671875
15.0099999,-1.1300631761550903,-1.434126853942871,-9.68933391571045,-8.9263916015625,2.6702880859375,-18.9056396484375
15.0299999,-1.0989385843276978,-1.3024457693099976,-9.718064308166504,-7.568359375,1.52587890625,-20.44677734375
15.049999900000001,-1.0845733880996704,-1.1563993692398071,-9.765948295593262,-8.544921875,1.15966796875,-23.2391357421875
15.069999900000001,-1.070208191871643,-1.048660397529602,-9.825803756713867,-10.2081298828125,2.9296875,-21.2554931640625
15.0899999,-1.0678139925003052,-0.9481038451194763,-9.864110946655273,-9.5062255859375,3.692626953125,-21.728515625
15.1099999,-1.0630255937576294,-0.9026140570640564,-9.8784761428833,-11.993408203125,1.6326904296875,-22.9339599609375
15.129999900000001,-1.05105459690094,-0.8834604024887085,-9.799467086791992,-18.7530517578125,1.8768310546875,-23.74267578125
15.149999900000001,-1.0247182846069336,-0.8619126081466675,-9.725247383117676,-23.2086181640625,-0.6256103515625,-23.7579345703125
15.1699999,-0.9911994934082031,-0.7924807667732239,-9.634267807006836,-22.5830078125,-3.631591796875,-22.6898193359375
15.1899999,-0.9552865028381348,-0.6919242739677429,-9.569623947143555,-16.4337158203125,-5.0048828125,-19.95849609375
15.209999900000001,-0.912190854549408,-0.608127236366272,-9.545681953430176,-12.14599609375,-5.92041015625,-12.4969482421875
15.229999900000001,-0.8954314589500427,-0.5793967843055725,-9.550470352172852,-11.3677978515625,-5.645751953125,-8.1787109375
15.2499999,-0.8930372595787048,-0.6272808313369751,-9.579200744628906,-11.2152099609375,-4.21142578125,-9.70458984375
15.2699999,-0.912190854549408,-0.7374141216278076,-9.610325813293457,-10.3302001953125,-1.953125,-12.39013671875
15.289999900000002,-0.9457096457481384,-0.828393816947937,-9.634267807006836,-9.4757080078125,-0.213623046875,-15.7470703125
15.309999900000001,-0.9816226959228516,-0.8690952062606812,-9.66299819946289,-8.4228515625,0.5645751953125,-15.9759521484375
15.3299999,-1.015141487121582,-0.8547300100326538,-9.667786598205566,-7.38525390625,1.5869140625,-14.068603515625
15.3499999,-1.0414776802062988,-0.8092401623725891,-9.672574996948242,-7.4615478515625,2.38037109375,-15.2587890625
15.3699999,-1.0606313943862915,-0.7541735172271729,-9.646238327026367,-8.453369140625,2.44140625,-17.6849365234375
15.389999900000001,-1.0630255937576294,-0.7158663272857666,-9.639056205749512,-8.30078125,0.1983642578125,-17.1661376953125
15.4099999,-1.0582371950149536,-0.6655880808830261,-9.615114212036133,-7.7362060546875,2.349853515625,-18.218994140625
15.4299999,-1.0534487962722778,-0.6153098344802856,-9.641449928283691,-6.683349609375,0.9307861328125,-18.4326171875
15.4499999,-1.036689281463623,-0.5410895943641663,-9.677363395690918,-6.8359375,0.579833984375,-17.578125
15.469999900000001,-1.0271124839782715,-0.4692635238170624,-9.72285270690918,-5.3253173828125,1.678466796875,-14.923095703125
15.4899999,-1.015141487121582,-0.4189853072166443,-9.765948295593262,-3.84521484375,1.3580322265625,-12.0391845703125
15.5099999,-1.0127472877502441,-0.4118026793003082,-9.792284965515137,-2.716064453125,0.1068115234375,-13.0615234375
15.5299999,-1.015141487121582,-0.42377370595932007,-9.797073364257812,-0.3509521484375,-0.579833984375,-17.0745849609375
15.549999900000001,-1.0247182846069336,-0.45489832758903503,-9.804255485534668,-0.5340576171875,-0.4119873046875,-17.1356201171875
15.569999900000001,-1.0342950820922852,-0.4620809257030487,-9.804255485534668,-2.8839111328125,0.5950927734375,-14.9383544921875
15.5899999,-1.0342950820922852,-0.44532153010368347,-9.80904483795166,-3.8909912109375,1.6021728515625,-15.289306640625
15.6099999,-1.0247182846069336,-0.4189853072166443,-9.78989028930664,0.42724609375,1.9073486328125,-17.608642578125
15.629999900000001,-1.0103530883789062,-0.38307225704193115,-9.775525093078613,4.6234130859375,-0.244140625,-19.0277099609375
15.649999900000001,-0.9864110946655273,-0.3423708379268646,-9.75637149810791,1.556396484375,-0.579833984375,-18.12744140625
15.6699999,-0.9624691009521484,-0.29209262132644653,-9.739612579345703,-0.8697509765625,1.861572265625,-17.120361328125
15.6899999,-0.9457096457481384,-0.2585737705230713,-9.727641105651855,0.5645751953125,2.7923583984375,-16.3421630859375
15.709999900000001,-0.9385270476341248,-0.23942017555236816,-9.710882186889648,0.518798828125,0.8697509765625,-15.13671875
15.729999900000001,-0.9481038451194763,-0.27054479718208313,-9.677363395690918,2.2125244140625,0.5035400390625,-13.85498046875
15.7499999,-0.9696516990661621,-0.3471592366695404,-9.641449928283691,6.1492919921875,0.3204345703125,-15.3045654296875
15.7699999,-0.9983820915222168,-0.4405331015586853,-9.634267807006836,6.2713623046875,-2.3956298828125,-19.317626953125
15.789999900000002,-1.0247182846069336,-0.5386953949928284,-9.627084732055664,2.166748046875,-1.312255859375,-20.0347900390625
15.809999900000001,-1.0462661981582642,-0.6200982332229614,-9.653421401977539,0.0457763671875,-0.1983642578125,-18.218994140625
15.8299999,-1.0582371950149536,-0.6775590777397156,-9.679757118225098,-0.2593994140625,-0.5950927734375,-18.9971923828125
15.8499999,-1.070208191871643,-0.7110779285430908,-9.684545516967773,1.9073486328125,-0.06103515625,-23.3612060546875
15.869999900000002,-1.0654197931289673,-0.7445967197418213,-9.670180320739746,8.0718994140625,-2.5177001953125,-23.162841796875
15.889999900000001,-1.0797849893569946,-0.7852981686592102,-9.660603523254395,9.765625,-10.589599609375,-23.8800048828125
15.9099999,-1.113303780555725,-0.8259995579719543,-9.66539192199707,8.941650390625,-11.6729736328125,-27.4658203125
15.9299999,-1.1444283723831177,-0.9217676520347595,-9.667786598205566,5.9051513671875,0.579833984375,-25.45166015625
15.9499999,-1.1803414821624756,-0.9840168952941895,-9.684545516967773,0.91552734375,-1.8310546875,-29.4189453125
15.969999900000001,-1.192312479019165,-0.9768342971801758,-9.68933391571045,-5.3558349609375,-8.1787109375,-32.1044921875
15.9899999,-1.1516109704971313,-0.7757213711738586,-9.739612579345703,-3.3721923828125,-2.0599365234375,-21.7742919921875
16.0099999,-1.1276689767837524,-0.646434485912323,-9.77791976928711,-0.18310546875,-4.241943359375,-22.186279296875
16.0299999,-1.1228805780410767,-0.5554547905921936,-9.797073364257812,2.6092529296875,-6.622314453125,-19.83642578125
16.0499999,-1.1300631761550903,-0.524330198764801,-9.768342971801758,2.349853515625,-4.486083984375,-18.096923828125
16.0699999,-1.158793568611145,-0.5482721924781799,-9.730035781860352,-0.67138671875,-4.974365234375,-15.960693359375
16.089999900000002,-1.2042834758758545,-0.6009446382522583,-9.696516990661621,-2.166748046875,-6.683349609375,-17.02880859375
16.109999900000002,-1.256955862045288,-0.6607996821403503,-9.679757118225098,-0.2593994140625,-5.4931640625,-17.4407958984375
16.1299999,-1.3048399686813354,-0.7254431247711182,-9.68933391571045,-0.1678466796875,-5.0811767578125,-14.8773193359375
16.1499999,-1.3431471586227417,-0.7852981686592102,-9.720458984375,-2.99072265625,-5.2947998046875,-14.190673828125
16.1699999,-1.359906554222107,-0.8762778043746948,-9.746794700622559,-5.1116943359375,-4.241943359375,-16.2353515625
16.1899999,-1.3742717504501343,-0.9744400978088379,-9.768342971801758,-6.3934326171875,-3.4332275390625,-20.3094482421875
16.2099999,-1.3958195447921753,-1.072602391242981,-9.758766174316406,-7.080078125,-3.662109375,-24.017333984375
16.2299999,-1.41257905960083,-1.139639973640442,-9.727641105651855,-10.7421875,-2.3956298828125,-24.5208740234375
16.249999900000002,-1.434126853942871,-1.1516109704971313,-9.68933391571045,-15.3350830078125,-2.716064453125,-26.7791748046875
16.269999900000002,-1.4532804489135742,-1.1300631761550903,-9.660603523254395,-15.19775390625,-1.3885498046875,-27.6947021484375
16.2899999,-1.4628572463989258,-1.0893617868423462,-9.653421401977539,-10.2691650390625,-0.244140625,-27.1759033203125
16.3099999,-1.4867992401123047,-1.0342950820922852,-9.68933391571045,-5.828857421875,-1.373291015625,-29.5867919921875
16.3299999,-1.4987702369689941,-0.9864110946655273,-9.744400978088379,-4.4708251953125,0.91552734375,-30.853271484375
16.3499999,-1.4867992401123047,-0.9241618514060974,-9.804255485534668,-10.345458984375,4.364013671875,-30.0750732421875
16.3699999,-1.4532804489135742,-0.8188169598579407,-9.830592155456543,-13.3819580078125,6.77490234375,-30.609130859375
16.3899999,-1.3862427473068237,-0.6847416758537292,-9.828198432922363,-9.002685546875,4.913330078125,-29.96826171875
16.4099999,-1.3120225667953491,-0.48602294921875,-9.804255485534668,-2.8076171875,1.0833740234375,-30.6396484375
16.429999900000002,-1.2401964664459229,-0.2849099934101105,-9.773131370544434,-2.5787353515625,2.471923828125,-26.85546875
16.4499999,-1.1827356815338135,-0.12689268589019775,-9.773131370544434,-5.2947998046875,3.570556640625,-21.0418701171875
16.4699999,-1.1492167711257935,-0.033518824726343155,-9.765948295593262,-6.1187744140625,3.4332275390625,-20.56884765625
16.4899999,-1.1444283723831177,-0.043095629662275314,-9.797073364257812,-3.9520263671875,0.4730224609375,-20.08056640625
16.5099999,-1.1516109704971313,-0.08858546614646912,-9.849745750427246,-1.9683837890625,-0.152587890625,-21.05712890625
16.5299999,-1.1827356815338135,-0.14844051003456116,-9.897629737854004,-1.007080078125,6.28662109375,-19.6075439453125
16.5499999,-1.1899182796478271,-0.2059013396501541,-9.926360130310059,1.0528564453125,9.1705322265625,-15.533447265625
16.5699999,-1.2018892765045166,-0.24420857429504395,-9.914389610290527,2.25830078125,4.7149658203125,-16.6473388671875
16.589999900000002,-1.1851298809051514,-0.2968810200691223,-9.840168952941895,1.739501953125,6.28662109375,-14.862060546875
16.609999900000002,-1.1635819673538208,-0.3423708379268646,-9.792284965515137,0.4119873046875,5.2642822265625,-14.495849609375
16.6299999,-1.1276689767837524,-0.3711012601852417,-9.744400978088379,0.6561279296875,3.8299560546875,-15.7470703125
16.6499999,-1.113303780555725,-0.3878606855869293,-9.75637149810791,4.638671875,4.8828125,-12.725830078125
16.6699999,-1.0893617868423462,-0.4189853072166443,-9.763554573059082,8.1939697265625,9.429931640625,-8.087158203125
16.6899999,-1.0749965906143188,-0.4572925269603729,-9.785101890563965,10.8489990234375,11.04736328125,-9.613037109375
16.7099999,-1.0534487962722778,-0.5171475410461426,-9.775525093078613,11.7340087890625,10.68115234375,-12.115478515625
16.7299999,-1.0271124839782715,-0.569819986820221,-9.739612579345703,13.0767822265625,11.444091796875,-10.7879638671875
16.749999900000002,-1.0079588890075684,-0.6344634294509888,-9.68694019317627,13.8092041015625,11.5509033203125,-7.1563720703125
16.769999900000002,-1.0031704902648926,-0.7230489253997803,-9.648633003234863,10.19287109375,9.3841552734375,-7.0953369140625
16.7899999,-1.0007762908935547,-0.8475474119186401,-9.655815124511719,4.3792724609375,8.758544921875,-12.0391845703125
16.8099999,-0.9911994934082031,-0.9576807022094727,-9.674968719482422,0.9765625,11.71875,-17.4407958984375
16.8299999,-0.9696516990661621,-1.0342950820922852,-9.749189376831055,2.0599365234375,13.7176513671875,-15.380859375
16.8499999,-0.9313444495201111,-1.0199298858642578,-9.797073364257812,3.2196044921875,14.617919921875,-15.0604248046875
16.8699999,-0.8858546018600464,-0.9528923034667969,-9.84256362915039,3.47900390625,13.885498046875,-16.54052734375
16.8899999,-0.8259995579719543,-0.8667010068893433,-9.847352027893066,1.3580322265625,11.1236572265625,-16.4947509765625
16.9099999,-0.7589619159698486,-0.7733271718025208,-9.825803756713867,-0.030517578125,8.85009765625,-15.8538818359375
16.929999900000002,-0.6847416758537292,-0.7206547260284424,-9.825803756713867,0.18310546875,6.28662109375,-14.923095703125
16.9499999,-0.6224924325942993,-0.6727706789970398,-9.823410034179688,-1.9683837890625,6.9122314453125,-16.1590576171875
16.9699999,-0.5722141861915588,-0.667982280254364,-9.849745750427246,-1.5106201171875,7.01904296875,-15.4571533203125
16.9899999,-0.5386953949928284,-0.6631938815116882,-9.861717224121094,-3.143310546875,5.0201416015625,-16.448974609375
17.0099999,-0.5171475410461426,-0.6512228846549988,-9.84256362915039,-6.34765625,4.0283203125,-17.120361328125
17.0299999,-0.5027823448181152,-0.6416460275650024,-9.801861763000488,-7.2479248046875,2.0294189453125,-16.1895751953125
17.0499999,-0.4884171485900879,-0.6272808313369751,-9.763554573059082,-7.38525390625,0.8697509765625,-14.556884765625
17.0699999,-0.48602294921875,-0.608127236366272,-9.746794700622559,-6.77490234375,0.640869140625,-14.495849609375
17.089999900000002,-0.4812345504760742,-0.6057330369949341,-9.746794700622559,-6.1798095703125,2.0904541015625,-13.336181640625
17.109999900000002,-0.4836287498474121,-0.6129156351089478,-9.75637149810791,-3.84521484375,2.7008056640625,-12.420654296875
17.1299999,-0.49320554733276367,-0.608127236366272,-9.75637149810791,-3.6163330078125,1.0986328125,-13.885498046875
17.1499999,-0.5003881454467773,-0.608127236366272,-9.742006301879883,-3.7384033203125,1.1444091796875,-12.5732421875
17.1699999,-0.5099649429321289,-0.6105214357376099,-9.72285270690918,-1.40380859375,1.15966796875,-9.6588134765625
17.1899999,-0.5195417404174805,-0.6392518281936646,-9.701305389404297,-2.105712890625,0.732421875,-9.4146728515625
17.2099999,-0.5291185975074768,-0.6775590777397156,-9.708487510681152,-3.84521484375,-0.42724609375,-11.3067626953125
17.2299999,-0.5339069962501526,-0.7230489253997803,-9.725247383117676,-2.685546875,1.1138916015625,-13.031005859375
17.249999900000002,-0.5315127968788147,-0.751779317855835,-9.734824180603027,-1.46484375,4.1046142578125,-10.8184814453125
17.269999900000002,-0.5291185975074768,-0.7709329724311829,-9.758766174316406,-1.3275146484375,0.732421875,-9.3231201171875
17.2899999,-0.5219359993934631,-0.7876923680305481,-9.761159896850586,-3.021240234375,-0.1983642578125,-12.26806640625
17.3099999,-0.5171475410461426,-0.7996633648872375,-9.775525093078613,-3.84521484375,0.48828125,-13.702392578125
17.3299999,-0.5051765441894531,-0.7924807667732239,-9.78989028930664,-1.3427734375,2.25830078125,-13.2293701171875
17.3499999,-0.4884171485900879,-0.7781155705451965,-9.751583099365234,-0.54931640625,4.1351318359375,-11.41357421875
17.3699999,-0.4692635238170624,-0.7661445140838623,-9.732429504394531,-3.60107421875,-1.28173828125,-9.9334716796875
17.3899999,-0.4692635238170624,-0.7589619159698486,-9.684545516967773,-3.3721923828125,-1.4495849609375,-13.092041015625
17.409999900000003,-0.4692635238170624,-0.7924807667732239,-9.641449928283691,0.0762939453125,1.0223388671875,-12.1307373046875
17.429999900000002,-0.49559974670410156,-0.8307880163192749,-9.655815124511719,0.030517578125,-2.2430419921875,-12.664794921875
17.4499999,-0.5003881454467773,-0.8930372595787048,-9.643844604492188,-3.4027099609375,-1.0223388671875,-13.946533203125
17.4699999,-0.5051765441894531,-0.933738648891449,-9.679757118225098,-5.2642822265625,-0.823974609375,-15.0604248046875
17.4899999,-0.49320554733276367,-0.9457096457481384,-9.739612579345703,-3.997802734375,-1.617431640625,-15.655517578125
17.5099999,-0.4884171485900879,-0.9145850539207458,-9.799467086791992,-0.9765625,-0.030517578125,-15.6707763671875
17.5299999,-0.4908113479614258,-0.8906430602073669,-9.837775230407715,-0.762939453125,1.46484375,-14.9078369140625
17.5499999,-0.5123591423034668,-0.8810662031173706,-9.849745750427246,-3.47900390625,0.2593994140625,-15.625
17.5699999,-0.5363011956214905,-0.9002198576927185,-9.835380554199219,-5.2642822265625,-0.9918212890625,-18.0816650390625
17.589999900000002,-0.5650315880775452,-0.9217676520347595,-9.821015357971191,-5.0048828125,0.152587890625,-18.646240234375
17.609999900000002,-0.5817909836769104,-0.9361328482627869,-9.830592155456543,-5.0506591796875,-0.54931640625,-18.6004638671875
17.6299999,-0.586579442024231,-0.9457096457481384,-9.847352027893066,-6.4697265625,-0.5950927734375,-19.7296142578125
17.6499999,-0.5817909836769104,-0.9433154463768005,-9.888052940368652,-6.988525390625,-0.5645751953125,-21.30126953125
17.6699999,-0.5626373887062073,-0.9217676520347595,-9.897629737854004,-7.0343017578125,1.0223388671875,-23.6358642578125
17.6899999,-0.5410895943641663,-0.8690952062606812,-9.919178009033203,-9.033203125,1.0833740234375,-23.3154296875
17.7099999,-0.5195417404174805,-0.768538773059845,-9.923966407775879,-10.3302001953125,0.4119873046875,-23.4222412109375
17.7299999,-0.5003881454467773,-0.6560112833976746,-9.911994934082031,-5.5084228515625,3.47900390625,-23.2391357421875
17.749999900000002,-0.47884035110473633,-0.5267243981361389,-9.885659217834473,-2.4871826171875,3.509521484375,-23.284912109375
17.769999900000002,-0.4620809257030487,-0.4141969084739685,-9.837775230407715,-5.5389404296875,1.8463134765625,-21.728515625
17.7899999,-0.43095630407333374,-0.3256114423274994,-9.773131370544434,-5.4931640625,1.617431640625,-20.172119140625
17.8099999,-0.4118026793003082,-0.26096799969673157,-9.715670585632324,-4.4403076171875,1.861572265625,-19.866943359375
17.8299999,-0.40940847992897034,-0.23942017555236816,-9.682151794433594,-2.0751953125,1.0986328125,-19.3023681640625
17.8499999,-0.4118026793003082,-0.2346317619085312,-9.655815124511719,-1.5716552734375,1.220703125,-18.61572265625
17.8699999,-0.42856210470199585,-0.2513911724090576,-9.622296333312988,-1.1749267578125,1.52587890625,-19.0887451171875
17.8899999,-0.44532153010368347,-0.2537853717803955,-9.576807022094727,-0.701904296875,0.091552734375,-19.8516845703125
17.909999900000003,-0.45010992884635925,-0.24420857429504395,-9.490615844726562,-1.9378662109375,0.1068115234375,-18.9666748046875
17.929999900000002,-0.43095630407333374,-0.19393034279346466,-9.390059471130371,-0.2288818359375,-2.38037109375,-17.822265625
17.9499999,-0.3998316824436188,-0.11013327538967133,-9.311050415039062,0.6561279296875,-5.340576171875,-16.632080078125
17.9699999,-0.36152446269989014,-0.021547814831137657,-9.301473617553711,-0.5035400390625,-9.185791015625,-14.2059326171875
17.9899999,-0.3495534360408783,0.031124621629714966,-9.387664794921875,0.48828125,-8.8653564453125,-11.5509033203125
18.0099999,-0.3734954595565796,0.004788403399288654,-9.569623947143555,3.662109375,-7.2174072265625,-9.735107421875
18.0299999,-0.4429273009300232,-0.090979665517807,-9.775525093078613,3.204345703125,-4.82177734375,-10.9405517578125
18.0499999,-0.5410895943641663,-0.24660277366638184,-9.976638793945312,1.3427734375,-4.0740966796875,-11.688232421875
18.0699999,-0.6344634294509888,-0.40701428055763245,-10.113107681274414,1.4801025390625,-1.9989013671875,-9.8876953125
18.089999900000002,-0.7110779285430908,-0.5123591423034668,-10.17296314239502,1.2054443359375,0.213623046875,-10.55908203125
18.109999900000002,-0.7469909191131592,-0.569819986820221,-10.1753568649292,0.396728515625,-0.48828125,-11.0321044921875
18.1299999,-0.7541735172271729,-0.5889736413955688,-10.137049674987793,1.434326171875,-1.0986328125,-9.2926025390625
18.1499999,-0.7422025203704834,-0.586579442024231,-10.077195167541504,3.143310546875,0.0457763671875,-9.1552734375
18.1699999,-0.7158663272857666,-0.6129156351089478,-10.005369186401367,4.0435791015625,1.64794921875,-10.0250244140625
18.1899999,-0.6943184733390808,-0.6512228846549988,-9.967061996459961,2.8839111328125,0.091552734375,-10.80322265625
18.2099999,-0.6703764796257019,-0.706289529800415,-9.931148529052734,2.5482177734375,0.7476806640625,-11.77978515625
18.2299999,-0.6488286852836609,-0.7469909191131592,-9.907206535339355,2.166748046875,2.838134765625,-12.5274658203125
18.249999900000002,-0.6344634294509888,-0.7709329724311829,-9.907206535339355,1.9683837890625,1.77001953125,-13.519287109375
18.269999900000002,-0.6105214357376099,-0.7637503147125244,-9.890447616577148,0.8392333984375,1.8310546875,-14.4805908203125
18.2899999,-0.5937620401382446,-0.7134721279144287,-9.890447616577148,0.1373291015625,2.0751953125,-14.495849609375
18.3099999,-0.5626373887062073,-0.6512228846549988,-9.871294021606445,0.274658203125,3.84521484375,-13.641357421875
18.3299999,-0.5267243981361389,-0.5554547905921936,-9.852140426635742,-0.518798828125,3.4637451171875,-14.2974853515625
18.3499999,-0.48602294921875,-0.42616790533065796,-9.830592155456543,-2.655029296875,1.5411376953125,-14.801025390625
18.3699999,-0.45010992884635925,-0.2944868206977844,-9.804255485534668,-1.89208984375,1.4190673828125,-11.9171142578125
18.3899999,-0.4357447028160095,-0.181959331035614,-9.801861763000488,-0.42724609375,1.861572265625,-8.1787109375
18.409999900000003,-0.45010992884635925,-0.15322890877723694,-9.81143856048584,0.1068115234375,1.1444091796875,-6.439208984375
18.429999900000002,-0.4884171485900879,-0.20111294090747833,-9.835380554199219,0.2288818359375,0.640869140625,-8.758544921875
18.4499999,-0.5339069962501526,-0.31842881441116333,-9.852140426635742,0.244140625,2.0904541015625,-9.5672607421875
18.4699999,-0.569819986820221,-0.43335050344467163,-9.854534149169922,-1.2359619140625,3.143310546875,-8.48388671875
18.4899999,-0.5937620401382446,-0.507570743560791,-9.830592155456543,-1.0833740234375,2.1820068359375,-8.7432861328125
18.5099999,-0.6057330369949341,-0.5674257874488831,-9.785101890563965,-0.8392333984375,1.708984375,-8.0108642578125
18.5299999,-0.6153098344802856,-0.6200982332229614,-9.730035781860352,0.9002685546875,1.5411376953125,-7.232666015625
18.5499999,-0.6153098344802856,-0.6751648783683777,-9.701305389404297,2.6702880859375,0.762939453125,-9.9639892578125
18.5699999,-0.6057330369949341,-0.7182605266571045,-9.670180320739746,0.7476806640625,1.1749267578125,-11.383056640625
18.589999900000002,-0.5913678407669067,-0.7493851184844971,-9.674968719482422,-0.6866455078125,0.4730224609375,-10.55908203125
18.609999900000002,-0.5674257874488831,-0.7374141216278076,-9.670180320739746,-1.46484375,1.678466796875,-9.9334716796875
18.6299999,-0.5386953949928284,-0.7326257228851318,-9.682151794433594,-0.8087158203125,1.8768310546875,-9.857177734375
18.6499999,-0.5195417404174805,-0.7038952708244324,-9.708487510681152,-3.021240234375,0.6866455078125,-10.9405517578125
18.6699999,-0.49559974670410156,-0.6775590777397156,-9.727641105651855,-4.45556640625,1.3580322265625,-11.71875
18.6899999,-0.4812345504760742,-0.6392518281936646,-9.75397777557373,-3.8299560546875,2.0294189453125,-10.4827880859375
18.7099999,-0.47405192255973816,-0.5985504388809204,-9.773131370544434,-4.2877197265625,1.5411376953125,-9.7198486328125
18.7299999,-0.4812345504760742,-0.5722141861915588,-9.78989028930664,-6.3934326171875,1.03759765625,-9.9639892578125
18.749999900000002,-0.49559974670410156,-0.5506663918495178,-9.81143856048584,-5.340576171875,1.9073486328125,-11.4898681640625
18.769999900000002,-0.5027823448181152,-0.5267243981361389,-9.81143856048584,-5.5694580078125,3.11279296875,-11.7034912109375
18.7899999,-0.5027823448181152,-0.49320554733276367,-9.823410034179688,-5.1727294921875,1.983642578125,-10.894775390625
18.8099999,-0.4884171485900879,-0.44771572947502136,-9.792284965515137,-3.90625,1.8157958984375,-10.4522705078125
18.8299999,-0.4668693244457245,-0.395043283700943,-9.770736694335938,-4.7149658203125,1.678466796875,-10.009765625
18.8499999,-0.44771572947502136,-0.3711012601852417,-9.770736694335938,-2.960205078125,0.54931640625,-8.4075927734375
18.8699999,-0.4357447028160095,-0.363918662071228,-9.797073364257812,-2.9296875,1.2359619140625,-8.2244873046875
18.8899999,-0.42377370595932007,-0.38546648621559143,-9.830592155456543,-1.8310546875,2.99072265625,-9.918212890625
18.909999900000003,-0.42377370595932007,-0.3998316824436188,-9.861717224121094,-3.5247802734375,2.62451171875,-10.5743408203125
18.929999900000002,-0.42616790533065796,-0.4141969084739685,-9.873687744140625,-4.6844482421875,1.617431640625,-9.3231201171875
18.9499999,-0.4381389021873474,-0.395043283700943,-9.86889934539795,-1.495361328125,1.922607421875,-8.758544921875
18.9699999,-0.45250412821769714,-0.38546648621559143,-9.837775230407715,0.67138671875,3.7078857421875,-8.4075927734375
18.9899999,-0.4692635238170624,-0.38546648621559143,-9.828198432922363,-0.3509521484375,1.953125,-8.453369140625
19.0099999,-0.47884035110473633,-0.3878606855869293,-9.804255485534668,-1.1444091796875,2.1209716796875,-9.063720703125
19.0299999,-0.4812345504760742,-0.3926490843296051,-9.801861763000488,0.79345703125,3.448486328125,-9.2926025390625
19.0499999,-0.47644615173339844,-0.3974374830722809,-9.806650161743164,3.7689208984375,3.0975341796875,-8.8653564453125
19.0699999,-0.4596867263317108,-0.3902548849582672,-9.806650161743164,3.7841796875,3.23486328125,-9.09423828125
19.089999900000002,-0.4381389021873474,-0.3758896589279175,-9.81143856048584,2.8533935546875,1.5411376953125,-9.8724365234375
19.109999900000002,-0.4165911078453064,-0.3734954595565796,-9.806650161743164,0.91552734375,1.983642578125,-7.9193115234375
19.1299999,-0.40462008118629456,-0.36152446269989014,-9.821015357971191,3.448486328125,1.8463134765625,-8.0413818359375
19.1499999,-0.3902548849582672,-0.3687070608139038,-9.81143856048584,4.852294921875,2.6092529296875,-8.514404296875
19.1699999,-0.38067805767059326,-0.3758896589279175,-9.816226959228516,2.74658203125,1.556396484375,-8.0718994140625
19.1899999,-0.35913026332855225,-0.38067805767059326,-9.797073364257812,1.2054443359375,2.0599365234375,-7.659912109375
19.2099999,-0.3423708379268646,-0.3711012601852417,-9.77791976928711,1.922607421875,2.62451171875,-7.5225830078125
19.2299999,-0.3208230137825012,-0.36152446269989014,-9.768342971801758,2.288818359375,1.46484375,-6.378173828125
19.249999900000002,-0.3064578175544739,-0.3423708379268646,-9.758766174316406,2.655029296875,0.91552734375,-6.53076171875
19.269999900000002,-0.2944868206977844,-0.31842881441116333,-9.730035781860352,2.899169921875,1.8768310546875,-6.2408447265625
19.2899999,-0.3016694188117981,-0.30885201692581177,-9.706093788146973,2.7618408203125,0.79345703125,-4.7760009765625
19.3099999,-0.31364041566848755,-0.33518823981285095,-9.667786598205566,2.01416015625,-0.640869140625,-3.23486328125
19.3299999,-0.33039984107017517,-0.3663128614425659,-9.624691009521484,2.9296875,-0.640869140625,-5.0811767578125
19.3499999,-0.33997663855552673,-0.43095630407333374,-9.612719535827637,3.7078857421875,-1.3885498046875,-5.584716796875
19.3699999,-0.33758243918418884,-0.47405192255973816,-9.603142738342285,4.45556640625,-0.6561279296875,-5.1116943359375
19.3899999,-0.3280056416988373,-0.4836287498474121,-9.617507934570312,4.5013427734375,-1.03759765625,-5.218505859375
19.409999900000003,-0.3256114423274994,-0.48602294921875,-9.66539192199707,3.509521484375,-2.6092529296875,-3.72314453125
19.429999900000002,-0.33518823981285095,-0.5003881454467773,-9.694122314453125,3.814697265625,-1.556396484375,-2.716064453125
19.4499999,-0.35913026332855225,-0.545877993106842,-9.763554573059082,3.509521484375,-0.9002685546875,-3.143310546875
19.4699999,-0.3878606855869293,-0.6200982332229614,-9.797073364257812,4.8370361328125,-1.129150390625,-4.9285888671875
19.4899999,-0.4141969084739685,-0.6991068720817566,-9.823410034179688,7.4920654296875,-1.1444091796875,-6.2255859375
19.5099999,-0.43335050344467163,-0.7805097699165344,-9.837775230407715,13.1683349609375,-2.8839111328125,-5.8746337890625
19.5299999,-0.4405331015586853,-0.849941611289978,-9.847352027893066,15.7470703125,-2.349853515625,-5.6304931640625
19.5499999,-0.44532153010368347,-0.9074024558067322,-9.86889934539795,10.6201171875,-1.15966796875,-6.0882568359375
19.5699999,-0.44771572947502136,-0.9792284965515137,-9.904812812805176,6.317138671875,-0.9613037109375,-4.1351318359375
19.589999900000002,-0.45010992884635925,-1.039083480834961,-9.911994934082031,5.3558349609375,1.1444091796875,-4.3487548828125
19.609999900000002,-0.45489832758903503,-1.094150185585022,-9.916783332824707,4.8980712890625,0.823974609375,-5.828857421875
19.6299999,-0.4596867263317108,-1.1276689767837524,-9.909601211547852,4.57763671875,0.3814697265625,-6.8359375
19.6499999,-0.4596867263317108,-1.1180921792984009,-9.871294021606445,3.7078857421875,1.983642578125,-7.26318359375
19.6699999,-0.4620809257030487,-1.0773907899856567,-9.847352027893066,3.96728515625,2.166748046875,-5.8746337890625
19.6899999,-0.4644751250743866,-1.0295066833496094,-9.801861763000488,5.5999755859375,1.312255859375,-4.8370361328125
19.7099999,-0.4644751250743866,-1.0103530883789062,-9.768342971801758,5.1727294921875,0.6256103515625,-4.8065185546875
19.7299999,-0.4620809257030487,-1.0247182846069336,-9.737217903137207,4.2724609375,1.0986328125,-6.2408447265625
19.749999900000002,-0.4596867263317108,-1.0678139925003052,-9.739612579345703,3.2196044921875,-0.0152587890625,-7.1868896484375
19.769999900000002,-0.45010992884635925,-1.0893617868423462,-9.744400978088379,2.5177001953125,-0.274658203125,-7.7056884765625
19.7899999,-0.43335050344467163,-1.1109095811843872,-9.758766174316406,2.5482177734375,0.518798828125,-7.0648193359375
19.8099999,-0.42616790533065796,-1.0989385843276978,-9.782708168029785,1.739501953125,-0.0152587890625,-7.049560546875
19.8299999,-0.4189853072166443,-1.0821791887283325,-9.797073364257812,-0.030517578125,0.67138671875,-7.720947265625
19.8499999,-0.4189853072166443,-1.0462661981582642,-9.804255485534668,-0.2593994140625,1.678466796875,-7.7056884765625
19.8699999,-0.4189853072166443,-1.0031704902648926,-9.77791976928711,-0.701904296875,2.3193359375,-6.3018798828125
19.8899999,-0.4189853072166443,-0.9457096457481384,-9.742006301879883,-2.838134765625,1.2664794921875,-6.0272216796875
19.909999900000003,-0.40940847992897034,-0.8954314589500427,-9.703699111938477,-2.166748046875,-0.1373291015625,-5.950927734375
19.929999900000002,-0.40701428055763245,-0.8331822156906128,-9.68933391571045,-0.6256103515625,0.335693359375,-5.706787109375
19.9499999,-0.3998316824436188,-0.8020575642585754,-9.696516990661621,0.457763671875,1.251220703125,-3.5858154296875
19.9699999,-0.3974374830722809,-0.7948749661445618,-9.713275909423828,0.06103515625,1.0986328125,-3.0059814453125
19.9899999,-0.3974374830722809,-0.8188169598579407,-9.725247383117676,-1.3580322265625,0.3509521484375,-4.6234130859375
20.0099999,-0.40701428055763245,-0.8547300100326538,-9.737217903137207,-3.0670166015625,0.091552734375,-5.5694580078125
20.0299999,-0.4118026793003082,-0.8834604024887085,-9.737217903137207,-2.2125244140625,0.8087158203125,-4.8370361328125
20.0499999,-0.4189853072166443,-0.8882488012313843,-9.746794700622559,-1.2969970703125,0.5645751953125,-3.60107421875
20.0699999,-0.4165911078453064,-0.8834604024887085,-9.761159896850586,-1.617431640625,-0.5035400390625,-3.0517578125
20.089999900000002,-0.4118026793003082,-0.9002198576927185,-9.773131370544434,-1.861572265625,0.7781982421875,-2.3345947265625
20.109999900000002,-0.4118026793003082,-0.9193734526634216,-9.804255485534668,-1.9378662109375,0.8697509765625,-2.6702880859375
