# Time (seconds),Accel_X,Accel_Y,Accel_Z,Gyro_X,Gyro_Y,Gyro_Z
0.0099999,-0.629675030708313,-1.0414776802062988,9.742006301879883,-0.6256103515625,3.5400390625,-0.0457763671875
0.029999900000000003,-0.6416460275650024,-1.0127472877502441,9.718064308166504,-0.6561279296875,3.8299560546875,0.9002685546875
0.0499999,-0.6512228846549988,-0.993593692779541,9.725247383117676,0.396728515625,2.5787353515625,0.244140625
0.0699999,-0.6655880808830261,-0.9840168952941895,9.758766174316406,0.3662109375,1.7852783203125,-0.518798828125
0.08999990000000001,-0.6727706789970398,-0.9911994934082031,9.78989028930664,0.3509521484375,1.556396484375,0.2899169921875
0.10999990000000001,-0.6871358752250671,-1.0055646896362305,9.806650161743164,0.3204345703125,2.1820068359375,1.007080078125
0.1299999,-0.6943184733390808,-1.015141487121582,9.80904483795166,-0.9613037109375,2.105712890625,-0.1220703125
0.14999990000000002,-0.7015010714530945,-1.05105459690094,9.794678688049316,-0.244140625,1.1749267578125,0.2288818359375
0.1699999,-0.6991068720817566,-1.0845733880996704,9.80904483795166,0.0152587890625,3.41796875,0.48828125
0.1899999,-0.6991068720817566,-1.1037269830703735,9.830592155456543,-1.0833740234375,3.4942626953125,-1.0986328125
0.20999990000000002,-0.689530074596405,-1.1252747774124146,9.876082420349121,-0.152587890625,1.6937255859375,-0.0457763671875
0.2299999,-0.689530074596405,-1.115697979927063,9.938331604003906,-1.251220703125,1.3885498046875,0.0152587890625
0.2499999,-0.6823474764823914,-1.113303780555725,9.976638793945312,-0.9002685546875,0.457763671875,0.3509521484375
0.2699999,-0.6823474764823914,-1.0893617868423462,9.986215591430664,-0.244140625,-0.2593994140625,-0.3662109375
0.28999990000000003,-0.6775590777397156,-1.0869675874710083,9.950302124023438,0.030517578125,-1.068115234375,0.06103515625
0.3099999,-0.6775590777397156,-1.0821791887283325,9.890447616577148,0.1678466796875,0.0762939453125,0.06103515625
0.3299999,-0.689530074596405,-1.0630255937576294,9.821015357971191,-0.67138671875,0.48828125,-1.373291015625
0.34999990000000003,-0.7015010714530945,-1.0534487962722778,9.765948295593262,-0.48828125,0.3204345703125,-0.274658203125
0.3699999,-0.7206547260284424,-1.0223240852355957,9.715670585632324,1.1138916015625,-0.48828125,0.4119873046875
0.3899999,-0.7350199222564697,-1.0031704902648926,9.677363395690918,0.9307861328125,-0.213623046875,0.579833984375
0.40999990000000003,-0.7350199222564697,-1.0055646896362305,9.643844604492188,-0.7171630859375,0.7781982421875,0.701904296875
0.4299999,-0.7254431247711182,-1.0127472877502441,9.605537414550781,0.42724609375,0.67138671875,-0.1220703125
0.4499999,-0.706289529800415,-1.036689281463623,9.591172218322754,0.54931640625,1.1138916015625,-0.2899169921875
0.4699999,-0.6919242739677429,-1.0438719987869263,9.579200744628906,-0.06103515625,1.3275146484375,-0.1678466796875
0.4899999,-0.6703764796257019,-1.0654197931289673,9.603142738342285,0.213623046875,2.86865234375,0.640869140625
0.5099999,-0.6607996821403503,-1.072602391242981,9.624691009521484,0.7781982421875,1.77001953125,-0.152587890625
0.5299999,-0.6512228846549988,-1.094150185585022,9.677363395690918,1.1138916015625,2.01416015625,-0.8087158203125
0.5499999,-0.6536170840263367,-1.1085153818130493,9.703699111938477,2.1820068359375,1.6021728515625,-0.8392333984375
0.5699999,-0.667982280254364,-1.094150185585022,9.696516990661621,2.166748046875,0.8392333984375,-1.46484375
0.5899998999999999,-0.6823474764823914,-1.0845733880996704,9.68694019317627,0.1983642578125,3.6773681640625,-0.1068115234375
0.6099998999999999,-0.6991068720817566,-1.0558429956436157,9.667786598205566,0.3509521484375,4.0740966796875,-0.335693359375
0.6299999,-0.6991068720817566,-1.05105459690094,9.68933391571045,0.1220703125,3.387451171875,-0.518798828125
0.6499999,-0.7038952708244324,-1.039083480834961,9.734824180603027,0.8697509765625,2.471923828125,-1.2664794921875
0.6699999,-0.7086837291717529,-1.0271124839782715,9.780313491821289,1.251220703125,1.89208984375,-1.1749267578125
0.6899999,-0.7182605266571045,-1.0007762908935547,9.801861763000488,1.52587890625,1.5106201171875,-0.1678466796875
0.7099999,-0.730231523513794,-0.9720458984375,9.816226959228516,0.2593994140625,3.021240234375,0.5340576171875
0.7299998999999999,-0.7350199222564697,-0.9576807022094727,9.806650161743164,0.79345703125,2.288818359375,0.5950927734375
0.7499998999999999,-0.7326257228851318,-0.9648633003234863,9.821015357971191,1.03759765625,2.410888671875,0.1220703125
0.7699999,-0.730231523513794,-0.9696516990661621,9.828198432922363,0.701904296875,1.800537109375,-0.7476806640625
0.7899999,-0.7326257228851318,-0.9648633003234863,9.832986831665039,1.03759765625,0.8087158203125,-0.335693359375
0.8099999,-0.7326257228851318,-0.9696516990661621,9.854534149169922,0.1220703125,2.685546875,1.373291015625
0.8299999,-0.7350199222564697,-0.9816226959228516,9.852140426635742,0.5645751953125,0.701904296875,1.007080078125
0.8499998999999999,-0.7350199222564697,-1.0031704902648926,9.830592155456543,2.1820068359375,-0.9002685546875,-0.9307861328125
0.8699998999999999,-0.7398083209991455,-1.0055646896362305,9.787496566772461,0.5035400390625,1.2054443359375,-1.64794921875
0.8899999,-0.7469909191131592,-0.9888052940368652,9.727641105651855,-0.5645751953125,2.6092529296875,0.5340576171875
0.9099999,-0.7565677165985107,-0.9624691009521484,9.68933391571045,0.152587890625,2.8228759765625,1.953125
0.9299999,-0.7589619159698486,-0.950498104095459,9.658209800720215,1.64794921875,0.8087158203125,1.0833740234375
0.9499999,-0.7565677165985107,-0.9600749015808105,9.646238327026367,1.77001953125,1.190185546875,-0.2593994140625
0.9699998999999999,-0.751779317855835,-0.9768342971801758,9.636661529541016,0.091552734375,3.0670166015625,-0.6561279296875
0.9899998999999999,-0.7541735172271729,-0.9768342971801758,9.622296333312988,0.42724609375,2.44140625,-0.3814697265625
1.0099999,-0.7589619159698486,-0.9600749015808105,9.62947940826416,0.9918212890625,2.5634765625,-0.030517578125
1.0299999,-0.7709329724311829,-0.9313444495201111,9.646238327026367,0.518798828125,2.5634765625,0.0152587890625
1.0499999,-0.7852981686592102,-0.9026140570640564,9.674968719482422,0.6256103515625,3.204345703125,0.518798828125
1.0699999,-0.790086567401886,-0.8930372595787048,9.708487510681152,0.8392333984375,3.7689208984375,1.3580322265625
1.0899999,-0.790086567401886,-0.912190854549408,9.749189376831055,1.0833740234375,3.2958984375,1.251220703125
1.1099999,-0.790086567401886,-0.9289502501487732,9.792284965515137,0.3509521484375,2.4871826171875,-1.312255859375
1.1299999,-0.7829039692878723,-0.9576807022094727,9.823410034179688,1.0528564453125,2.7008056640625,-0.9002685546875
1.1499999,-0.7829039692878723,-0.9552865028381348,9.859322547912598,0.5340576171875,2.99072265625,0.30517578125
1.1699998999999999,-0.7781155705451965,-0.9552865028381348,9.871294021606445,0.244140625,2.105712890625,0.732421875
1.1899998999999999,-0.7805097699165344,-0.9481038451194763,9.904812812805176,0.274658203125,2.5482177734375,-0.579833984375
1.2099999,-0.7781155705451965,-0.9648633003234863,9.911994934082031,0.3509521484375,1.52587890625,-0.48828125
1.2299999,-0.7924807667732239,-0.9457096457481384,9.911994934082031,0.579833984375,0.1983642578125,-1.2359619140625
1.2499999,-0.8068459630012512,-0.9289502501487732,9.907206535339355,-0.2288818359375,1.7852783203125,-0.152587890625
1.2699999,-0.8236053586006165,-0.9026140570640564,9.8784761428833,0.885009765625,1.434326171875,1.3885498046875
1.2899999,-0.8355764150619507,-0.8978256583213806,9.840168952941895,1.3427734375,-0.1373291015625,0.762939453125
1.3099999,-0.8355764150619507,-0.9145850539207458,9.816226959228516,0.1678466796875,1.03759765625,-0.4730224609375
1.3299999,-0.8355764150619507,-0.9265560507774353,9.765948295593262,0.7476806640625,0.6561279296875,-1.678466796875
1.3499999,-0.8379706144332886,-0.9097966551780701,9.737217903137207,0.8544921875,0.8392333984375,-0.8697509765625
1.3699999,-0.8427590131759644,-0.8738836050033569,9.713275909423828,0.5035400390625,1.6632080078125,1.0986328125
1.3899999,-0.8427590131759644,-0.8571242094039917,9.696516990661621,0.9613037109375,1.1444091796875,2.0294189453125
1.4099999,-0.8355764150619507,-0.8571242094039917,9.68694019317627,1.40380859375,1.220703125,0.0152587890625
1.4299998999999999,-0.8259995579719543,-0.8834604024887085,9.684545516967773,0.7781982421875,1.312255859375,-1.5106201171875
1.4499999,-0.8188169598579407,-0.8978256583213806,9.68933391571045,-0.0152587890625,1.9989013671875,-0.6866455078125
1.4699999,-0.8259995579719543,-0.8858546018600464,9.694122314453125,0.3509521484375,1.220703125,0.030517578125
1.4899999,-0.8355764150619507,-0.8738836050033569,9.708487510681152,1.007080078125,1.434326171875,1.2054443359375
1.5099999,-0.8475474119186401,-0.8619126081466675,9.713275909423828,0.396728515625,1.617431640625,0.4425048828125
1.5299999,-0.849941611289978,-0.8786720037460327,9.718064308166504,-0.030517578125,1.922607421875,0.2593994140625
1.5499999,-0.8475474119186401,-0.8978256583213806,9.713275909423828,0.48828125,1.983642578125,0.0152587890625
1.5699999,-0.8451532125473022,-0.9145850539207458,9.72285270690918,0.579833984375,2.2735595703125,-0.6256103515625
1.5899999,-0.8475474119186401,-0.912190854549408,9.727641105651855,0.732421875,2.1514892578125,-0.2899169921875
1.6099999,-0.8475474119186401,-0.9026140570640564,9.725247383117676,1.3275146484375,1.2969970703125,0.54931640625
1.6299999,-0.8451532125473022,-0.8930372595787048,9.742006301879883,0.8544921875,3.2958984375,1.129150390625
1.6499999,-0.8379706144332886,-0.8834604024887085,9.746794700622559,0.152587890625,2.38037109375,-0.30517578125
1.6699999,-0.8307880163192749,-0.8810662031173706,9.739612579345703,2.0751953125,0.3814697265625,-0.4425048828125
1.6899998999999999,-0.8259995579719543,-0.8810662031173706,9.730035781860352,1.1138916015625,2.044677734375,0.640869140625
1.7099999,-0.828393816947937,-0.8762778043746948,9.684545516967773,0.701904296875,2.5634765625,0.701904296875
1.7299999,-0.828393816947937,-0.8858546018600464,9.653421401977539,0.91552734375,3.570556640625,-0.1983642578125
1.7499999,-0.8355764150619507,-0.8810662031173706,9.634267807006836,1.007080078125,3.6163330078125,-1.1138916015625
1.7699999,-0.8403648138046265,-0.8738836050033569,9.612719535827637,2.7008056640625,2.3040771484375,0.1373291015625
1.7899999,-0.8475474119186401,-0.8475474119186401,9.591172218322754,2.197265625,2.8533935546875,0.9918212890625
1.8099999,-0.8451532125473022,-0.8331822156906128,9.583989143371582,-0.54931640625,5.859375,1.0528564453125
1.8299999,-0.8331822156906128,-0.8188169598579407,9.548076629638672,1.556396484375,4.3182373046875,0.152587890625
1.8499999,-0.8068459630012512,-0.811634361743927,9.548076629638672,1.64794921875,4.486083984375,0.0762939453125
1.8699999,-0.7541735172271729,-0.7948749661445618,9.564835548400879,-1.0833740234375,7.50732421875,0.732421875
1.8899999,-0.6584054827690125,-0.7422025203704834,9.605537414550781,-3.631591796875,7.1868896484375,0.18310546875
1.9099999,-0.4644751250743866,-0.7134721279144287,9.80904483795166,-11.566162109375,11.1083984375,2.3193359375
1.9299998999999999,-0.15083470940589905,-0.8259995579719543,10.187328338623047,-20.2178955078125,12.6800537109375,7.904052734375
1.9499999,0.2322375625371933,-1.072602391242981,11.001357078552246,-47.4853515625,15.533447265625,2.1514892578125
1.9699999,0.6248866319656372,-1.6615760326385498,12.48815631866455,-62.68310546875,27.7557373046875,-1.9378662109375
1.9899999,0.9097966551780701,-2.3295583724975586,14.334085464477539,-38.0706787109375,5.31005859375,-13.397216796875
2.0099999,0.9552865028381348,-2.9161376953125,16.41464614868164,-23.3001708984375,-25.5279541015625,-28.3203125
2.0299999,0.8307880163192749,-3.361459255218506,18.440141677856445,-38.909912109375,-28.717041015625,-23.2696533203125
2.0499999,0.4357447028160095,-3.4596214294433594,19.965248107910156,-42.6788330078125,-59.417724609375,-25.08544921875
2.0699999,-0.043095629662275314,-3.6942532062530518,20.97081184387207,-40.2984619140625,-102.2796630859375,-17.0135498046875
2.0899999,-0.6129156351089478,-3.909731388092041,21.27008819580078,-29.47998046875,-128.7078857421875,-27.1148681640625
2.1099999,-1.2066776752471924,-4.280832767486572,20.78645896911621,-18.585205078125,-142.547607421875,-45.4254150390625
2.1299999,-1.7597382068634033,-4.446032524108887,19.448101043701172,-11.2762451171875,-162.1551513671875,-54.718017578125
2.1499999,-2.252943754196167,-4.438849925994873,17.63568878173828,-18.00537109375,-175.4608154296875,-50.9185791015625
2.1699999,-2.5761611461639404,-4.264073371887207,15.545551300048828,-16.41845703125,-177.4139404296875,-44.9981689453125
2.1899999,-2.7078421115875244,-3.892971992492676,13.366827964782715,3.1585693359375,-187.6068115234375,-60.3790283203125
2.2099999,-2.6216509342193604,-3.529053211212158,11.446678161621094,4.5013427734375,-181.5338134765625,-64.056396484375
2.2299999,-2.3271639347076416,-3.1962592601776123,9.907206535339355,-8.9111328125,-169.37255859375,-50.0640869140625
2.2499999,-1.9105730056762695,-2.868253707885742,8.729259490966797,-0.457763671875,-174.3316650390625,-53.375244140625
2.2699999,-1.4245500564575195,-2.5330653190612793,7.886500358581543,24.9176025390625,-175.78125,-64.2547607421875
2.2899999,-0.9097966551780701,-2.3056161403656006,7.29034423828125,33.4320068359375,-160.675048828125,-56.9305419921875
2.3099999,-0.4165911078453064,-1.800439715385437,6.648698329925537,43.6248779296875,-154.693603515625,-53.3294677734375
2.3299999,0.023942016065120697,-1.1827356815338135,6.054935932159424,42.144775390625,-156.9976806640625,-54.5196533203125
2.3499999,0.5291185975074768,-0.5937620401382446,5.5329999923706055,33.0047607421875,-148.4222412109375,-36.6058349609375
2.3699999,1.0582371950149536,-0.038307227194309235,5.044582843780518,36.2548828125,-154.72412109375,-36.1785888671875
2.3899999,1.6615760326385498,0.23942017555236816,4.8267107009887695,38.6505126953125,-166.5496826171875,-40.3594970703125
2.4099999,2.3726539611816406,0.20350714027881622,4.707000732421875,44.12841796875,-190.36865234375,-41.229248046875
2.4299999,3.0382418632507324,0.08379705995321274,4.534617900848389,38.9404296875,-205.38330078125,-49.25537109375
2.4499999,3.6798880100250244,0.016759412363171577,4.163516521453857,20.3399658203125,-184.7686767578125,-57.67822265625
2.4699999,4.213795185089111,0.2513911724090576,3.509899616241455,21.42333984375,-153.0914306640625,-57.4798583984375
2.4899999,4.666299343109131,0.7469909191131592,2.5785553455352783,40.0238037109375,-137.847900390625,-37.841796875
2.5099999,5.097255229949951,1.2976573705673218,1.7405846118927002,30.6854248046875,-125.8697509765625,-20.3399658203125
2.5299999,5.535394191741943,1.7046716213226318,0.8020575642585754,10.711669921875,-127.7618408203125,-12.9241943359375
2.5499999,5.999869346618652,1.843535304069519,0.14604631066322327,-5.706787109375,-110.9466552734375,-11.3677978515625
2.5699999,6.433219909667969,1.8411411046981812,-0.5219359993934631,-2.838134765625,-87.310791015625,-5.9967041015625
2.5899999,6.773196697235107,1.9153614044189453,-1.1683704853057861,13.1988525390625,-86.761474609375,4.913330078125
2.6099999,7.0126166343688965,2.0805611610412598,-1.7094600200653076,1.251220703125,-64.1632080078125,18.1732177734375
2.6299999,7.163451671600342,2.2218191623687744,-2.2194249629974365,-15.3656005859375,-43.1976318359375,36.43798828125
2.6499999,7.333439826965332,2.0614075660705566,-2.542642116546631,-24.5361328125,-37.8570556640625,45.34912109375
2.6699999,7.623138427734375,1.4460978507995605,-2.583343744277954,-33.1573486328125,-26.5960693359375,43.3349609375
2.6899999,7.979874134063721,0.569819986820221,-2.6216509342193604,-12.8326416015625,-26.763916015625,21.942138671875
2.7099999,8.413225173950195,-0.3974374830722809,-2.3965959548950195,-6.439208984375,1.2664794921875,10.162353515625
2.7299999,8.803479194641113,-1.0582371950149536,-2.166752576828003,-7.965087890625,14.4195556640625,6.8817138671875
2.7499999,9.062053680419922,-1.2832920551300049,-1.7118542194366455,-6.3018798828125,12.237548828125,-0.06103515625
2.7699999,9.277531623840332,-1.2976573705673218,-1.0127472877502441,-14.2822265625,16.4642333984375,5.9356689453125
2.7899999,9.402029991149902,-1.0582371950149536,-0.31364041566848755,-12.4359130859375,8.60595703125,3.5247802734375
2.8099999,9.548076629638672,-0.8930372595787048,0.40940847992897034,-10.3912353515625,11.53564453125,2.685546875
2.8299999,9.691728591918945,-0.7876923680305481,0.9888052940368652,-8.758544921875,15.8538818359375,4.1351318359375
2.8499999,9.797073364257812,-0.6847416758537292,1.3958195447921753,-3.2806396484375,14.984130859375,-3.96728515625
2.8699999,9.86650562286377,-0.608127236366272,1.6376339197158813,4.7149658203125,14.5263671875,-3.8299560546875
2.8899999,9.86889934539795,-0.4812345504760742,1.778891921043396,0.701904296875,18.524169921875,-0.3509521484375
2.9099999,9.823410034179688,-0.33518823981285095,1.8363527059555054,-5.2947998046875,16.4642333984375,0.9307861328125
2.9299999,9.794678688049316,-0.2801215946674347,1.8770540952682495,-4.150390625,13.5955810546875,-0.091552734375
2.9499999,9.768342971801758,-0.2992752194404602,1.9273324012756348,0.3204345703125,15.167236328125,-4.6234130859375
2.9699999,9.749189376831055,-0.33518823981285095,2.0422539710998535,0.3509521484375,22.247314453125,-11.077880859375
2.9899999,9.730035781860352,-0.33039984107017517,2.1475989818573,0.9307861328125,18.2647705078125,-11.5509033203125
3.0099999,9.684545516967773,-0.19632454216480255,2.31758713722229,-4.8675537109375,12.115478515625,-8.8348388671875
3.0299999,9.643844604492188,-0.047884032130241394,2.4612393379211426,-9.3841552734375,7.8887939453125,-2.9296875
3.0499999,9.603142738342285,0.0933738648891449,2.5498247146606445,-7.9803466796875,6.195068359375,-0.244140625
3.0699999,9.57441234588623,0.14844051003456116,2.604891538619995,-8.819580078125,7.354736328125,-2.044677734375
3.0899999,9.552865028381348,0.1173158809542656,2.609679937362671,-4.82177734375,6.3629150390625,-1.52587890625
3.1099999,9.524134635925293,0.07900865375995636,2.6240451335906982,-2.62451171875,6.5155029296875,-2.3040771484375
3.1299999,9.493009567260742,0.08379705995321274,2.6024973392486572,-3.1585693359375,2.8533935546875,-2.13623046875
3.1499999,9.461885452270508,0.11971008777618408,2.5498247146606445,-4.913330078125,-0.30517578125,0.1678466796875
3.1699999,9.469067573547363,0.13407529890537262,2.4803929328918457,-5.7830810546875,2.9144287109375,4.3792724609375
3.1899999,9.50737476348877,0.1173158809542656,2.4181437492370605,-5.92041015625,4.7149658203125,1.6937255859375
3.2099999,9.610325813293457,-0.035913024097681046,2.410961151123047,-5.18798828125,3.9825439453125,0.030517578125
3.2299999,9.715670585632324,-0.2106897532939911,2.4684219360351562,-3.1280517578125,1.9683837890625,-4.8370361328125
3.2499999,9.792284965515137,-0.3687070608139038,2.5498247146606445,-1.5106201171875,1.1749267578125,-9.1400146484375
3.2699999,9.806650161743164,-0.40462008118629456,2.5737667083740234,2.1209716796875,-0.42724609375,-9.46044921875
3.2899999,9.744400978088379,-0.28969839215278625,2.535459518432617,0.18310546875,-0.18310546875,-8.636474609375
3.3099999,9.636661529541016,-0.07900865375995636,2.4205379486083984,-3.753662109375,1.0528564453125,-5.2337646484375
3.3299999000000002,9.512163162231445,0.17238251864910126,2.2697031497955322,-5.0506591796875,0.6561279296875,-3.4942626953125
3.3499999,9.39245319366455,0.395043283700943,2.166752576828003,-6.4849853515625,2.838134765625,-3.173828125
3.3699999,9.301473617553711,0.5410895943641663,2.1308395862579346,-6.103515625,2.86865234375,-0.8544921875
3.3899999,9.239224433898926,0.6129156351089478,2.1547815799713135,-3.753662109375,0.518798828125,2.166748046875
3.4099999,9.222464561462402,0.6009446382522583,2.2170307636260986,-2.777099609375,0.640869140625,3.692626953125
3.4299999,9.248801231384277,0.5147533416748047,2.2361843585968018,-0.946044921875,0.8544921875,3.570556640625
3.4499999,9.311050415039062,0.36152446269989014,2.252943754196167,-1.556396484375,3.6773681640625,3.7384033203125
3.4699999,9.397241592407227,0.17956513166427612,2.2433669567108154,-1.64794921875,4.058837890625,3.3721923828125
3.4899999,9.488221168518066,-0.004788403399288654,2.2457611560821533,0.1373291015625,2.166748046875,1.77001953125
3.5099999,9.57441234588623,-0.17717093229293823,2.252943754196167,-0.518798828125,2.6397705078125,1.1749267578125
3.5299999,9.622296333312988,-0.2825157940387726,2.248155355453491,-1.190185546875,3.662109375,-1.373291015625
3.5499999,9.62947940826416,-0.304063618183136,2.231395959854126,-1.6021728515625,4.150390625,-2.8839111328125
3.5699999,9.591172218322754,-0.22266076505184174,2.2170307636260986,-2.74658203125,5.2642822265625,-1.5411376953125
3.5899999,9.536105155944824,-0.09576806426048279,2.2026655673980713,-3.0059814453125,3.997802734375,1.28173828125
3.6099999,9.478644371032715,0.023942016065120697,2.233790159225464,-4.913330078125,4.5318603515625,2.62451171875
3.6299999,9.445125579833984,0.10534487664699554,2.2649147510528564,-4.180908203125,4.8370361328125,1.0833740234375
3.6499999,9.435548782348633,0.11252748221158981,2.315192937850952,-2.777099609375,4.730224609375,1.77001953125
3.6699999,9.442731857299805,0.08858546614646912,2.367865562438965,-4.058837890625,7.4462890625,2.9754638671875
3.6899999,9.454702377319336,0.05267243832349777,2.3965959548950195,-3.0364990234375,7.2784423828125,2.3651123046875
3.7099999,9.476250648498535,0.023942016065120697,2.4396915435791016,-3.3416748046875,8.9569091796875,1.7547607421875
3.7299999,9.50498104095459,-0.026336219161748886,2.4803929328918457,-3.143310546875,8.941650390625,3.90625
3.7499999,9.533711433410645,-0.06224924325942993,2.52109432220459,-0.3662109375,6.011962890625,2.7618408203125
3.7699999,9.557653427124023,-0.10295066982507706,2.564189910888672,0.1220703125,5.43212890625,-0.0152587890625
3.7899999,9.567230224609375,-0.1364694982767105,2.604891538619995,0.244140625,5.645751953125,0.1678466796875
3.8099999,9.557653427124023,-0.15562310814857483,2.6384103298187256,1.0833740234375,4.364013671875,1.2969970703125
3.8299999000000002,9.526528358459473,-0.1628057211637497,2.6839001178741455,2.4566650390625,3.265380859375,0.48828125
3.8499999,9.500192642211914,-0.1843535304069519,2.7078421115875244,7.6446533203125,3.448486328125,-0.0457763671875
3.8699999,9.461885452270508,-0.15801730751991272,2.7102363109588623,10.1776123046875,3.6468505859375,-2.838134765625
3.8899999,9.442731857299805,-0.13407529890537262,2.695871114730835,12.2222900390625,6.7138671875,-1.1444091796875
3.9099999,9.418789863586426,-0.0454898327589035,2.6671407222747803,11.993408203125,4.852294921875,-0.3509521484375
3.9299999,9.406818389892578,0.05027823522686958,2.6431987285614014,5.79833984375,1.8463134765625,0.1983642578125
3.9499999,9.402029991149902,0.13168109953403473,2.628833532333374,2.5177001953125,1.9073486328125,1.739501953125
3.9699999,9.406818389892578,0.181959331035614,2.6240451335906982,4.5623779296875,3.814697265625,3.2196044921875
3.9899999,9.406818389892578,0.2106897532939911,2.647987127304077,4.3487548828125,3.6773681640625,2.8076171875
4.0099999,9.423578262329102,0.15801730751991272,2.691082715988159,3.47900390625,1.28173828125,4.8675537109375
4.029999900000001,9.457097053527832,0.028730420395731926,2.7461493015289307,5.1422119140625,0.3662109375,6.134033203125
4.0499999,9.490615844726562,-0.0933738648891449,2.738966703414917,5.6915283203125,-1.3885498046875,1.190185546875
4.069999900000001,9.526528358459473,-0.21547815203666687,2.7054479122161865,3.4332275390625,0.457763671875,-1.0528564453125
4.0899999000000005,9.545681953430176,-0.2777273952960968,2.6360161304473877,0.18310546875,2.3040771484375,2.5482177734375
4.1099999,9.531316757202148,-0.26575639843940735,2.5234885215759277,0.274658203125,-2.1820068359375,2.7618408203125
4.1299999000000005,9.514557838439941,-0.26336219906806946,2.432508945465088,0.335693359375,-0.9613037109375,3.2196044921875
4.1499999,9.495404243469238,-0.2753331959247589,2.33913516998291,-1.251220703125,2.838134765625,2.4871826171875
4.1699999000000005,9.481039047241211,-0.31364041566848755,2.248155355453491,-1.800537109375,3.814697265625,1.2969970703125
4.1899999,9.473855972290039,-0.33758243918418884,2.2361843585968018,-2.38037109375,6.5765380859375,-1.0223388671875
4.209999900000001,9.461885452270508,-0.33758243918418884,2.276885747909546,-1.77001953125,6.7596435546875,-1.6021728515625
4.2299999,9.440337181091309,-0.2968810200691223,2.389413356781006,-0.2288818359375,6.4544677734375,-0.701904296875
4.249999900000001,9.41400146484375,-0.24420857429504395,2.5258827209472656,0.640869140625,5.767822265625,-0.1220703125
4.2699999,9.3828763961792,-0.17238251864910126,2.6408045291900635,2.5482177734375,4.425048828125,-1.312255859375
4.289999900000001,9.354146003723145,-0.10295066982507706,2.7006595134735107,2.9449462890625,4.5318603515625,-1.739501953125
4.3099999,9.311050415039062,-0.026336219161748886,2.6815059185028076,3.8909912109375,4.2266845703125,-0.5340576171875
4.329999900000001,9.272743225097656,0.033518824726343155,2.628833532333374,5.31005859375,7.7056884765625,0.244140625
4.3499999,9.23443603515625,0.08619125932455063,2.5689783096313477,5.1727294921875,9.613037109375,-0.3204345703125
4.369999900000001,9.205705642700195,0.11971008777618408,2.516305923461914,3.692626953125,6.89697265625,-0.213623046875
4.3899999,9.196128845214844,0.1149216815829277,2.4899697303771973,5.18798828125,8.8348388671875,1.64794921875
4.409999900000001,9.188945770263672,0.1149216815829277,2.5043349266052246,7.354736328125,13.7481689453125,1.434326171875
4.4299999,9.17697525024414,0.090979665517807,2.5737667083740234,4.5166015625,13.7786865234375,0.5645751953125
4.449999900000001,9.155426979064941,0.011971008032560349,2.676717519760132,5.6304931640625,9.185791015625,3.5247802734375
4.4699999,9.114726066589355,-0.05506663769483566,2.80361008644104,9.857177734375,9.185791015625,2.1820068359375
4.489999900000001,9.069235801696777,-0.090979665517807,2.8562827110290527,12.481689453125,10.1776123046875,-0.823974609375
4.5099999,9.042900085449219,-0.0933738648891449,2.8107926845550537,13.5040283203125,10.467529296875,1.6632080078125
4.529999900000001,9.050082206726074,-0.05985504388809204,2.695871114730835,11.077880859375,13.916015625,4.82177734375
4.5499999,9.102754592895508,-0.05027823522686958,2.6192567348480225,8.1024169921875,19.317626953125,4.9285888671875
4.569999900000001,9.17936897277832,-0.090979665517807,2.607285737991333,11.260986328125,18.37158203125,1.52587890625
4.5899999000000005,9.263166427612305,-0.15801730751991272,2.698265314102173,15.07568359375,17.08984375,-1.64794921875
4.609999900000001,9.327810287475586,-0.20350714027881622,2.853888511657715,14.5721435546875,16.41845703125,-1.861572265625
4.6299999000000005,9.361329078674316,-0.181959331035614,2.999934673309326,11.2457275390625,15.9912109375,-2.3956298828125
4.6499999,9.35893440246582,-0.11971008777618408,3.136404275894165,8.2550048828125,13.7786865234375,-2.2125244140625
4.6699999000000005,9.32541561126709,-0.0454898327589035,3.2082302570343018,8.48388671875,11.77978515625,-1.3427734375
4.6899999,9.26795482635498,0.033518824726343155,3.2632968425750732,8.392333984375,14.09912109375,-2.0751953125
4.709999900000001,9.20091724395752,0.06224924325942993,3.3063924312591553,10.284423828125,17.2271728515625,-2.044677734375
4.7299999,9.131484985351562,0.07900865375995636,3.337517261505127,15.1824951171875,16.754150390625,-2.6702880859375
4.749999900000001,9.078812599182129,0.08379705995321274,3.354276657104492,15.869140625,14.434814453125,-3.8909912109375
4.7699999,9.02135181427002,0.12210428714752197,3.3854012489318848,10.5438232421875,16.1285400390625,-4.4708251953125
4.789999900000001,8.973467826843262,0.16759411990642548,3.383007049560547,7.293701171875,15.594482421875,-2.4566650390625
4.8099999,8.944737434387207,0.19393034279346466,3.399766445159912,9.7808837890625,14.892578125,-1.0833740234375
4.829999900000001,8.918401718139648,0.2082955539226532,3.3901896476745605,17.1356201171875,17.9290771484375,-4.9591064453125
4.8499999,8.892065048217773,0.21308395266532898,3.378218650817871,20.6298828125,21.6522216796875,-7.9803466796875
4.869999900000001,8.856152534484863,0.2513911724090576,3.3470940589904785,17.7001953125,23.98681640625,-7.14111328125
4.8899999,8.80587387084961,0.31364041566848755,3.3638534545898438,14.4500732421875,23.7274169921875,-4.94384765625
4.909999900000001,8.722076416015625,0.4213795065879822,3.421314239501953,13.641357421875,22.613525390625,-5.5999755859375
4.9299999,8.62630844116211,0.4884171485900879,3.5266590118408203,15.0909423828125,20.2789306640625,-5.55419921875
4.949999900000001,8.53532886505127,0.5626373887062073,3.6152446269989014,20.1568603515625,24.2919921875,-5.279541015625
4.9699999,8.44195556640625,0.689530074596405,3.648763418197632,22.9034423828125,24.688720703125,-7.6751708984375
4.989999900000001,8.398859977722168,0.7924807667732239,3.6511576175689697,17.852783203125,26.763916015625,-1.4801025390625
5.0099999,8.389283180236816,0.8978256583213806,3.6367924213409424,11.77978515625,27.6947021484375,2.1820068359375
5.029999900000001,8.439560890197754,0.9074024558067322,3.6176388263702393,12.39013671875,26.947021484375,1.983642578125
5.0499999,8.504204750061035,0.9050082564353943,3.620033025741577,9.796142578125,28.1219482421875,-2.0751953125
5.069999900000001,8.585607528686523,0.8164227604866028,3.6942532062530518,-0.1678466796875,30.7769775390625,1.068115234375
5.0899999000000005,8.65743350982666,0.751779317855835,3.847482204437256,-4.33349609375,31.829833984375,3.5552978515625
5.109999900000001,8.729259490966797,0.6129156351089478,4.094084739685059,-0.0152587890625,30.426025390625,1.6326904296875
5.1299999000000005,8.762778282165527,0.524330198764801,4.41969633102417,1.9378662109375,30.5023193359375,-4.3182373046875
5.1499999,8.7484130859375,0.4692635238170624,4.786009311676025,-0.8697509765625,31.829833984375,-4.974365234375
5.1699999000000005,8.662221908569336,0.47884035110473633,5.135562419891357,2.25830078125,30.4718017578125,0.8392333984375
5.1899999,8.494627952575684,0.5315127968788147,5.434837818145752,11.71875,27.2674560546875,0.885009765625
5.209999900000001,8.29830265045166,0.5746083855628967,5.537788391113281,20.93505859375,22.7508544921875,-3.326416015625
5.2299999,8.094796180725098,0.6751648783683777,5.410895824432373,18.9056396484375,24.0631103515625,-7.415771484375
5.249999900000001,7.903259754180908,0.849941611289978,5.104437828063965,8.6212158203125,28.289794921875,-5.2947998046875
5.2699999,7.7428483963012695,1.0558429956436157,4.824316501617432,5.2337646484375,34.8052978515625,1.1138916015625
5.289999900000001,7.632715225219727,1.1851298809051514,4.69024133682251,15.7318115234375,37.0025634765625,2.960205078125
5.3099999,7.565677165985107,1.2258312702178955,4.750096321105957,21.4385986328125,33.447265625,-3.2501220703125
5.329999900000001,7.534552574157715,1.2282254695892334,4.920084476470947,12.0391845703125,29.3731689453125,-6.591796875
5.3499999,7.548917770385742,1.2330138683319092,5.058948040008545,6.9580078125,28.50341796875,-0.3509521484375
5.369999900000001,7.582436561584473,1.3048399686813354,5.1331682205200195,10.43701171875,33.416748046875,4.0130615234375
5.3899999,7.632715225219727,1.3934253454208374,5.185841083526611,3.692626953125,34.9578857421875,4.0283203125
5.409999900000001,7.735665798187256,1.3072341680526733,5.281609058380127,-10.3302001953125,34.4085693359375,10.5438232421875
5.4299999,7.85537576675415,1.0989385843276978,5.497087001800537,-8.209228515625,37.4755859375,10.1470947265625
5.449999900000001,7.960720539093018,0.7733271718025208,5.815515995025635,0.3814697265625,37.3992919921875,2.3956298828125
5.4699999,8.010998725891113,0.4572925269603729,6.189011573791504,9.490966796875,35.491943359375,-3.4637451171875
5.489999900000001,7.979874134063721,0.3064578175544739,6.50025749206543,11.3677978515625,34.088134765625,-3.7078857421875
5.5099999,7.857769966125488,0.3878606855869293,6.708553314208984,6.34765625,32.9437255859375,-1.6326904296875
5.529999900000001,7.680599212646484,0.5937620401382446,6.876147270202637,-1.46484375,32.77587890625,3.6773681640625
5.5499999,7.5201873779296875,0.7924807667732239,6.947973251342773,1.6937255859375,26.8707275390625,8.4381103515625
5.569999900000001,7.398083209991455,0.9026140570640564,6.9695210456848145,7.1258544921875,22.9034423828125,6.4697265625
5.5899999000000005,7.333439826965332,0.912190854549408,6.950367450714111,4.9285888671875,26.4434814453125,2.1820068359375
5.609999900000001,7.333439826965332,0.8188169598579407,6.916848659515381,0.91552734375,30.45654296875,4.364013671875
5.6299999000000005,7.350199222564697,0.7374141216278076,6.912060260772705,2.2735595703125,27.130126953125,3.448486328125
5.6499999,7.350199222564697,0.7230489253997803,6.983886241912842,-2.3956298828125,22.7813720703125,-2.4566650390625
5.6699999000000005,7.33583402633667,0.7469909191131592,7.091625213623047,-8.23974609375,20.355224609375,0.518798828125
5.6899999,7.29034423828125,0.811634361743927,7.206547260284424,-7.26318359375,21.05712890625,6.2713623046875
5.709999900000001,7.230489253997803,0.8690952062606812,7.338228225708008,-4.8065185546875,21.484375,5.584716796875
5.7299999,7.180211067199707,0.8427590131759644,7.4555439949035645,-2.8228759765625,17.76123046875,2.8533935546875
5.749999900000001,7.137115478515625,0.7876923680305481,7.5417351722717285,-1.9683837890625,15.5792236328125,1.1749267578125
5.7699999,7.108384609222412,0.6967126727104187,7.592013359069824,-1.4190673828125,16.6778564453125,1.617431640625
5.789999900000001,7.06528902053833,0.6631938815116882,7.594407558441162,-2.0751953125,17.425537109375,-0.9002685546875
5.8099999,7.010222434997559,0.6871358752250671,7.592013359069824,-2.25830078125,16.1895751953125,-3.0059814453125
5.829999900000001,6.919242858886719,0.7613561153411865,7.601590633392334,-2.960205078125,14.801025390625,0.1068115234375
5.8499999,6.823474884033203,0.8858546018600464,7.618350028991699,-3.1890869140625,12.6190185546875,3.509521484375
5.869999900000001,6.730101108551025,0.9768342971801758,7.642292022705078,-3.7689208984375,10.2691650390625,4.8828125
5.8899999,6.691793918609619,0.9600749015808105,7.649474620819092,-4.425048828125,9.033203125,6.8206787109375
5.909999900000001,6.672640323638916,0.9097966551780701,7.620744228363037,-3.6773681640625,6.40869140625,2.838134765625
5.9299999,6.694188117980957,0.7829039692878723,7.556100368499756,-3.7689208984375,6.6070556640625,2.3193359375
5.949999900000001,6.701370716094971,0.6991068720817566,7.457938194274902,-1.1749267578125,9.1705322265625,2.8228759765625
5.9699999,6.696582317352295,0.6416460275650024,7.400477409362793,-4.0740966796875,11.5966796875,2.2125244140625
5.989999900000001,6.665457725524902,0.6177040338516235,7.3693528175354,-3.9520263671875,8.5906982421875,2.6397705078125
6.0099999,6.619967937469482,0.6320692300796509,7.3885064125061035,-3.173828125,6.072998046875,1.861572265625
6.029999900000001,6.574477672576904,0.6344634294509888,7.417236804962158,-1.8463134765625,6.6986083984375,4.21142578125
6.0499999,6.538564682006836,0.6177040338516235,7.400477409362793,-1.2969970703125,6.8206787109375,4.9591064453125
6.069999900000001,6.524199485778809,0.5841852426528931,7.376535415649414,-2.8839111328125,8.1024169921875,1.6937255859375
6.0899999000000005,6.512228488922119,0.545877993106842,7.333439826965332,-3.5552978515625,7.87353515625,-0.30517578125
6.109999900000001,6.507440090179443,0.524330198764801,7.319074630737305,-0.8392333984375,8.60595703125,1.190185546875
6.1299999000000005,6.4834980964660645,0.5363011956214905,7.340622425079346,-1.739501953125,9.2620849609375,2.3345947265625
6.149999900000001,6.452373504638672,0.5602431893348694,7.340622425079346,-0.06103515625,6.500244140625,2.0751953125
6.1699999000000005,6.418854713439941,0.5793967843055725,7.357381820678711,1.373291015625,8.758544921875,2.1820068359375
6.1899999,6.382941722869873,0.5985504388809204,7.364564418792725,-2.6702880859375,10.7269287109375,1.5106201171875
6.209999900000001,6.3518171310424805,0.6200982332229614,7.3693528175354,-2.6397705078125,8.9569091796875,2.5787353515625
6.2299999,6.320692539215088,0.6536170840263367,7.4100542068481445,-1.8310546875,8.209228515625,2.5787353515625
6.249999900000001,6.287173748016357,0.6847416758537292,7.453149795532227,-1.3580322265625,7.9803466796875,3.7689208984375
6.2699999,6.258443355560303,0.689530074596405,7.493851184844971,-0.732421875,8.026123046875,5.2490234375
6.289999900000001,6.236895561218262,0.6775590777397156,7.510610580444336,-0.579833984375,7.659912109375,4.730224609375
6.3099999,6.208165168762207,0.646434485912323,7.51779317855835,-1.678466796875,7.2784423828125,3.23486328125
6.329999900000001,6.1770405769348145,0.5889736413955688,7.532158374786377,0.4425048828125,9.552001953125,4.8065185546875
6.3499999,6.1267619132995605,0.5554547905921936,7.5632829666137695,4.9285888671875,10.345458984375,3.8909912109375
6.369999900000001,6.074089527130127,0.5291185975074768,7.577648162841797,8.36181640625,7.6446533203125,2.5177001953125
6.3899999,6.0190229415893555,0.5817909836769104,7.546523571014404,10.0860595703125,6.9732666015625,2.3193359375
6.409999900000001,5.995080947875977,0.6392518281936646,7.491456985473633,5.0048828125,9.3841552734375,6.2103271484375
6.4299999,5.999869346618652,0.6751648783683777,7.393294811248779,4.6539306640625,9.490966796875,10.7269287109375
6.449999900000001,6.035782337188721,0.6536170840263367,7.3693528175354,2.5482177734375,10.3607177734375,7.7972412109375
6.4699999,6.074089527130127,0.5602431893348694,7.376535415649414,3.7078857421875,9.368896484375,4.5166015625
6.489999900000001,6.100425720214844,0.4357447028160095,7.433996200561523,7.99560546875,10.009765625,4.9591064453125
6.5099999,6.100425720214844,0.35913026332855225,7.465120792388916,8.575439453125,10.7269287109375,4.180908203125
6.529999900000001,6.071695327758789,0.33997663855552673,7.462726593017578,6.8206787109375,10.467529296875,2.74658203125
6.5499999,6.0405707359313965,0.3519476354122162,7.462726593017578,2.8839111328125,12.9852294921875,4.1351318359375
6.569999900000001,6.016628742218018,0.38307225704193115,7.433996200561523,2.777099609375,11.810302734375,5.096435546875
6.5899999000000005,6.00226354598999,0.40940847992897034,7.436390399932861,3.3721923828125,11.871337890625,3.9215087890625
6.609999900000001,6.01423454284668,0.3998316824436188,7.462726593017578,0.091552734375,14.862060546875,3.23486328125
6.6299999000000005,6.035782337188721,0.37828385829925537,7.4986395835876465,-0.5340576171875,14.739990234375,2.8228759765625
6.649999900000001,6.054935932159424,0.3663128614425659,7.565677165985107,-1.556396484375,14.5263671875,1.1138916015625
6.6699999000000005,6.054935932159424,0.3495534360408783,7.661445617675781,-1.129150390625,14.9993896484375,1.312255859375
6.6899999,6.0190229415893555,0.33518823981285095,7.7643961906433105,-0.335693359375,15.6707763671875,1.2969970703125
6.709999900000001,5.928043365478516,0.3447650372982025,7.824251174926758,5.31005859375,15.411376953125,-1.9073486328125
6.7299999,5.808333396911621,0.4165911078453064,7.886500358581543,9.33837890625,19.95849609375,-4.69970703125
6.749999900000001,5.655104637145996,0.5841852426528931,7.9176249504089355,7.2479248046875,20.416259765625,-3.3416748046875
6.7699999,5.537788391113281,0.7493851184844971,7.965508937835693,5.767822265625,17.7459716796875,3.47900390625
6.789999900000001,5.442020416259766,0.9313444495201111,7.987056732177734,5.7525634765625,14.4805908203125,3.814697265625
6.8099999,5.394136428833008,0.9864110946655273,7.999027729034424,5.859375,15.5792236328125,3.5400390625
6.829999900000001,5.3797712326049805,0.9672574996948242,7.975085735321045,4.0740966796875,18.4783935546875,3.997802734375
6.8499999,5.367800235748291,0.9169792532920837,7.915230751037598,4.1656494140625,17.7459716796875,3.814697265625
6.869999900000001,5.363011837005615,0.8547300100326538,7.881711959838867,0.6866455078125,18.06640625,5.2642822265625
6.8899999,5.3582234382629395,0.7924807667732239,7.862558364868164,-1.5869140625,18.6309814453125,7.50732421875
6.909999900000001,5.34625244140625,0.7158663272857666,7.881711959838867,-3.173828125,18.2952880859375,7.1258544921875
6.9299999,5.343858242034912,0.569819986820221,7.960720539093018,-2.0904541015625,20.8892822265625,6.7138671875
6.949999900000001,5.317522048950195,0.42616790533065796,8.042123794555664,-0.701904296875,19.3634033203125,2.8228759765625
6.9699999,5.262455463409424,0.2753331959247589,8.123526573181152,1.0986328125,19.4244384765625,-0.2593994140625
6.989999900000001,5.161899089813232,0.2059013396501541,8.152256965637207,3.7078857421875,21.881103515625,-2.6397705078125
7.0099999,5.013458251953125,0.29209262132644653,8.08043098449707,5.5999755859375,22.15576171875,-5.950927734375
7.029999900000001,4.862623691558838,0.5339069962501526,8.01339340209961,1.03759765625,26.9622802734375,-3.631591796875
7.0499999,4.745307922363281,0.8188169598579407,7.999027729034424,-8.331298828125,28.6865234375,5.7830810546875
7.069999900000001,4.707000732421875,0.9768342971801758,8.10437297821045,-9.613037109375,24.35302734375,13.763427734375
7.0899999000000005,4.757278919219971,0.9145850539207458,8.31985092163086,-6.3934326171875,21.1029052734375,9.21630859375
7.109999900000001,4.8482584953308105,0.6703764796257019,8.564059257507324,-2.899169921875,21.728515625,0.3509521484375
7.1299999000000005,4.948814868927002,0.3447650372982025,8.769960403442383,-1.922607421875,23.1170654296875,-1.5106201171875
7.149999900000001,5.003881454467773,0.12689268589019775,8.889671325683594,-1.40380859375,22.216796875,-0.8087158203125
7.1699999000000005,4.994304656982422,0.043095629662275314,8.975862503051758,-3.0670166015625,21.3623046875,-2.7008056640625
7.1899999,4.941632270812988,0.026336219161748886,9.038111686706543,-4.4403076171875,21.514892578125,-1.6021728515625
7.209999900000001,4.850652694702148,0.05506663769483566,9.0859956741333,-3.8604736328125,19.2718505859375,-2.044677734375
7.2299999,4.738125324249268,0.11252748221158981,9.105149269104004,-2.288818359375,17.1661376953125,-5.1116943359375
7.249999900000001,4.616020679473877,0.17238251864910126,9.129091262817383,-4.119873046875,19.0887451171875,-5.3558349609375
7.2699999,4.496310710906982,0.26096799969673157,9.100360870361328,-3.6163330078125,17.608642578125,-3.662109375
7.289999900000001,4.383783340454102,0.363918662071228,9.07641887664795,-4.7149658203125,15.9454345703125,-2.1820068359375
7.3099999,4.292803764343262,0.45489832758903503,9.062053680419922,-9.6588134765625,15.9912109375,-0.8392333984375
7.329999900000001,4.225766181945801,0.5099649429321289,9.047688484191895,-9.21630859375,14.068603515625,1.3427734375
7.3499999,4.180276393890381,0.4908113479614258,9.066842079162598,-8.7738037109375,14.312744140625,3.2196044921875
7.369999900000001,4.144362926483154,0.4429273009300232,9.081207275390625,-7.8582763671875,13.153076171875,1.708984375
7.3899999,4.110844135284424,0.3495534360408783,9.11233139038086,-9.0484619140625,12.39013671875,0.5950927734375
7.409999900000001,4.060565948486328,0.2753331959247589,9.131484985351562,-7.9193115234375,12.4359130859375,1.3885498046875
7.4299999,3.97916316986084,0.2298433631658554,9.11233139038086,-5.462646484375,10.345458984375,0.91552734375
7.449999900000001,3.8570590019226074,0.2322375625371933,9.064447402954102,-4.3792724609375,11.16943359375,0.7476806640625
7.4699999,3.7014358043670654,0.2849099934101105,8.939949035644531,-3.2501220703125,11.4593505859375,0.9307861328125
7.489999900000001,3.552995204925537,0.3998316824436188,8.757989883422852,-0.8544921875,12.481689453125,3.0517578125
7.5099999,3.4524388313293457,0.5027823448181152,8.588001251220703,-4.0740966796875,16.17431640625,7.6904296875
7.529999900000001,3.442862033843994,0.5339069962501526,8.482656478881836,-9.6588134765625,17.02880859375,11.383056640625
7.5499999,3.5266590118408203,0.4357447028160095,8.494627952575684,-11.04736328125,17.4102783203125,10.406494140625
7.569999900000001,3.665522813796997,0.21547815203666687,8.633491516113281,-9.6282958984375,17.2271728515625,6.65283203125
7.5899999000000005,3.804386615753174,-0.031124621629714966,8.832210540771484,-9.2315673828125,16.7694091796875,2.6397705078125
7.609999900000001,3.9025487899780273,-0.22744916379451752,9.05247688293457,-9.6435546875,16.9830322265625,1.0528564453125
7.6299999000000005,3.9193081855773926,-0.28969839215278625,9.244012832641602,-10.467529296875,16.78466796875,0.7781982421875
7.649999900000001,3.8738183975219727,-0.26815059781074524,9.418789863586426,-10.7269287109375,16.0675048828125,2.8533935546875
7.6699999000000005,3.773261785507202,-0.18914192914962769,9.5408935546875,-9.674072265625,13.5955810546875,4.4708251953125
7.6899999,3.6607344150543213,-0.10534487664699554,9.627084732055664,-9.6435546875,12.3138427734375,3.90625
7.709999900000001,3.555389642715454,-0.07900865375995636,9.667786598205566,-10.92529296875,12.3443603515625,4.852294921875
7.7299999,3.4763808250427246,-0.09816227108240128,9.641449928283691,-8.7738037109375,9.8724365234375,5.4473876953125
7.749999900000001,3.4165258407592773,-0.15322890877723694,9.581595420837402,-8.5906982421875,9.8114013671875,3.6773681640625
7.7699999,3.375824451446533,-0.22505496442317963,9.490615844726562,-8.087158203125,10.711669921875,2.7923583984375
7.789999900000001,3.335123062133789,-0.2753331959247589,9.366117477416992,-7.5531005859375,10.040283203125,2.655029296875
7.8099999,3.294421434402466,-0.2968810200691223,9.282320022583008,-9.21630859375,11.29150390625,3.4942626953125
7.829999900000001,3.2561142444610596,-0.31124621629714966,9.215282440185547,-8.6669921875,10.9100341796875,4.8675537109375
7.8499999,3.2178070545196533,-0.31124621629714966,9.198522567749023,-7.32421875,10.19287109375,3.631591796875
7.869999900000001,3.205836057662964,-0.36152446269989014,9.232041358947754,-7.1258544921875,12.3138427734375,4.3792724609375
7.8899999,3.1890766620635986,-0.40222588181495667,9.279925346374512,-6.2713623046875,10.894775390625,2.7618408203125
7.909999900000001,3.184288263320923,-0.4668693244457245,9.35654067993164,-5.31005859375,10.9405517578125,1.129150390625
7.9299999,3.1723172664642334,-0.5051765441894531,9.38048267364502,-3.143310546875,9.1400146484375,1.0986328125
7.949999900000001,3.1483752727508545,-0.5363011956214905,9.397241592407227,-3.4942626953125,11.1083984375,1.617431640625
7.9699999,3.1076738834381104,-0.5386953949928284,9.354146003723145,-3.8909912109375,11.90185546875,1.7242431640625
7.989999900000001,3.069366693496704,-0.545877993106842,9.32302188873291,-4.150390625,12.0849609375,0.9307861328125
8.0099999,3.028665065765381,-0.5626373887062073,9.311050415039062,-3.8604736328125,12.7716064453125,1.4190673828125
8.0299999,2.9903578758239746,-0.5961562395095825,9.334992408752441,-3.265380859375,12.481689453125,0.579833984375
8.049999900000001,2.9448680877685547,-0.6105214357376099,9.344569206237793,-1.6021728515625,10.8642578125,-1.495361328125
8.069999900000001,2.8802247047424316,-0.6033388376235962,9.349357604980469,-1.28173828125,11.260986328125,-1.40380859375
8.0899999,2.808398485183716,-0.5626373887062073,9.32302188873291,-3.3111572265625,13.092041015625,1.2359619140625
8.1099999,2.738966703414917,-0.49799394607543945,9.251194953918457,-2.6397705078125,11.29150390625,2.1820068359375
8.129999900000001,2.7006595134735107,-0.4644751250743866,9.224859237670898,-5.3253173828125,13.1988525390625,3.0670166015625
8.149999900000001,2.693476915359497,-0.49799394607543945,9.181763648986816,-6.1187744140625,12.4053955078125,3.7994384765625
8.1699999,2.7054479122161865,-0.5770025849342346,9.229647636413574,-4.241943359375,13.9617919921875,1.983642578125
8.1899999,2.719813108444214,-0.6775590777397156,9.272743225097656,5.31005859375,14.6636962890625,-0.0457763671875
8.2099999,2.7126305103302,-0.7445967197418213,9.342175483703613,6.500244140625,13.519287109375,-0.91552734375
8.229999900000001,2.6791117191314697,-0.7445967197418213,9.423578262329102,-0.8544921875,15.4571533203125,-0.8697509765625
8.2499999,2.6216509342193604,-0.706289529800415,9.47146224975586,-0.18310546875,14.2364501953125,0.091552734375
8.2699999,2.5546131134033203,-0.6440402865409851,9.514557838439941,1.7852783203125,13.18359375,0.762939453125
8.2899999,2.4875755310058594,-0.6009446382522583,9.550470352172852,0.701904296875,14.7857666015625,0.518798828125
8.309999900000001,2.434903144836426,-0.5817909836769104,9.555258750915527,0.3662109375,14.34326171875,0.3509521484375
8.3299999,2.3942017555236816,-0.5674257874488831,9.576807022094727,-0.8697509765625,14.862060546875,-0.5645751953125
8.3499999,2.367865562438965,-0.586579442024231,9.581595420837402,-0.640869140625,13.702392578125,0.54931640625
8.3699999,2.346317768096924,-0.6057330369949341,9.591172218322754,-0.5950927734375,13.2293701171875,0.152587890625
8.389999900000001,2.315192937850952,-0.6177040338516235,9.579200744628906,-0.579833984375,13.6871337890625,-1.6326904296875
8.4099999,2.2816741466522217,-0.6416460275650024,9.576807022094727,-1.708984375,15.3045654296875,-0.5645751953125
8.4299999,2.2361843585968018,-0.6631938815116882,9.57441234588623,-3.021240234375,14.5721435546875,0.8087158203125
8.4499999,2.1930887699127197,-0.6943184733390808,9.593565940856934,-3.143310546875,13.7481689453125,-0.213623046875
8.469999900000001,2.1499931812286377,-0.7422025203704834,9.639056205749512,-4.119873046875,14.251708984375,-1.739501953125
8.4899999,2.1068975925445557,-0.7972691655158997,9.674968719482422,-3.5858154296875,12.9547119140625,-1.9073486328125
8.5099999,2.0614075660705566,-0.8259995579719543,9.696516990661621,-2.3956298828125,12.5274658203125,-2.6702880859375
8.5299999,2.013523578643799,-0.8427590131759644,9.708487510681152,-3.96728515625,14.129638671875,-3.204345703125
8.549999900000001,1.9608511924743652,-0.8403648138046265,9.715670585632324,-4.4708251953125,14.2669677734375,-3.0670166015625
8.569999900000001,1.8938134908676147,-0.8044517636299133,9.715670585632324,-2.838134765625,12.3443603515625,-3.60107421875
8.5899999,1.821987509727478,-0.7613561153411865,9.727641105651855,-0.7171630859375,12.4969482421875,-2.044677734375
8.6099999,1.7190368175506592,-0.6919242739677429,9.6989107131958,0.1220703125,12.6190185546875,-0.457763671875
8.629999900000001,1.6280571222305298,-0.6153098344802856,9.62947940826416,0.91552734375,12.14599609375,0.5035400390625
8.649999900000001,1.5490485429763794,-0.5602431893348694,9.567230224609375,-0.91552734375,15.899658203125,3.0364990234375
8.6699999,1.4987702369689941,-0.545877993106842,9.50498104095459,1.03759765625,16.6168212890625,5.06591796875
8.6899999,1.4987702369689941,-0.6177040338516235,9.521739959716797,1.220703125,17.27294921875,4.547119140625
8.709999900000001,1.501164436340332,-0.7038952708244324,9.581595420837402,0.6561279296875,15.8538818359375,-1.129150390625
8.729999900000001,1.5083470344543457,-0.7829039692878723,9.667786598205566,2.0599365234375,14.4500732421875,-3.509521484375
8.7499999,1.479616641998291,-0.7661445140838623,9.732429504394531,1.40380859375,13.1988525390625,-2.0599365234375
8.7699999,1.4317326545715332,-0.6919242739677429,9.780313491821289,-0.213623046875,14.2974853515625,1.7242431640625
8.7899999,1.3766659498214722,-0.5841852426528931,9.794678688049316,-1.2969970703125,14.2822265625,3.143310546875
8.809999900000001,1.3455413579940796,-0.5267243981361389,9.837775230407715,-4.3487548828125,13.763427734375,3.387451171875
8.8299999,1.3431471586227417,-0.5291185975074768,9.864110946655273,-4.5166015625,11.4593505859375,3.9215087890625
8.8499999,1.3527239561080933,-0.5674257874488831,9.911994934082031,-2.716064453125,11.962890625,2.471923828125
8.8699999,1.3623007535934448,-0.629675030708313,9.950302124023438,-3.1280517578125,13.3514404296875,2.44140625
8.889999900000001,1.3527239561080933,-0.6751648783683777,9.955090522766113,-0.2288818359375,11.1846923828125,3.3111572265625
8.9099999,1.3192051649093628,-0.6991068720817566,9.971850395202637,0.8697509765625,11.9476318359375,3.4637451171875
8.9299999,1.2737152576446533,-0.7110779285430908,9.974244117736816,0.6256103515625,12.6495361328125,4.0130615234375
8.9499999,1.2114660739898682,-0.706289529800415,9.955090522766113,1.0833740234375,10.406494140625,3.5858154296875
8.969999900000001,1.1540051698684692,-0.6991068720817566,9.952696800231934,1.7547607421875,11.0931396484375,2.9449462890625
8.9899999,1.0893617868423462,-0.6919242739677429,9.923966407775879,2.1820068359375,11.0931396484375,3.448486328125
9.0099999,1.0295066833496094,-0.667982280254364,9.883264541625977,1.800537109375,9.857177734375,2.7313232421875
9.0299999,0.9792284965515137,-0.6584054827690125,9.840168952941895,1.312255859375,9.9334716796875,3.41796875
9.049999900000001,0.9433154463768005,-0.6368576288223267,9.81143856048584,-1.2969970703125,11.444091796875,3.326416015625
9.069999900000001,0.9217676520347595,-0.6416460275650024,9.801861763000488,-0.6561279296875,10.2081298828125,3.3416748046875
9.0899999,0.9217676520347595,-0.6823474764823914,9.840168952941895,0.79345703125,9.9639892578125,3.7384033203125
9.1099999,0.9193734526634216,-0.7254431247711182,9.897629737854004,1.129150390625,9.2620849609375,0.0457763671875
9.129999900000001,0.9097966551780701,-0.7565677165985107,9.955090522766113,2.5787353515625,9.0484619140625,-1.8768310546875
9.149999900000001,0.8882488012313843,-0.7661445140838623,9.998186111450195,4.974365234375,9.490966796875,0.1983642578125
9.1699999,0.8523358106613159,-0.7374141216278076,9.998186111450195,6.591796875,8.880615234375,0.732421875
9.1899999,0.8092401623725891,-0.6967126727104187,9.962273597717285,4.180908203125,8.026123046875,-0.6103515625
9.209999900000001,0.7757213711738586,-0.6823474764823914,9.923966407775879,2.1209716796875,9.58251953125,-0.18310546875
9.229999900000001,0.7541735172271729,-0.6823474764823914,9.864110946655273,1.7547607421875,8.36181640625,-0.1220703125
9.2499999,0.7469909191131592,-0.7134721279144287,9.854534149169922,0.8697509765625,8.331298828125,-1.7547607421875
9.2699999,0.7398083209991455,-0.751779317855835,9.876082420349121,-0.79345703125,8.97216796875,-4.0435791015625
9.2899999,0.7134721279144287,-0.7469909191131592,9.909601211547852,1.28173828125,6.683349609375,-5.7830810546875
9.309999900000001,0.6607996821403503,-0.689530074596405,9.959878921508789,-0.213623046875,5.5084228515625,-4.730224609375
9.3299999,0.5961562395095825,-0.5913678407669067,10.007762908935547,-1.8768310546875,5.8135986328125,-0.6561279296875
9.3499999,0.5363011956214905,-0.49559974670410156,10.02452278137207,0.274658203125,3.2196044921875,1.2969970703125
9.3699999,0.5051765441894531,-0.45250412821769714,10.038887977600098,1.0986328125,3.1890869140625,1.6021728515625
9.389999900000001,0.5027823448181152,-0.4668693244457245,10.031704902648926,0.3509521484375,2.8533935546875,0.885009765625
9.4099999,0.5171475410461426,-0.5147533416748047,9.99100399017334,2.410888671875,2.1209716796875,0.9307861328125
9.4299999,0.5339069962501526,-0.5578489899635315,9.93593692779541,1.8310546875,2.349853515625,0.5950927734375
9.4499999,0.545877993106842,-0.6057330369949341,9.885659217834473,-0.48828125,3.2958984375,1.2359619140625
9.469999900000001,0.5410895943641663,-0.6177040338516235,9.832986831665039,-0.457763671875,1.6021728515625,0.3204345703125
9.4899999,0.5315127968788147,-0.6200982332229614,9.77791976928711,1.77001953125,0.54931640625,-0.091552734375
9.5099999,0.5171475410461426,-0.6057330369949341,9.742006301879883,0.518798828125,3.0517578125,1.4495849609375
9.5299999,0.507570743560791,-0.6009446382522583,9.708487510681152,-0.274658203125,3.8299560546875,2.1514892578125
9.549999900000001,0.5123591423034668,-0.6224924325942993,9.708487510681152,0.91552734375,3.4027099609375,1.46484375
9.569999900000001,0.524330198764801,-0.6655880808830261,9.730035781860352,1.40380859375,2.166748046875,-0.5035400390625
9.5899999,0.5386953949928284,-0.6991068720817566,9.773131370544434,0.5950927734375,2.8533935546875,-2.3651123046875
9.6099999,0.5434837937355042,-0.706289529800415,9.801861763000488,0.9613037109375,1.922607421875,-2.105712890625
9.629999900000001,0.5386953949928284,-0.689530074596405,9.828198432922363,0.2288818359375,1.9073486328125,-0.67138671875
9.649999900000001,0.5291185975074768,-0.6536170840263367,9.854534149169922,0.0457763671875,2.1820068359375,-1.0528564453125
9.6699999,0.5147533416748047,-0.6105214357376099,9.873687744140625,0.3814697265625,1.2664794921875,-2.105712890625
9.6899999,0.5051765441894531,-0.5841852426528931,9.8784761428833,2.105712890625,0.274658203125,-0.5645751953125
9.709999900000001,0.5027823448181152,-0.569819986820221,9.892841339111328,0.2288818359375,1.1749267578125,0.762939453125
9.729999900000001,0.5123591423034668,-0.5650315880775452,9.864110946655273,-0.6866455078125,-0.396728515625,-0.3814697265625
9.7499999,0.5267243981361389,-0.5889736413955688,9.847352027893066,-1.03759765625,0.2593994140625,-0.9613037109375
9.7699999,0.5363011956214905,-0.6057330369949341,9.823410034179688,-0.7781982421875,1.4190673828125,-0.8392333984375
9.7899999,0.5363011956214905,-0.6177040338516235,9.797073364257812,-0.5035400390625,0.4119873046875,-0.885009765625
9.809999900000001,0.5291185975074768,-0.6105214357376099,9.794678688049316,-1.007080078125,1.373291015625,-0.67138671875
9.8299999,0.5147533416748047,-0.5985504388809204,9.799467086791992,-1.068115234375,1.190185546875,-0.7171630859375
9.8499999,0.5027823448181152,-0.5770025849342346,9.785101890563965,1.4495849609375,-0.4730224609375,-0.2593994140625
9.8699999,0.49320554733276367,-0.5626373887062073,9.792284965515137,0.091552734375,1.5106201171875,0.1983642578125
9.889999900000001,0.4908113479614258,-0.5554547905921936,9.780313491821289,-1.1444091796875,1.617431640625,0.18310546875
9.9099999,0.4884171485900879,-0.545877993106842,9.75637149810791,1.373291015625,-0.6561279296875,-0.5035400390625
9.9299999,0.49559974670410156,-0.5434837937355042,9.758766174316406,0.091552734375,1.6937255859375,0.06103515625
9.9499999,0.5027823448181152,-0.5482721924781799,9.739612579345703,-0.30517578125,1.312255859375,0.9002685546875
9.969999900000001,0.5147533416748047,-0.5554547905921936,9.758766174316406,-0.335693359375,1.953125,0.2899169921875
9.9899999,0.5267243981361389,-0.569819986820221,9.773131370544434,0.823974609375,0.885009765625,-0.457763671875
10.0099999,0.5315127968788147,-0.5817909836769104,9.801861763000488,2.166748046875,0.8392333984375,-0.213623046875
10.0299999,0.5267243981361389,-0.5626373887062073,9.813833236694336,0.9002685546875,1.1749267578125,-0.335693359375
10.049999900000001,0.5195417404174805,-0.545877993106842,9.799467086791992,1.0833740234375,0.5035400390625,1.0986328125
10.069999900000001,0.5099649429321289,-0.5339069962501526,9.797073364257812,0.3204345703125,2.1209716796875,1.9073486328125
10.0899999,0.5027823448181152,-0.5434837937355042,9.765948295593262,1.9073486328125,0.7171630859375,0.5645751953125
10.1099999,0.49799394607543945,-0.5506663918495178,9.75637149810791,1.6937255859375,1.3427734375,-1.5106201171875
10.129999900000001,0.5051765441894531,-0.5530605912208557,9.773131370544434,0.18310546875,3.0364990234375,-0.946044921875
10.149999900000001,0.5099649429321289,-0.5219359993934631,9.782708168029785,4.058837890625,1.220703125,0.030517578125
10.1699999,0.5195417404174805,-0.47165772318840027,9.80904483795166,4.08935546875,0,-0.2593994140625
10.1899999,0.524330198764801,-0.4429273009300232,9.80904483795166,1.8310546875,1.0528564453125,1.4190673828125
10.209999900000001,0.5291185975074768,-0.4429273009300232,9.799467086791992,1.6021728515625,1.922607421875,2.13623046875
10.229999900000001,0.5291185975074768,-0.47165772318840027,9.75397777557373,3.509521484375,0.6256103515625,0.701904296875
10.2499999,0.5267243981361389,-0.5267243981361389,9.718064308166504,3.936767578125,1.9378662109375,0.0457763671875
10.2699999,0.5195417404174805,-0.5674257874488831,9.684545516967773,1.5411376953125,3.72314453125,-0.3509521484375
10.2899999,0.5051765441894531,-0.5770025849342346,9.66539192199707,0.732421875,2.99072265625,-0.7781982421875
10.309999900000001,0.49320554733276367,-0.5770025849342346,9.694122314453125,0.2899169921875,3.2196044921875,0.640869140625
10.3299999,0.4836287498474121,-0.5746083855628967,9.737217903137207,0.79345703125,2.50244140625,0.79345703125
10.3499999,0.47884035110473633,-0.5674257874488831,9.770736694335938,2.349853515625,1.5716552734375,-0.640869140625
10.3699999,0.47165772318840027,-0.5674257874488831,9.787496566772461,1.1444091796875,3.0364990234375,-0.9307861328125
10.389999900000001,0.4644751250743866,-0.5578489899635315,9.751583099365234,1.0528564453125,3.143310546875,0.6256103515625
10.4099999,0.4596867263317108,-0.5434837937355042,9.715670585632324,-0.335693359375,3.570556640625,0.6561279296875
10.4299999,0.4692635238170624,-0.5434837937355042,9.66539192199707,-0.5645751953125,4.2724609375,0.3509521484375
10.4499999,0.49559974670410156,-0.5602431893348694,9.63187313079834,-0.518798828125,4.486083984375,-0.457763671875
10.469999900000001,0.5363011956214905,-0.5722141861915588,9.62947940826416,-2.50244140625,6.40869140625,-1.8310546875
10.4899999,0.6009446382522583,-0.5793967843055725,9.641449928283691,-2.6092529296875,7.4005126953125,-2.349853515625
10.5099999,0.689530074596405,-0.5650315880775452,9.720458984375,-4.2877197265625,10.772705078125,-2.7923583984375
10.5299999,0.8379706144332886,-0.5339069962501526,9.823410034179688,-8.36181640625,13.5040283203125,-2.62451171875
10.549999900000001,1.0199298858642578,-0.4668693244457245,9.921571731567383,-18.1884765625,13.946533203125,-2.197265625
10.569999900000001,1.2832920551300049,-0.5793967843055725,10.156203269958496,-45.379638671875,31.3873291015625,4.8675537109375
10.5899999,1.5634137392044067,-0.6943184733390808,10.606313705444336,-75.0579833984375,53.924560546875,2.6092529296875
10.6099999,1.778891921043396,-0.9097966551780701,11.173739433288574,-85.0830078125,53.619384765625,2.5177001953125
10.629999900000001,1.9297266006469727,-1.3862427473068237,12.064382553100586,-78.643798828125,75.653076171875,20.355224609375
10.649999900000001,1.8315643072128296,-1.8722656965255737,13.661314964294434,-118.3624267578125,118.927001953125,14.434814453125
10.6699999,1.5107412338256836,-2.7006595134735107,15.507244110107422,-92.3919677734375,87.188720703125,17.8985595703125
10.6899999,0.8954314589500427,-3.804386615753174,17.901445388793945,-64.3157958984375,47.027587890625,22.613525390625
10.709999900000001,0.15801730751991272,-5.272032260894775,20.077775955200195,-87.2650146484375,17.059326171875,7.38525390625
10.729999900000001,-0.8188169598579407,-6.540958881378174,21.847089767456055,-80.413818359375,-11.5814208984375,-38.39111328125
10.7499999,-1.8842366933822632,-7.536946773529053,22.766464233398438,-30.853271484375,-48.248291015625,-63.8427734375
10.7699999,-3.0095114707946777,-7.807491779327393,22.60365867614746,32.4554443359375,-106.8878173828125,-56.793212890625
10.7899999,-4.110844135284424,-7.259219646453857,21.39698028564453,40.435791015625,-135.162353515625,-67.3370361328125
10.809999900000001,-5.03021764755249,-6.31829833984375,19.3044490814209,25.6500244140625,-142.5018310546875,-68.7713623046875
10.8299999,-5.580883979797363,-5.351040840148926,16.689979553222656,31.524658203125,-161.7889404296875,-56.396484375
10.8499999,-5.837063789367676,-4.446032524108887,14.041993141174316,62.7288818359375,-181.1676025390625,-57.708740234375
10.8699999,-5.729324817657471,-3.9217023849487305,11.903970718383789,58.074951171875,-170.34912109375,-59.9822998046875
10.889999900000001,-5.501875400543213,-3.471592426300049,10.376470565795898,53.5736083984375,-180.999755859375,-66.375732421875
10.9099999,-5.123591423034668,-3.184288263320923,9.334992408752441,74.2034912109375,-215.33203125,-64.8040771484375
10.9299999,-4.685452938079834,-2.8586769104003906,8.315062522888184,108.4747314453125,-242.67578125,-60.4248046875
10.9499999,-4.125209331512451,-2.3726539611816406,7.417236804962158,79.1778564453125,-204.16259765625,-75.927734375
10.969999900000001,-3.4356794357299805,-1.7357962131500244,6.303933143615723,54.779052734375,-194.39697265625,-78.1402587890625
10.9899999,-2.631227731704712,-0.9959878921508789,5.640739440917969,50.079345703125,-222.137451171875,-68.3746337890625
11.0099999,-1.867477297782898,-0.24181437492370605,4.946420669555664,70.86181640625,-266.4947509765625,-62.6983642578125
11.0299999,-1.0630255937576294,0.26575639843940735,4.0078935623168945,77.6824951171875,-277.4505615234375,-60.1348876953125
11.049999900000001,-0.2992752194404602,0.667982280254364,2.801215887069702,46.9970703125,-217.529296875,-65.6280517578125
11.069999900000001,0.5650315880775452,0.9050082564353943,1.4748282432556152,20.2789306640625,-187.5762939453125,-60.8978271484375
11.0899999,1.3910311460494995,1.400607943534851,0.2968810200691223,24.4598388671875,-214.41650390625,-61.1419677734375
11.1099999,2.2864625453948975,1.7884687185287476,-0.7038952708244324,37.628173828125,-206.787109375,-35.0494384765625
11.129999900000001,3.2609026432037354,1.922544002532959,-1.7908629179000854,23.8800048828125,-166.5802001953125,-12.908935546875
11.149999900000001,4.2090067863464355,2.030282974243164,-2.853888511657715,-4.57763671875,-99.7314453125,-32.958984375
11.1699999,5.22175407409668,1.7860745191574097,-3.600879430770874,17.6849365234375,-62.3931884765625,-29.6173095703125
11.1899999,6.102819919586182,1.702277421951294,-3.912125587463379,31.707763671875,-56.7626953125,-16.632080078125
11.209999900000001,6.811503887176514,1.7621324062347412,-3.754108190536499,10.4217529296875,-50.84228515625,-7.4310302734375
11.229999900000001,7.386112213134766,1.8483237028121948,-3.292027235031128,-23.98681640625,-21.78955078125,3.9215087890625
11.2499999,7.833827972412109,1.7836803197860718,-2.7078421115875244,-28.076171875,-18.310546875,11.199951171875
11.2699999,8.192957878112793,1.6065093278884888,-1.8411411046981812,-19.0887451171875,-11.1236572265625,4.9896240234375
11.2899999,8.497021675109863,1.290474772453308,-0.9361328482627869,-12.7716064453125,-10.4217529296875,1.0528564453125
11.309999900000001,8.734047889709473,1.039083480834961,-0.23942017555236816,-7.1563720703125,-15.899658203125,-0.213623046875
11.3299999,8.93037223815918,0.9217676520347595,0.36152446269989014,-14.5416259765625,-2.1209716796875,-0.4425048828125
11.3499999,9.11233139038086,0.8906430602073669,0.8068459630012512,-19.47021484375,9.2926025390625,4.4708251953125
11.3699999,9.279925346374512,0.8547300100326538,1.2737152576446533,-15.1519775390625,4.2572021484375,5.2032470703125
11.389999900000001,9.411606788635254,0.9050082564353943,1.802833914756775,-14.6331787109375,-2.6702880859375,-4.2572021484375
11.4099999,9.521739959716797,0.9169792532920837,2.252943754196167,-11.932373046875,-7.3089599609375,-5.9661865234375
11.4299999,9.576807022094727,1.015141487121582,2.557007312774658,-14.1448974609375,-3.1890869140625,-0.7476806640625
11.4499999,9.59835433959961,1.137245774269104,2.7126305103302,-11.71875,0.8392333984375,0.2288818359375
11.469999900000001,9.622296333312988,1.192312479019165,2.846705913543701,-9.918212890625,4.39453125,-0.4425048828125
11.4899999,9.62947940826416,1.2018892765045166,2.9065608978271484,-3.96728515625,-3.265380859375,-4.058837890625
11.5099999,9.636661529541016,1.1659762859344482,3.050212860107422,-4.33349609375,-0.2899169921875,-6.53076171875
11.5299999,9.605537414550781,1.1875240802764893,3.0765492916107178,-5.035400390625,-3.60107421875,-8.3160400390625
11.549999900000001,9.533711433410645,1.256955862045288,3.069366693496704,-5.3558349609375,-7.904052734375,-7.3394775390625
11.569999900000001,9.421183586120605,1.3910311460494995,2.959233283996582,-5.7373046875,-7.598876953125,-4.8675537109375
11.5899999,9.306262016296387,1.5298948287963867,2.808398485183716,-7.4920654296875,-6.0882568359375,-2.5177001953125
11.6099999,9.20091724395752,1.6328455209732056,2.628833532333374,-11.871337890625,-6.3934326171875,0.274658203125
11.629999900000001,9.133879661560059,1.7094600200653076,2.456450939178467,-10.6201171875,-8.4075927734375,0
11.649999900000001,9.131484985351562,1.6687586307525635,2.3918075561523438,-8.60595703125,-4.364013671875,3.3416748046875
11.6699999,9.169792175292969,1.5753847360610962,2.31758713722229,-5.0506591796875,-7.049560546875,3.631591796875
11.6899999,9.251194953918457,1.4101848602294922,2.322375535964966,-4.1046142578125,-7.4920654296875,1.495361328125
11.709999900000001,9.344569206237793,1.2282254695892334,2.2840683460235596,-3.1585693359375,-6.744384765625,-0.8697509765625
11.729999900000001,9.411606788635254,1.0821791887283325,2.2194249629974365,-3.9215087890625,-5.9814453125,-3.509521484375
11.7499999,9.44752025604248,1.0055646896362305,2.121262788772583,-5.523681640625,-3.997802734375,-4.302978515625
11.7699999,9.433155059814453,1.048660397529602,1.9943699836730957,-6.134033203125,-1.4495849609375,-6.34765625
11.7899999,9.35893440246582,1.1994950771331787,1.9369091987609863,-9.124755859375,3.692626953125,-3.692626953125
11.809999900000001,9.318233489990234,1.3407529592514038,1.9488801956176758,-11.8255615234375,4.180908203125,3.997802734375
11.8299999,9.251194953918457,1.522712230682373,2.0590133666992188,-10.2996826171875,2.0294189453125,2.593994140625
11.8499999,9.251194953918457,1.5825673341751099,2.2361843585968018,-7.38525390625,1.6021728515625,0.1983642578125
11.8699999,9.265560150146484,1.623268723487854,2.387019157409668,-6.072998046875,0.4119873046875,-0.7171630859375
11.889999900000001,9.306262016296387,1.5682021379470825,2.516305923461914,-8.3160400390625,0.9613037109375,1.9989013671875
11.9099999,9.346963882446289,1.5107412338256836,2.58813214302063,-6.7596435546875,1.8310546875,2.1820068359375
11.9299999,9.39245319366455,1.414973258972168,2.609679937362671,-3.0364990234375,0.2899169921875,-0.701904296875
11.9499999,9.437943458557129,1.2880805730819702,2.631227731704712,-2.6092529296875,2.2125244140625,0.0762939453125
11.969999900000001,9.461885452270508,1.213860273361206,2.612074136734009,-2.5787353515625,1.9073486328125,-2.593994140625
11.9899999,9.47146224975586,1.1899182796478271,2.6168625354766846,-1.89208984375,2.1209716796875,-4.8065185546875
12.0099999,9.452308654785156,1.2306196689605713,2.6024973392486572,-1.1138916015625,1.1444091796875,-3.021240234375
12.0299999,9.418789863586426,1.3072341680526733,2.6001031398773193,-0.0762939453125,0.396728515625,-0.396728515625
12.049999900000001,9.368511199951172,1.3910311460494995,2.58813214302063,-0.3814697265625,0.5645751953125,-0.5035400390625
12.069999900000001,9.30386734008789,1.4508862495422363,2.5330653190612793,0,-1.7852783203125,-1.9683837890625
12.0899999,9.244012832641602,1.4700398445129395,2.5258827209472656,-1.28173828125,1.861572265625,-0.9002685546875
12.1099999,9.17936897277832,1.5203180313110352,2.4851813316345215,-0.701904296875,1.4190673828125,-1.373291015625
12.129999900000001,9.138668060302734,1.5849615335464478,2.4660277366638184,-0.2899169921875,-0.396728515625,-0.091552734375
12.149999900000001,9.126696586608887,1.6424223184585571,2.494758129119873,-3.3416748046875,1.5716552734375,4.8065185546875
12.1699999,9.165003776550293,1.6639702320098877,2.497152328491211,-4.5013427734375,-1.434326171875,7.4462890625
12.1899999,9.251194953918457,1.580173134803772,2.4827871322631836,-4.82177734375,-5.31005859375,7.965087890625
12.209999900000001,9.368511199951172,1.403002142906189,2.4636335372924805,-6.072998046875,-1.312255859375,5.7830810546875
12.229999900000001,9.493009567260742,1.1659762859344482,2.4133553504943848,-3.2196044921875,1.2664794921875,4.0130615234375
12.2499999,9.593565940856934,0.9409212470054626,2.3965959548950195,-1.5869140625,2.593994140625,1.739501953125
12.2699999,9.648633003234863,0.7852981686592102,2.403778553009033,1.1138916015625,2.4871826171875,-0.579833984375
12.289999900000002,9.653421401977539,0.7254431247711182,2.454056739807129,2.3956298828125,4.5166015625,-2.4871826171875
12.309999900000001,9.59835433959961,0.7948749661445618,2.4827871322631836,1.6021728515625,3.509521484375,-4.425048828125
12.3299999,9.50737476348877,0.9720458984375,2.494758129119873,1.3427734375,2.25830078125,-3.265380859375
12.3499999,9.402029991149902,1.2042834758758545,2.494758129119873,-1.2664794921875,4.3792724609375,-0.2288818359375
12.3699999,9.313444137573242,1.403002142906189,2.470816135406494,-3.0059814453125,3.173828125,3.814697265625
12.389999900000001,9.255983352661133,1.5107412338256836,2.5019407272338867,-3.0059814453125,4.852294921875,3.509521484375
12.4099999,9.244012832641602,1.5155296325683594,2.537853717803955,-1.1749267578125,2.9449462890625,2.5482177734375
12.4299999,9.258378028869629,1.4724340438842773,2.612074136734009,-0.9002685546875,1.9989013671875,2.0599365234375
12.4499999,9.299078941345215,1.3934253454208374,2.6599581241607666,-1.8157958984375,0.396728515625,4.913330078125
12.469999900000001,9.35654067993164,1.290474772453308,2.6575639247894287,-1.617431640625,-1.6937255859375,7.171630859375
12.4899999,9.421183586120605,1.1635819673538208,2.631227731704712,-1.9683837890625,0.274658203125,4.8065185546875
12.5099999,9.48343276977539,1.0055646896362305,2.5689783096313477,-3.021240234375,1.220703125,2.86865234375
12.5299999,9.521739959716797,0.8882488012313843,2.5115175247192383,-1.3427734375,0.1373291015625,1.190185546875
12.549999900000001,9.53849983215332,0.8140285611152649,2.492363929748535,-0.6103515625,2.777099609375,1.46484375
12.569999900000001,9.531316757202148,0.790086567401886,2.4396915435791016,1.220703125,1.0833740234375,1.52587890625
12.5899999,9.516951560974121,0.7924807667732239,2.470816135406494,-1.373291015625,4.7760009765625,0.030517578125
12.6099999,9.490615844726562,0.8307880163192749,2.456450939178467,-0.640869140625,2.8228759765625,-1.861572265625
12.629999900000001,9.459490776062012,0.9074024558067322,2.5091233253479004,-0.946044921875,2.3345947265625,-2.13623046875
12.649999900000001,9.423578262329102,1.015141487121582,2.5689783096313477,-2.471923828125,3.2806396484375,0.1220703125
12.6699999,9.387664794921875,1.1300631761550903,2.6455929279327393,-1.953125,1.64794921875,1.1444091796875
12.6899999,9.366117477416992,1.2018892765045166,2.676717519760132,-0.030517578125,-1.3275146484375,2.227783203125
12.709999900000001,9.351752281188965,1.2521674633026123,2.6815059185028076,0.67138671875,-0.79345703125,1.007080078125
12.729999900000001,9.351752281188965,1.2497732639312744,2.6431987285614014,-1.861572265625,1.8157958984375,1.5869140625
12.7499999,9.354146003723145,1.2282254695892334,2.5953147411346436,-1.7547607421875,1.495361328125,3.448486328125
12.7699999,9.35893440246582,1.1779472827911377,2.5713725090026855,-0.0152587890625,0.54931640625,3.265380859375
12.789999900000002,9.361329078674316,1.1540051698684692,2.5737667083740234,0.335693359375,-0.5035400390625,1.495361328125
12.809999900000001,9.366117477416992,1.0965443849563599,2.5689783096313477,-1.1749267578125,-0.42724609375,3.509521484375
12.8299999,9.370905876159668,1.0582371950149536,2.5282769203186035,-1.0833740234375,-1.3885498046875,4.8370361328125
12.8499999,9.390059471130371,1.0055646896362305,2.47560453414917,-1.2359619140625,0.213623046875,2.9754638671875
12.8699999,9.421183586120605,0.9193734526634216,2.4396915435791016,-2.6702880859375,2.9449462890625,2.0751953125
12.889999900000001,9.44752025604248,0.8619126081466675,2.408566951751709,-0.7476806640625,1.8310546875,0.091552734375
12.9099999,9.466673851013184,0.8331822156906128,2.4205379486083984,-0.3662109375,1.77001953125,-0.030517578125
12.9299999,9.461885452270508,0.8427590131759644,2.432508945465088,-0.48828125,2.6092529296875,0.8392333984375
12.9499999,9.433155059814453,0.8906430602073669,2.434903144836426,-0.1983642578125,2.7923583984375,0.8544921875
12.969999900000001,9.397241592407227,0.9289502501487732,2.473210334777832,-1.6021728515625,4.8370361328125,0.7171630859375
12.9899999,9.342175483703613,1.01753568649292,2.4636335372924805,-0.274658203125,1.77001953125,-0.9002685546875
13.0099999,9.299078941345215,1.1180921792984009,2.542642116546631,-2.0751953125,3.9825439453125,0.30517578125
13.0299999,9.27034854888916,1.2114660739898682,2.6240451335906982,-4.119873046875,4.1351318359375,5.0506591796875
13.049999900000001,9.263166427612305,1.2689268589019775,2.6862943172454834,-0.30517578125,-2.655029296875,6.28662109375
13.069999900000001,9.279925346374512,1.2952631711959839,2.7724854946136475,-2.7008056640625,-1.2054443359375,4.2724609375
13.0899999,9.308655738830566,1.2401964664459229,2.7676970958709717,-5.0201416015625,-2.6397705078125,7.1563720703125
13.1099999,9.346963882446289,1.1563993692398071,2.7222073078155518,-5.828857421875,-4.1351318359375,10.1318359375
13.129999900000001,9.385271072387695,1.05105459690094,2.6599581241607666,-9.70458984375,-4.4708251953125,7.965087890625
13.149999900000001,9.442731857299805,0.8930372595787048,2.5761611461639404,-10.6964111328125,-5.523681640625,7.9193115234375
13.1699999,9.497797966003418,0.7541735172271729,2.5091233253479004,-8.11767578125,-3.265380859375,6.866455078125
13.1899999,9.5624418258667,0.6105214357376099,2.4851813316345215,-5.3253173828125,0.2593994140625,5.8441162109375
13.209999900000001,9.610325813293457,0.507570743560791,2.497152328491211,-3.7384033203125,-0.213623046875,4.3182373046875
13.229999900000001,9.646238327026367,0.42616790533065796,2.537853717803955,-2.655029296875,-2.2735595703125,2.5482177734375
13.2499999,9.651026725769043,0.38067805767059326,2.604891538619995,-2.166748046875,-0.762939453125,1.312255859375
13.2699999,9.622296333312988,0.3974374830722809,2.6144683361053467,2.3956298828125,-0.8544921875,-0.67138671875
13.289999900000002,9.569623947143555,0.45010992884635925,2.564189910888672,2.9144287109375,-1.6326904296875,-0.5645751953125
13.309999900000001,9.495404243469238,0.5506663918495178,2.47560453414917,-1.3275146484375,0.8544921875,-0.152587890625
13.3299999,9.425971984863281,0.6584054827690125,2.389413356781006,-2.8228759765625,3.2958984375,-0.0762939453125
13.3499999,9.35654067993164,0.7805097699165344,2.33913516998291,-0.9765625,2.349853515625,-0.1068115234375
13.3699999,9.313444137573242,0.8738836050033569,2.367865562438965,-1.77001953125,1.068115234375,1.7242431640625
13.389999900000001,9.284713745117188,0.9528923034667969,2.4133553504943848,-1.922607421875,-0.030517578125,3.72314453125
13.4099999,9.282320022583008,0.9840168952941895,2.451662540435791,-1.46484375,-1.007080078125,5.096435546875
13.4299999,9.299078941345215,0.933738648891449,2.454056739807129,-3.4637451171875,-1.46484375,6.65283203125
13.4499999,9.332598686218262,0.8427590131759644,2.4157495498657227,-4.08935546875,-1.5106201171875,5.1422119140625
13.469999900000001,9.387664794921875,0.6991068720817566,2.389413356781006,-2.349853515625,2.410888671875,4.1046142578125
13.4899999,9.440337181091309,0.5889736413955688,2.3558945655822754,-0.091552734375,2.3956298828125,2.6092529296875
13.5099999,9.495404243469238,0.49559974670410156,2.367865562438965,-0.5950927734375,2.13623046875,3.3416748046875
13.5299999,9.543288230895996,0.42377370595932007,2.3918075561523438,-0.457763671875,2.6702880859375,3.9520263671875
13.549999900000001,9.567230224609375,0.40222588181495667,2.4396915435791016,-1.434326171875,2.960205078125,0.48828125
13.569999900000001,9.583989143371582,0.38307225704193115,2.4875755310058594,0.701904296875,3.0059814453125,0.5340576171875
13.5899999,9.576807022094727,0.40701428055763245,2.5282769203186035,2.044677734375,2.4566650390625,1.495361328125
13.6099999,9.555258750915527,0.45250412821769714,2.535459518432617,1.5716552734375,2.0751953125,1.2664794921875
13.629999900000001,9.528923034667969,0.49320554733276367,2.535459518432617,-0.152587890625,3.72314453125,1.4190673828125
13.649999900000001,9.50498104095459,0.5219359993934631,2.518700122833252,-0.0762939453125,3.814697265625,0.946044921875
13.6699999,9.485827445983887,0.5315127968788147,2.52109432220459,1.15966796875,3.23486328125,0.213623046875
13.6899999,9.47146224975586,0.5530605912208557,2.5450363159179688,0.5950927734375,3.6468505859375,-0.4730224609375
13.709999900000001,9.459490776062012,0.5746083855628967,2.5785553455352783,1.6021728515625,3.3721923828125,0.1068115234375
13.729999900000001,9.44752025604248,0.6200982332229614,2.6192567348480225,1.6937255859375,2.50244140625,1.2054443359375
13.7499999,9.440337181091309,0.6560112833976746,2.631227731704712,1.6632080078125,0.335693359375,2.1820068359375
13.7699999,9.440337181091309,0.6631938815116882,2.63362193107605,0.5340576171875,0.7171630859375,3.1280517578125
13.789999900000002,9.44752025604248,0.6368576288223267,2.607285737991333,-0.701904296875,1.8768310546875,2.685546875
13.809999900000001,9.464279174804688,0.5817909836769104,2.5498247146606445,0.8087158203125,0.518798828125,1.373291015625
13.8299999,9.478644371032715,0.5339069962501526,2.5450363159179688,-0.8697509765625,3.326416015625,0.6561279296875
13.8499999,9.495404243469238,0.4908113479614258,2.535459518432617,-0.396728515625,2.7618408203125,1.52587890625
13.8699999,9.497797966003418,0.47405192255973816,2.5282769203186035,1.5106201171875,-0.18310546875,1.40380859375
13.889999900000001,9.493009567260742,0.47165772318840027,2.52109432220459,0.9918212890625,1.2054443359375,0.7476806640625
13.9099999,9.473855972290039,0.47644615173339844,2.4899697303771973,0.1678466796875,3.4332275390625,0.7171630859375
13.9299999,9.440337181091309,0.4908113479614258,2.4612393379211426,0.457763671875,3.8604736328125,1.40380859375
13.9499999,9.411606788635254,0.49320554733276367,2.470816135406494,0.5340576171875,3.173828125,1.2969970703125
13.969999900000001,9.385271072387695,0.4884171485900879,2.4899697303771973,1.678466796875,2.166748046875,0.7171630859375
13.9899999,9.354146003723145,0.5003881454467773,2.5282769203186035,3.570556640625,3.2806396484375,-0.396728515625
14.0099999,9.32302188873291,0.524330198764801,2.513911724090576,4.39453125,2.9144287109375,0.823974609375
14.0299999,9.287108421325684,0.5770025849342346,2.470816135406494,3.0517578125,1.800537109375,2.86865234375
14.049999900000001,9.277531623840332,0.5913678407669067,2.4229321479797363,-0.335693359375,4.08935546875,4.6844482421875
14.069999900000001,9.284713745117188,0.5793967843055725,2.343923568725586,1.4801025390625,2.99072265625,3.509521484375
14.0899999,9.375694274902344,0.4189853072166443,2.3726539611816406,1.373291015625,7.1258544921875,1.6632080078125
14.1099999,9.423578262329102,0.3423708379268646,2.4899697303771973,2.6092529296875,6.500244140625,0.79345703125
14.129999900000001,9.442731857299805,0.31124621629714966,2.612074136734009,5.035400390625,4.1961669921875,-0.579833984375
14.149999900000001,9.440337181091309,0.33279404044151306,2.786850690841675,4.425048828125,5.279541015625,-0.5340576171875
14.1699999,9.41639518737793,0.40701428055763245,2.9017724990844727,4.669189453125,3.72314453125,1.46484375
14.1899999,9.39245319366455,0.5099649429321289,2.959233283996582,7.9193115234375,0.54931640625,2.4871826171875
14.209999900000001,9.373299598693848,0.6153098344802856,2.9712042808532715,5.340576171875,1.1444091796875,3.173828125
14.229999900000001,9.361329078674316,0.6799532771110535,2.9089550971984863,2.1820068359375,0.6103515625,4.69970703125
14.2499999,9.366117477416992,0.6847416758537292,2.8610711097717285,2.8839111328125,1.861572265625,6.3323974609375
14.2699999,9.361329078674316,0.6607996821403503,2.8586769104003906,4.57763671875,2.38037109375,4.7760009765625
14.289999900000002,9.351752281188965,0.5985504388809204,2.913743495941162,6.3629150390625,-0.9002685546875,4.791259765625
14.309999900000001,9.318233489990234,0.5650315880775452,3.0119056701660156,7.9345703125,-1.3885498046875,5.9661865234375
14.3299999,9.265560150146484,0.5985504388809204,3.0885202884674072,12.6800537109375,-4.39453125,6.65283203125
14.3499999,9.227252960205078,0.6440402865409851,3.1052796840667725,13.1378173828125,-6.6070556640625,11.23046875
14.3699999,9.215282440185547,0.667982280254364,3.0358476638793945,14.7705078125,-8.453369140625,14.5263671875
14.389999900000001,9.263166427612305,0.629675030708313,2.87064790725708,13.4735107421875,-6.1798095703125,12.8173828125
14.4099999,9.337387084960938,0.5530605912208557,2.698265314102173,9.5062255859375,-2.6397705078125,9.46044921875
14.4299999,9.430760383605957,0.44532153010368347,2.537853717803955,9.613037109375,-2.716064453125,11.3677978515625
14.4499999,9.502586364746094,0.363918662071228,2.4827871322631836,9.2315673828125,-3.4027099609375,12.359619140625
14.469999900000001,9.53849983215332,0.26815059781074524,2.499546527862549,10.0860595703125,-4.974365234375,11.688232421875
14.4899999,9.557653427124023,0.1173158809542656,2.557007312774658,12.847900390625,-4.5166015625,10.7269287109375
14.5099999,9.5408935546875,0.009576806798577309,2.5953147411346436,15.045166015625,-3.4027099609375,5.5389404296875
14.5299999,9.50737476348877,-0.05985504388809204,2.5306711196899414,16.3421630859375,-4.180908203125,3.7384033203125
14.549999900000001,9.454702377319336,-0.026336219161748886,2.3774423599243164,15.2130126953125,-2.99072265625,6.3323974609375
14.569999900000001,9.394847869873047,0.06224924325942993,2.1571757793426514,11.5966796875,0.9918212890625,7.9803466796875
14.5899999,9.351752281188965,0.12449848651885986,1.9488801956176758,9.1705322265625,3.2958984375,9.1094970703125
14.6099999,9.313444137573242,0.15801730751991272,1.8267759084701538,6.8359375,4.7760009765625,6.6070556640625
14.629999900000001,9.308655738830566,0.10534487664699554,1.821987509727478,5.4168701171875,5.0201416015625,8.3465576171875
14.649999900000001,9.306262016296387,0.019153613597154617,1.8411411046981812,6.134033203125,1.7242431640625,8.7432861328125
14.6699999,9.308655738830566,-0.07661445438861847,1.900996208190918,4.5623779296875,4.2266845703125,6.500244140625
14.6899999,9.311050415039062,-0.1843535304069519,1.9057846069335938,3.326416015625,6.7291259765625,5.37109375
14.709999900000001,9.30386734008789,-0.2585737705230713,1.9177556037902832,3.814697265625,9.3536376953125,4.8828125
14.729999900000001,9.306262016296387,-0.31124621629714966,1.9393033981323242,5.035400390625,11.260986328125,4.57763671875
14.7499999,9.301473617553711,-0.3256114423274994,1.9488801956176758,6.103515625,9.9029541015625,2.3956298828125
14.7699999,9.296685218811035,-0.3256114423274994,1.968033790588379,5.1422119140625,12.176513671875,2.5634765625
14.789999900000002,9.299078941345215,-0.33279404044151306,1.9847931861877441,4.57763671875,16.90673828125,2.044677734375
14.809999900000001,9.277531623840332,-0.31364041566848755,2.0422539710998535,4.21142578125,18.2342529296875,-0.518798828125
14.8299999,9.255983352661133,-0.3280056416988373,2.1715409755706787,4.2266845703125,19.073486328125,-0.946044921875
14.8499999,9.217676162719727,-0.29209262132644653,2.3367409706115723,6.256103515625,18.280029296875,-2.7313232421875
14.8699999,9.155426979064941,-0.17717093229293823,2.5450363159179688,5.79833984375,18.9666748046875,-4.39453125
14.889999900000001,9.090784072875977,-0.05985504388809204,2.7461493015289307,4.2572021484375,18.12744140625,0.7781982421875
14.9099999,9.028534889221191,0.08858546614646912,2.9041666984558105,7.01904296875,15.411376953125,2.9754638671875
14.9299999,8.980650901794434,0.16998831927776337,3.047818660736084,7.6446533203125,16.6015625,1.007080078125
14.9499999,8.939949035644531,0.2082955539226532,3.0885202884674072,11.8408203125,15.7318115234375,0.2288818359375
14.969999900000001,8.899248123168945,0.2825157940387726,3.114856481552124,10.7574462890625,17.6239013671875,-0.0762939453125
14.9899999,8.853757858276367,0.38067805767059326,3.0861260890960693,7.38525390625,14.7705078125,5.43212890625
15.0099999,8.81784439086914,0.4405331015586853,3.071760892868042,3.997802734375,11.90185546875,12.3443603515625
15.0299999,8.796297073364258,0.4596867263317108,3.0310592651367188,3.3111572265625,11.2762451171875,11.8560791015625
15.049999900000001,8.803479194641113,0.33997663855552673,2.9759926795959473,4.5623779296875,11.1083984375,10.955810546875
15.069999900000001,8.829815864562988,0.11252748221158981,2.9520506858825684,4.82177734375,17.5933837890625,12.5274658203125
15.0899999,8.834604263305664,-0.1364694982767105,2.911349296569824,12.1612548828125,17.9443359375,8.1024169921875
15.1099999,8.822632789611816,-0.35434186458587646,2.8850131034851074,20.294189453125,20.660400390625,1.8463134765625
15.129999900000001,8.774748802185059,-0.40940847992897034,2.827552318572998,24.2156982421875,26.123046875,-1.678466796875
15.149999900000001,8.676587104797363,-0.3064578175544739,2.7988216876983643,16.937255859375,30.21240234375,0.8087158203125
15.1699999,8.578424453735352,-0.1149216815829277,2.779668092727661,15.0909423828125,28.594970703125,7.171630859375
15.1899999,8.49941635131836,0.10534487664699554,2.7772738933563232,20.0958251953125,28.106689453125,5.8441162109375
15.209999900000001,8.458714485168457,0.27054479718208313,2.765302896499634,19.287109375,31.890869140625,3.3721923828125
15.229999900000001,8.470685958862305,0.3734954595565796,2.7054479122161865,11.260986328125,36.712646484375,6.927490234375
15.2499999,8.544905662536621,0.35434186458587646,2.631227731704712,5.4168701171875,40.3289794921875,12.0086669921875
15.2699999,8.611943244934082,0.3016694188117981,2.6455929279327393,1.617431640625,45.166015625,6.77490234375
15.289999900000002,8.700529098510742,0.09576806426048279,2.7772738933563232,0.518798828125,49.6978759765625,4.94384765625
15.309999900000001,8.762778282165527,-0.07900865375995636,3.0166940689086914,2.227783203125,52.79541015625,2.6092529296875
15.3299999,8.75080680847168,-0.16519992053508759,3.4596214294433594,-4.6539306640625,59.1583251953125,-1.4495849609375
15.3499999,8.664615631103516,-0.2106897532939911,3.995922565460205,-4.4708251953125,57.80029296875,3.5247802734375
15.3699999,8.497021675109863,-0.22744916379451752,4.577713489532471,4.3487548828125,51.26953125,6.378173828125
15.389999900000001,8.269572257995605,-0.2585737705230713,5.008669853210449,16.5557861328125,49.8046875,0.67138671875
15.4099999,8.022970199584961,-0.27054479718208313,5.178658485412598,25.4669189453125,56.793212890625,-6.89697265625
15.4299999,7.785943984985352,-0.21547815203666687,5.1116204261779785,31.6009521484375,65.9637451171875,-6.34765625
15.4499999,7.553706169128418,-0.011971008032560349,4.920084476470947,26.2603759765625,66.558837890625,-3.6468505859375
15.469999900000001,7.3238630294799805,0.2513911724090576,4.836287498474121,13.336181640625,63.629150390625,0.885009765625
15.4899999,7.12035608291626,0.4596867263317108,4.853046894073486,7.3089599609375,58.6090087890625,5.5999755859375
15.5099999,6.988674640655518,0.5674257874488831,4.908113479614258,19.1497802734375,56.732177734375,7.293701171875
15.5299999,6.876147270202637,0.6823474764823914,5.037400245666504,12.2833251953125,63.2171630859375,1.64794921875
15.549999900000001,6.861782073974609,0.6344634294509888,5.137956619262695,8.8958740234375,65.97900390625,12.725830078125
15.569999900000001,6.890512466430664,0.5530605912208557,5.3797712326049805,14.3280029296875,72.052001953125,17.9595947265625
15.5899999,6.976703643798828,0.3663128614425659,5.724536418914795,15.655517578125,73.73046875,8.8653564453125
15.6099999,7.046135425567627,0.14365209639072418,6.174646377563477,9.979248046875,68.3441162109375,0.2899169921875
15.629999900000001,7.094019412994385,-0.0694318488240242,6.722918510437012,2.5787353515625,73.6541748046875,2.3040771484375
15.649999900000001,7.048529624938965,-0.1604115068912506,7.29034423828125,3.0364990234375,74.27978515625,2.1209716796875
15.6699999,6.9240312576293945,-0.1388636976480484,7.795520782470703,6.0272216796875,63.1561279296875,-3.5247802734375
15.6899999,6.737283706665039,-0.009576806798577309,8.288725852966309,-0.79345703125,61.9964599609375,-4.119873046875
15.709999900000001,6.524199485778809,0.17717093229293823,8.678980827331543,-7.598876953125,62.56103515625,2.0904541015625
15.729999900000001,6.327875137329102,0.2992752194404602,9.066842079162598,-1.46484375,59.7381591796875,9.3841552734375
15.7499999,6.186617374420166,0.31124621629714966,9.385271072387695,2.74658203125,49.3927001953125,3.7994384765625
15.7699999,6.0836663246154785,0.23942017555236816,9.63187313079834,5.4473876953125,40.985107421875,-3.3416748046875
15.789999900000002,6.0190229415893555,0.15322890877723694,9.765948295593262,0.3662109375,42.29736328125,-1.983642578125
15.809999900000001,5.9519853591918945,0.1364694982767105,9.749189376831055,2.3956298828125,36.9720458984375,3.8604736328125
15.8299999,5.875370979309082,0.15562310814857483,9.658209800720215,3.082275390625,31.402587890625,5.3863525390625
15.8499999,5.781997203826904,0.16998831927776337,9.526528358459473,1.5716552734375,29.9224853515625,2.3040771484375
15.869999900000002,5.686229228973389,0.17717093229293823,9.375694274902344,0.7171630859375,29.9224853515625,1.953125
15.889999900000001,5.578489780426025,0.20111294090747833,9.2033109664917,2.3345947265625,25.634765625,3.997802734375
15.9099999,5.446808815002441,0.24899697303771973,9.081207275390625,-0.946044921875,24.4903564453125,4.8370361328125
15.9299999,5.319916248321533,0.2992752194404602,8.956708908081055,-3.9520263671875,23.0865478515625,6.0272216796875
15.9499999,5.195417881011963,0.31603461503982544,8.834604263305664,-2.7008056640625,20.7061767578125,7.62939453125
15.969999900000001,5.085284233093262,0.26096799969673157,8.7484130859375,-2.1820068359375,22.9949951171875,9.33837890625
15.9899999,4.98472785949707,0.1628057211637497,8.655038833618164,-4.5318603515625,22.52197265625,6.1798095703125
16.0099999,4.888959884643555,0.05746084079146385,8.549694061279297,-0.823974609375,20.3094482421875,2.960205078125
16.0299999,4.809951305389404,0.023942016065120697,8.437167167663574,-2.0294189453125,23.1781005859375,2.593994140625
16.0499999,4.72376012802124,0.043095629662275314,8.31985092163086,-5.523681640625,25.3448486328125,5.523681640625
16.0699999,4.671087741851807,0.0454898327589035,8.276755332946777,-7.9803466796875,29.72412109375,9.2620849609375
16.089999900000002,4.616020679473877,0.0454898327589035,8.29830265045166,-7.26318359375,27.5726318359375,3.7384033203125
16.109999900000002,4.570530891418457,0.014365210197865963,8.394071578979492,-5.8441162109375,26.458740234375,-0.5035400390625
16.1299999,4.522646903991699,0.028730420395731926,8.53293514251709,-7.2021484375,29.3731689453125,2.2735595703125
16.1499999,4.462791919708252,0.06703764945268631,8.638279914855957,-8.2855224609375,27.6947021484375,6.317138671875
16.1699999,4.412513732910156,0.08619125932455063,8.741230010986328,-6.1492919921875,27.9693603515625,7.38525390625
16.1899999,4.367023944854736,0.07900865375995636,8.793902397155762,-6.0882568359375,28.6407470703125,3.8909912109375
16.2099999,4.314351558685303,0.07422025501728058,8.83939266204834,-9.94873046875,28.6102294921875,3.143310546875
16.2299999,4.278438568115234,0.016759412363171577,8.942343711853027,-16.0064697265625,31.8603515625,8.697509765625
16.249999900000002,4.235342979431152,-0.06703764945268631,9.10993766784668,-12.0697021484375,30.2734375,9.6893310546875
16.269999900000002,4.201824188232422,-0.2082955539226532,9.277531623840332,-5.1727294921875,23.040771484375,2.8228759765625
16.2899999,4.14915132522583,-0.36152446269989014,9.464279174804688,-5.55419921875,25.57373046875,-0.946044921875
16.3099999,4.079719543457031,-0.45010992884635925,9.57201862335205,-10.3759765625,27.28271484375,-0.213623046875
16.3299999,3.995922565460205,-0.47405192255973816,9.624691009521484,-4.7760009765625,24.0631103515625,2.960205078125
16.3499999,3.9049429893493652,-0.4620809257030487,9.68933391571045,-4.57763671875,23.49853515625,1.8310546875
16.3699999,3.823540210723877,-0.4668693244457245,9.703699111938477,-5.5999755859375,20.233154296875,0.1983642578125
16.3899999,3.7469255924224854,-0.4692635238170624,9.68694019317627,-2.99072265625,19.927978515625,-0.18310546875
16.4099999,3.6583402156829834,-0.4572925269603729,9.655815124511719,-4.4097900390625,22.125244140625,0.152587890625
16.429999900000002,3.5721490383148193,-0.4405331015586853,9.586383819580078,-3.8909912109375,19.5159912109375,2.1820068359375
16.4499999,3.4811692237854004,-0.40701428055763245,9.555258750915527,-4.913330078125,18.06640625,2.4261474609375
16.4699999,3.406949043273926,-0.40462008118629456,9.512163162231445,-4.6844482421875,17.120361328125,2.4566650390625
16.4899999,3.3470940589904785,-0.4213795065879822,9.488221168518066,-3.509521484375,17.578125,3.173828125
16.5099999,3.2968156337738037,-0.42616790533065796,9.454702377319336,-4.302978515625,17.7459716796875,1.3885498046875
16.5299999,3.246537446975708,-0.45010992884635925,9.478644371032715,-7.3089599609375,18.1732177734375,1.89208984375
16.5499999,3.203441858291626,-0.47405192255973816,9.48343276977539,-6.3934326171875,15.56396484375,4.302978515625
16.5699999,3.157952070236206,-0.49320554733276367,9.502586364746094,-5.1116943359375,13.8397216796875,2.4566650390625
16.589999900000002,3.114856481552124,-0.5339069962501526,9.53849983215332,-8.1024169921875,16.4794921875,1.5106201171875
16.609999900000002,3.0813376903533936,-0.5841852426528931,9.516951560974121,-6.3934326171875,13.580322265625,2.655029296875
16.6299999,3.043030261993408,-0.6177040338516235,9.545681953430176,-5.645751953125,14.16015625,1.5106201171875
16.6499999,3.004723072052002,-0.6320692300796509,9.536105155944824,-5.9661865234375,13.5650634765625,0.7171630859375
16.6699999,2.9496564865112305,-0.6057330369949341,9.526528358459473,-5.4473876953125,12.1307373046875,1.4495849609375
16.6899999,2.9041666984558105,-0.5841852426528931,9.53849983215332,-8.7890625,15.0146484375,4.2724609375
16.7099999,2.853888511657715,-0.5530605912208557,9.514557838439941,-7.080078125,12.2222900390625,4.33349609375
16.7299999,2.8107926845550537,-0.5674257874488831,9.524134635925293,-8.2855224609375,11.77978515625,3.4332275390625
16.749999900000002,2.765302896499634,-0.6009446382522583,9.533711433410645,-9.1094970703125,13.031005859375,2.50244140625
16.769999900000002,2.717418909072876,-0.6607996821403503,9.53849983215332,-4.6234130859375,12.39013671875,3.570556640625
16.7899999,2.652775526046753,-0.6943184733390808,9.5408935546875,-4.425048828125,11.199951171875,1.8157958984375
16.8099999,2.58813214302063,-0.7206547260284424,9.545681953430176,-3.11279296875,12.3443603515625,2.349853515625
16.8299999,2.52109432220459,-0.7254431247711182,9.514557838439941,-0.457763671875,11.8408203125,4.45556640625
16.8499999,2.4636335372924805,-0.730231523513794,9.461885452270508,1.068115234375,11.6424560546875,4.608154296875
16.8699999,2.4157495498657227,-0.7398083209991455,9.38048267364502,2.5634765625,13.7176513671875,4.3487548828125
16.8899999,2.387019157409668,-0.7805097699165344,9.289502143859863,-0.0762939453125,14.6026611328125,3.9520263671875
16.9099999,2.3558945655822754,-0.8068459630012512,9.191340446472168,-1.40380859375,14.5721435546875,2.7313232421875
16.929999900000002,2.33913516998291,-0.8690952062606812,9.126696586608887,-0.7781982421875,16.3726806640625,2.716064453125
16.9499999,2.319981336593628,-0.9289502501487732,9.083600997924805,-1.2359619140625,18.341064453125,1.4801025390625
16.9699999,2.298433542251587,-0.993593692779541,9.081207275390625,-2.8228759765625,18.890380859375,-1.312255859375
16.9899999,2.27209734916687,-1.0582371950149536,9.105149269104004,-3.0364990234375,19.5465087890625,-2.3956298828125
17.0099999,2.233790159225464,-1.0821791887283325,9.155426979064941,-4.4403076171875,20.111083984375,-4.3182373046875
17.0299999,2.1930887699127197,-1.094150185585022,9.208099365234375,-5.584716796875,20.69091796875,-4.0740966796875
17.0499999,2.140416383743286,-1.0438719987869263,9.299078941345215,-6.77490234375,21.3470458984375,-4.8828125
17.0699999,2.094926595687866,-1.0079588890075684,9.41400146484375,1.708984375,23.468017578125,-1.007080078125
17.089999900000002,2.030282974243164,-0.9241618514060974,9.583989143371582,-0.7781982421875,21.209716796875,-0.0457763671875
17.109999900000002,1.9847931861877441,-0.9074024558067322,9.80904483795166,-6.439208984375,19.4091796875,2.166748046875
17.1299999,1.9249382019042969,-0.8834604024887085,10.014945983886719,-2.777099609375,15.9759521484375,1.0528564453125
17.1499999,1.8698714971542358,-0.8954314589500427,10.170568466186523,2.0294189453125,14.862060546875,0.3509521484375
17.1699999,1.802833914756775,-0.8882488012313843,10.24239444732666,-0.3509521484375,15.167236328125,0.2288818359375
17.1899999,1.7477672100067139,-0.9026140570640564,10.256759643554688,-1.0528564453125,14.892578125,2.1820068359375
17.2099999,1.6735470294952393,-0.8547300100326538,10.180145263671875,2.593994140625,11.962890625,0.7476806640625
17.2299999,1.6112977266311646,-0.828393816947937,10.098742485046387,4.08935546875,11.7340087890625,1.28173828125
17.249999900000002,1.5442601442337036,-0.7637503147125244,9.976638793945312,2.349853515625,13.2598876953125,4.547119140625
17.269999900000002,1.4867992401123047,-0.6991068720817566,9.84256362915039,1.8310546875,12.4664306640625,5.8135986328125
17.2899999,1.4460978507995605,-0.6655880808830261,9.727641105651855,3.11279296875,14.2364501953125,7.4615478515625
17.3099999,1.4197616577148438,-0.6967126727104187,9.66299819946289,1.5411376953125,16.326904296875,7.38525390625
17.3299999,1.414973258972168,-0.790086567401886,9.610325813293457,0.6256103515625,14.7552490234375,5.7830810546875
17.3499999,1.41257905960083,-0.9026140570640564,9.591172218322754,-1.251220703125,13.3819580078125,0.885009765625
17.3699999,1.4053963422775269,-1.0247182846069336,9.627084732055664,-4.2266845703125,18.768310546875,-0.30517578125
17.3899999,1.3838485479354858,-1.115697979927063,9.643844604492188,0.0762939453125,17.1966552734375,-0.4425048828125
17.409999900000003,1.3407529592514038,-1.1540051698684692,9.703699111938477,0.5645751953125,15.7012939453125,-3.4637451171875
17.429999900000002,1.290474772453308,-1.1971008777618408,9.787496566772461,-3.0364990234375,17.2882080078125,-4.425048828125
17.4499999,1.2282254695892334,-1.2018892765045166,9.852140426635742,-0.7781982421875,15.2740478515625,-5.7525634765625
17.4699999,1.1492167711257935,-1.1540051698684692,9.907206535339355,2.6397705078125,12.8631591796875,-7.843017578125
17.4899999,1.0582371950149536,-1.0845733880996704,9.943120002746582,1.9073486328125,13.7939453125,-6.1798095703125
17.5099999,0.950498104095459,-0.9648633003234863,9.943120002746582,0.7781982421875,14.16015625,-3.7841796875
17.5299999,0.8547300100326538,-0.8595184087753296,9.928754806518555,1.9683837890625,13.9312744140625,-1.7547607421875
17.5499999,0.7781155705451965,-0.7852981686592102,9.931148529052734,2.960205078125,13.3819580078125,-1.190185546875
17.5699999,0.7326257228851318,-0.768538773059845,9.945513725280762,1.556396484375,12.664794921875,-0.9613037109375
17.589999900000002,0.7038952708244324,-0.7805097699165344,9.967061996459961,0.7781982421875,11.2457275390625,-1.6021728515625
17.609999900000002,0.6871358752250671,-0.8164227604866028,9.99339771270752,1.5869140625,10.589599609375,-1.40380859375
17.6299999,0.6607996821403503,-0.8140285611152649,9.974244117736816,2.5177001953125,8.3770751953125,-1.8768310546875
17.6499999,0.6200982332229614,-0.7565677165985107,9.919178009033203,-2.838134765625,6.134033203125,-1.2969970703125
17.6699999,0.5937620401382446,-0.7182605266571045,9.911994934082031,-10.1318359375,9.857177734375,4.669189453125
17.6899999,0.5650315880775452,-0.7038952708244324,9.897629737854004,-3.35693359375,6.8359375,5.706787109375
17.7099999,0.5770025849342346,-0.7661445140838623,9.959878921508789,4.6844482421875,4.94384765625,2.3040771484375
17.7299999,0.5913678407669067,-0.8547300100326538,10.005369186401367,4.4403076171875,4.82177734375,-0.5950927734375
17.749999900000002,0.6057330369949341,-0.9193734526634216,9.986215591430664,4.791259765625,3.4332275390625,0
17.769999900000002,0.6129156351089478,-0.933738648891449,9.93593692779541,-0.0152587890625,5.31005859375,1.708984375
17.7899999,0.6057330369949341,-0.9241618514060974,9.854534149169922,-1.434326171875,4.8065185546875,1.8157958984375
17.8099999,0.6057330369949341,-0.9145850539207458,9.792284965515137,0.9307861328125,4.0283203125,0.244140625
17.8299999,0.5985504388809204,-0.9265560507774353,9.761159896850586,0.457763671875,4.94384765625,-0.244140625
17.8499999,0.5913678407669067,-0.9169792532920837,9.727641105651855,3.7994384765625,4.39453125,-3.509521484375
17.8699999,0.5722141861915588,-0.8978256583213806,9.732429504394531,3.7078857421875,6.591796875,-2.410888671875
17.8899999,0.5530605912208557,-0.8667010068893433,9.727641105651855,3.265380859375,6.16455078125,-1.7852783203125
17.909999900000003,0.5315127968788147,-0.811634361743927,9.746794700622559,4.3792724609375,6.134033203125,-2.9449462890625
17.929999900000002,0.5099649429321289,-0.7637503147125244,9.770736694335938,2.8228759765625,5.645751953125,-2.9449462890625
17.9499999,0.49320554733276367,-0.7254431247711182,9.80904483795166,1.220703125,5.218505859375,-1.495361328125
17.9699999,0.47405192255973816,-0.6871358752250671,9.847352027893066,2.7923583984375,4.8828125,-1.2664794921875
17.9899999,0.4620809257030487,-0.6560112833976746,9.8784761428833,2.7923583984375,3.4027099609375,-2.0751953125
18.0099999,0.44532153010368347,-0.6320692300796509,9.9000244140625,2.99072265625,4.0435791015625,-0.335693359375
18.0299999,0.4381389021873474,-0.6320692300796509,9.914389610290527,3.387451171875,5.2337646484375,1.678466796875
18.0499999,0.4213795065879822,-0.6320692300796509,9.897629737854004,3.7841796875,2.1209716796875,0.0152587890625
18.0699999,0.4118026793003082,-0.6536170840263367,9.885659217834473,2.7008056640625,2.5482177734375,-0.7171630859375
18.089999900000002,0.3974374830722809,-0.6631938815116882,9.861717224121094,0.6256103515625,3.509521484375,0.030517578125
18.109999900000002,0.38067805767059326,-0.6440402865409851,9.828198432922363,2.5482177734375,2.777099609375,0.6866455078125
18.1299999,0.3663128614425659,-0.6200982332229614,9.801861763000488,3.753662109375,3.0517578125,2.1514892578125
18.1499999,0.3519476354122162,-0.5961562395095825,9.77791976928711,3.2196044921875,3.4027099609375,2.9296875
18.1699999,0.3471592366695404,-0.5985504388809204,9.768342971801758,3.72314453125,4.2724609375,3.3111572265625
18.1899999,0.3471592366695404,-0.608127236366272,9.765948295593262,2.6397705078125,3.1585693359375,1.983642578125
18.2099999,0.35434186458587646,-0.6368576288223267,9.763554573059082,4.0283203125,2.349853515625,1.983642578125
18.2299999,0.35434186458587646,-0.6655880808830261,9.758766174316406,4.1656494140625,4.058837890625,2.0599365234375
18.249999900000002,0.3663128614425659,-0.6991068720817566,9.765948295593262,1.8768310546875,4.7454833984375,0.8544921875
18.269999900000002,0.3663128614425659,-0.706289529800415,9.792284965515137,0.2593994140625,3.3416748046875,-1.4801025390625
18.2899999,0.3758896589279175,-0.7134721279144287,9.84495735168457,1.9378662109375,1.89208984375,-0.518798828125
18.3099999,0.3711012601852417,-0.6727706789970398,9.8784761428833,3.0975341796875,0.579833984375,-0.732421875
18.3299999,0.3758896589279175,-0.6488286852836609,9.921571731567383,0.3509521484375,2.9296875,0.5950927734375
18.3499999,0.3758896589279175,-0.6272808313369751,9.931148529052734,1.4190673828125,2.4871826171875,1.1749267578125
18.3699999,0.38307225704193115,-0.6344634294509888,9.950302124023438,2.5482177734375,1.7852783203125,-0.3814697265625
18.3899999,0.3926490843296051,-0.6512228846549988,9.96945571899414,1.495361328125,1.46484375,-1.3885498046875
18.409999900000003,0.395043283700943,-0.6607996821403503,9.964667320251465,2.777099609375,0.4730224609375,-1.5716552734375
18.429999900000002,0.3878606855869293,-0.6344634294509888,9.943120002746582,1.4801025390625,0.946044921875,-0.7781982421875
18.4499999,0.3734954595565796,-0.5961562395095825,9.9000244140625,-0.0152587890625,1.5869140625,0.6561279296875
18.4699999,0.363918662071228,-0.5722141861915588,9.864110946655273,0.396728515625,2.3651123046875,2.410888671875
18.4899999,0.35913026332855225,-0.5746083855628967,9.880870819091797,-3.4027099609375,2.4871826171875,0.4425048828125
18.5099999,0.35673606395721436,-0.5937620401382446,9.86889934539795,0.1220703125,-2.38037109375,-1.3580322265625
18.5299999,0.35673606395721436,-0.6129156351089478,9.880870819091797,2.044677734375,-0.5950927734375,-1.46484375
18.5499999,0.3423708379268646,-0.5937620401382446,9.86889934539795,-2.410888671875,2.0904541015625,-0.518798828125
18.5699999,0.33039984107017517,-0.5602431893348694,9.840168952941895,-2.1514892578125,0.0762939453125,0.518798828125
18.589999900000002,0.31603461503982544,-0.524330198764801,9.823410034179688,-0.1068115234375,-0.640869140625,1.1444091796875
18.609999900000002,0.31364041566848755,-0.5147533416748047,9.801861763000488,1.251220703125,-0.0152587890625,1.2664794921875
18.6299999,0.31603461503982544,-0.5291185975074768,9.768342971801758,0.7171630859375,0.762939453125,0.6103515625
18.6499999,0.3232172429561615,-0.5530605912208557,9.72285270690918,-0.4425048828125,1.373291015625,-0.2899169921875
18.6699999,0.33279404044151306,-0.5889736413955688,9.713275909423828,-0.79345703125,2.3345947265625,-0.030517578125
18.6899999,0.33279404044151306,-0.5937620401382446,9.696516990661621,0.7171630859375,0.5950927734375,-0.67138671875
18.7099999,0.33279404044151306,-0.5913678407669067,9.701305389404297,1.556396484375,0.5950927734375,-0.2899169921875
18.7299999,0.3256114423274994,-0.5722141861915588,9.701305389404297,-1.40380859375,1.983642578125,0.1678466796875
18.749999900000002,0.31842881441116333,-0.5578489899635315,9.68933391571045,0.18310546875,2.227783203125,0.67138671875
18.769999900000002,0.31842881441116333,-0.5530605912208557,9.706093788146973,-0.1373291015625,3.265380859375,0.42724609375
18.7899999,0.3208230137825012,-0.5626373887062073,9.727641105651855,-1.0223388671875,2.410888671875,-0.0762939453125
18.8099999,0.3280056416988373,-0.5817909836769104,9.768342971801758,-2.3040771484375,2.01416015625,-0.1678466796875
18.8299999,0.33279404044151306,-0.5961562395095825,9.804255485534668,-2.410888671875,2.166748046875,-0.396728515625
18.8499999,0.33518823981285095,-0.6057330369949341,9.835380554199219,-2.044677734375,1.8768310546875,-0.3662109375
18.8699999,0.33279404044151306,-0.6057330369949341,9.854534149169922,-1.9378662109375,1.800537109375,-0.2899169921875
18.8899999,0.33039984107017517,-0.608127236366272,9.86650562286377,-0.1983642578125,2.105712890625,0.2593994140625
18.909999900000003,0.33039984107017517,-0.6177040338516235,9.871294021606445,-0.42724609375,1.8310546875,0.213623046875
18.929999900000002,0.33279404044151306,-0.6320692300796509,9.86650562286377,0.30517578125,1.7852783203125,-0.6561279296875
18.9499999,0.33039984107017517,-0.6368576288223267,9.854534149169922,0.1373291015625,1.190185546875,-1.28173828125
18.9699999,0.3256114423274994,-0.6272808313369751,9.837775230407715,-1.861572265625,1.8310546875,-0.54931640625
18.9899999,0.31842881441116333,-0.6177040338516235,9.828198432922363,-0.9613037109375,2.3040771484375,0.6561279296875
19.0099999,0.30885201692581177,-0.6033388376235962,9.830592155456543,-0.6561279296875,2.0294189453125,0.2899169921875
19.0299999,0.304063618183136,-0.608127236366272,9.813833236694336,0.732421875,0.1068115234375,-0.3814697265625
19.0499999,0.2968810200691223,-0.6153098344802856,9.801861763000488,-0.457763671875,1.373291015625,-0.335693359375
19.0699999,0.28969839215278625,-0.629675030708313,9.77791976928711,-2.5482177734375,2.960205078125,-0.732421875
19.089999900000002,0.2849099934101105,-0.6248866319656372,9.75397777557373,-0.4425048828125,2.0751953125,-1.2054443359375
19.109999900000002,0.2825157940387726,-0.6057330369949341,9.761159896850586,-1.068115234375,1.922607421875,-1.312255859375
19.1299999,0.28969839215278625,-0.5985504388809204,9.792284965515137,-0.6866455078125,2.6702880859375,0.91552734375
19.1499999,0.2968810200691223,-0.5770025849342346,9.832986831665039,0.7171630859375,2.2430419921875,0.213623046875
19.1699999,0.31364041566848755,-0.586579442024231,9.86650562286377,2.2735595703125,0.946044921875,-0.7171630859375
19.1899999,0.3256114423274994,-0.5961562395095825,9.897629737854004,1.2359619140625,1.4495849609375,-0.5645751953125
19.2099999,0.33039984107017517,-0.608127236366272,9.895236015319824,1.0833740234375,1.6632080078125,-0.1068115234375
19.2299999,0.3256114423274994,-0.6009446382522583,9.876082420349121,1.0528564453125,1.1749267578125,-0.1678466796875
19.249999900000002,0.31364041566848755,-0.6009446382522583,9.856928825378418,-0.4730224609375,1.5106201171875,0.48828125
19.269999900000002,0.304063618183136,-0.6009446382522583,9.830592155456543,-0.244140625,1.4801025390625,0.7171630859375
19.2899999,0.2968810200691223,-0.6057330369949341,9.806650161743164,0.701904296875,0.732421875,0.030517578125
19.3099999,0.2968810200691223,-0.6272808313369751,9.785101890563965,0.8087158203125,1.129150390625,0.152587890625
19.3299999,0.28969839215278625,-0.6272808313369751,9.749189376831055,0.54931640625,0.9918212890625,-1.1138916015625
19.3499999,0.2849099934101105,-0.6272808313369751,9.72285270690918,-0.7476806640625,1.708984375,-0.4119873046875
19.3699999,0.272938996553421,-0.6105214357376099,9.710882186889648,-0.91552734375,3.0059814453125,0.579833984375
19.3899999,0.26575639843940735,-0.6033388376235962,9.727641105651855,-0.9002685546875,2.4261474609375,0.518798828125
19.409999900000003,0.26336219906806946,-0.5985504388809204,9.746794700622559,0.67138671875,0.732421875,-0.244140625
19.429999900000002,0.26575639843940735,-0.608127236366272,9.782708168029785,0.9765625,2.1209716796875,-0.30517578125
19.4499999,0.27054479718208313,-0.608127236366272,9.801861763000488,0.1220703125,2.716064453125,-0.030517578125
19.4699999,0.27054479718208313,-0.608127236366272,9.801861763000488,1.2664794921875,1.312255859375,-0.3509521484375
19.4899999,0.272938996553421,-0.5985504388809204,9.818621635437012,0.823974609375,2.7923583984375,-0.3662109375
19.5099999,0.26575639843940735,-0.5913678407669067,9.799467086791992,0.9002685546875,1.312255859375,-0.18310546875
19.5299999,0.2561795711517334,-0.5746083855628967,9.782708168029785,0,1.4190673828125,0.0457763671875
19.5499999,0.24899697303771973,-0.569819986820221,9.780313491821289,-1.7547607421875,3.3111572265625,0.1220703125
19.5699999,0.24660277366638184,-0.5722141861915588,9.775525093078613,-0.3509521484375,2.655029296875,0.030517578125
19.589999900000002,0.24899697303771973,-0.5793967843055725,9.797073364257812,0.9765625,1.739501953125,-0.9307861328125
19.609999900000002,0.24420857429504395,-0.5841852426528931,9.828198432922363,0.2593994140625,2.4566650390625,-0.67138671875
19.6299999,0.23702596127986908,-0.586579442024231,9.847352027893066,0.79345703125,2.410888671875,-0.1373291015625
19.6499999,0.22744916379451752,-0.5793967843055725,9.856928825378418,0.732421875,1.8310546875,-0.1678466796875
19.6699999,0.22026655077934265,-0.5817909836769104,9.86889934539795,-0.1068115234375,2.7923583984375,0.18310546875
19.6899999,0.21547815203666687,-0.5746083855628967,9.876082420349121,-0.244140625,2.4871826171875,0.1068115234375
19.7099999,0.2298433631658554,-0.5985504388809204,9.880870819091797,-1.2664794921875,0.946044921875,0.8087158203125
19.7299999,0.23702596127986908,-0.6129156351089478,9.892841339111328,-0.1678466796875,1.739501953125,-0.8544921875
19.749999900000002,0.24660277366638184,-0.6248866319656372,9.897629737854004,-1.0833740234375,2.25830078125,-2.50244140625
19.769999900000002,0.23942017555236816,-0.6033388376235962,9.883264541625977,0.885009765625,0.5035400390625,-1.3427734375
19.7899999,0.22266076505184174,-0.5554547905921936,9.890447616577148,-0.8087158203125,2.25830078125,0.54931640625
19.8099999,0.20350714027881622,-0.5195417404174805,9.852140426635742,-2.655029296875,0.7781982421875,2.471923828125
19.8299999,0.19153612852096558,-0.5123591423034668,9.840168952941895,-9.613037109375,0.30517578125,1.312255859375
19.8499999,0.19632454216480255,-0.545877993106842,9.813833236694336,-8.148193359375,0.762939453125,-0.5035400390625
19.8699999,0.2059013396501541,-0.6009446382522583,9.77791976928711,-1.4801025390625,0.1983642578125,0
19.8899999,0.21308395266532898,-0.6416460275650024,9.780313491821289,-0.9307861328125,1.8157958984375,-0.5340576171875
19.909999900000003,0.22026655077934265,-0.6655880808830261,9.77791976928711,0.091552734375,2.2735595703125,-0.457763671875
19.929999900000002,0.22266076505184174,-0.6703764796257019,9.797073364257812,1.0223388671875,1.068115234375,0.091552734375
19.9499999,0.22744916379451752,-0.6560112833976746,9.832986831665039,0.91552734375,2.166748046875,0.3204345703125
19.9699999,0.2322375625371933,-0.646434485912323,9.854534149169922,-0.152587890625,0.4119873046875,0.79345703125
19.9899999,0.2346317619085312,-0.6368576288223267,9.873687744140625,-1.2359619140625,-0.0152587890625,0.7171630859375
20.0099999,0.24420857429504395,-0.6560112833976746,9.873687744140625,0.9918212890625,0.762939453125,1.0833740234375
20.0299999,0.24899697303771973,-0.6727706789970398,9.852140426635742,1.3885498046875,0.6256103515625,-0.030517578125
20.0499999,0.2537853717803955,-0.7015010714530945,9.84495735168457,-0.7781982421875,2.105712890625,-1.007080078125
20.0699999,0.2537853717803955,-0.7038952708244324,9.816226959228516,0.6103515625,0.9307861328125,-0.30517578125
20.089999900000002,0.24660277366638184,-0.6919242739677429,9.804255485534668,-0.518798828125,-0.457763671875,0.396728515625
20.109999900000002,0.23942017555236816,-0.6727706789970398,9.787496566772461,-1.556396484375,1.0223388671875,1.2054443359375
20.1299999,0.23702596127986908,-0.6727706789970398,9.751583099365234,0.5340576171875,0.6561279296875,1.2664794921875
20.1499999,0.24420857429504395,-0.6871358752250671,9.710882186889648,0.8544921875,1.3427734375,0.3814697265625
20.1699999,0.24899697303771973,-0.6991068720817566,9.646238327026367,1.312255859375,1.9989013671875,-0.9307861328125
20.1899999,0.2585737705230713,-0.7086837291717529,9.583989143371582,0.030517578125,3.448486328125,-0.274658203125
20.2099999,0.26575639843940735,-0.6943184733390808,9.543288230895996,-2.3956298828125,4.7149658203125,-0.3204345703125
20.2299999,0.2753331959247589,-0.6751648783683777,9.509769439697266,2.410888671875,3.6468505859375,0.3204345703125
20.249999900000002,0.2849099934101105,-0.6440402865409851,9.490615844726562,2.4871826171875,5.0811767578125,-0.091552734375
20.269999900000002,0.304063618183136,-0.6177040338516235,9.454702377319336,0.457763671875,5.828857421875,0.335693359375
20.2899999,0.3232172429561615,-0.5841852426528931,9.397241592407227,-1.2359619140625,8.056640625,0.885009765625
20.3099999,0.3758896589279175,-0.5793967843055725,9.320627212524414,-0.885009765625,11.2152099609375,1.800537109375
20.3299999,0.4620809257030487,-0.629675030708313,9.275136947631836,-4.852294921875,18.7835693359375,0.3814697265625
20.3499999,0.5746083855628967,-0.706289529800415,9.229647636413574,-4.180908203125,26.1993408203125,-3.8299560546875
20.3699999,0.7326257228851318,-0.7469909191131592,9.344569206237793,-18.1121826171875,38.818359375,-8.9569091796875
20.3899999,0.9145850539207458,-0.8355764150619507,9.545681953430176,-21.3775634765625,43.670654296875,-2.99072265625
20.409999900000003,1.1348515748977661,-1.0223240852355957,10.089165687561035,-26.3519287109375,62.103271484375,1.03759765625
20.429999900000002,1.3311761617660522,-1.2401964664459229,10.912771224975586,-44.5709228515625,68.6187744140625,-12.8326416015625
20.4499999,1.4484920501708984,-1.5945383310317993,12.042834281921387,-56.3507080078125,61.9049072265625,-16.876220703125
20.4699999,1.3670891523361206,-1.9536685943603516,13.505691528320312,-60.4400634765625,68.511962890625,-10.8489990234375
20.4899999,1.0845733880996704,-2.33913516998291,15.047557830810547,-45.2728271484375,71.7010498046875,-8.4991455078125
20.5099999,0.507570743560791,-2.698265314102173,16.69237518310547,-35.82763671875,66.3909912109375,-18.5089111328125
20.5299999,-0.26815059781074524,-3.2824504375457764,18.744205474853516,-70.1751708984375,59.417724609375,-22.6898193359375
20.5499999,-1.2042834758758545,-3.804386615753174,20.58295249938965,-56.671142578125,-8.331298828125,-28.7017822265625
20.5699999,-2.161964178085327,-4.323928356170654,22.026655197143555,-15.7623291015625,-87.9364013671875,-40.5426025390625
