# Time (seconds),Accel_X,Accel_Y,Accel_Z,Gyro_X,Gyro_Y,Gyro_Z
0.0099999,0.4668693244457245,9.514557838439941,0.811634361743927,13.397216796875,-38.0706787109375,-51.33056640625
0.029999900000000003,0.49559974670410156,9.342175483703613,1.1755530834197998,31.463623046875,28.9306640625,-28.3203125
0.0499999,0.5027823448181152,9.327810287475586,1.6208745241165161,-84.7320556640625,1.495361328125,-21.6827392578125
0.0699999,0.5889736413955688,9.41400146484375,2.0159177780151367,-97.96142578125,-98.052978515625,-34.4390869140625
0.08999990000000001,0.4596867263317108,9.600749015808105,2.183511972427368,73.577880859375,-74.7528076171875,-27.1453857421875
0.10999990000000001,0.31364041566848755,9.775525093078613,1.8842366933822632,79.9713134765625,24.0020751953125,20.81298828125
0.1299999,0.16759411990642548,9.95748519897461,0.9169792532920837,101.5167236328125,72.2503662109375,28.7322998046875
0.14999990000000002,0.009576806798577309,10.18493366241455,-0.3280056416988373,109.4818115234375,66.34521484375,-6.8511962890625
0.1699999,-0.10295066982507706,10.3549222946167,-1.1300631761550903,103.2562255859375,130.035400390625,11.77978515625
0.1899999,-0.2346317619085312,10.527304649353027,-1.3072341680526733,79.4677734375,190.582275390625,51.4068603515625
0.20999990000000002,-0.2537853717803955,10.467450141906738,-0.7254431247711182,25.0701904296875,141.815185546875,65.460205078125
0.2299999,-0.1412578970193863,10.093954086303711,0.3902548849582672,38.238525390625,59.814453125,33.3709716796875
0.2499999,0.090979665517807,9.634267807006836,1.3838485479354858,82.8399658203125,28.3660888671875,3.0517578125
0.2699999,0.26336219906806946,9.339780807495117,1.721431016921997,69.8089599609375,32.1197509765625,6.561279296875
0.28999990000000003,0.2968810200691223,9.332598686218262,1.278503656387329,36.3616943359375,36.651611328125,24.200439453125
0.3099999,0.24181437492370605,9.375694274902344,0.38546648621559143,40.863037109375,42.0379638671875,30.181884765625
0.3299999,0.2346317619085312,9.246406555175781,-0.4429273009300232,40.22216796875,55.206298828125,11.6729736328125
0.34999990000000003,0.20111294090747833,8.973467826843262,-0.9720458984375,27.77099609375,51.5899658203125,-19.2413330078125
0.3699999,0.181959331035614,8.884882926940918,-1.1420341730117798,6.0882568359375,26.85546875,-40.557861328125
0.3899999,0.11971008777618408,9.121908187866211,-1.2186486721038818,9.5977783203125,3.387451171875,-36.224365234375
0.40999990000000003,0.0071826050989329815,9.59835433959961,-1.381454348564148,12.75634765625,8.9111328125,-9.0789794921875
0.4299999,-0.07182604819536209,10.014945983886719,-1.53707754611969,11.53564453125,46.4019775390625,8.36181640625
0.4499999,-0.10295066982507706,10.096348762512207,-1.4772224426269531,-0.701904296875,59.63134765625,1.007080078125
0.4699999,-0.05506663769483566,9.832986831665039,-1.139639973640442,0.213623046875,26.641845703125,-16.3421630859375
0.4899999,-0.002394201699644327,9.593565940856934,-0.8379706144332886,21.30126953125,-11.7034912109375,-30.303955078125
0.5099999,-0.05746084079146385,9.579200744628906,-0.8020575642585754,30.975341796875,1.8157958984375,-23.3306884765625
0.5299999,-0.13407529890537262,9.62947940826416,-0.9864110946655273,17.974853515625,42.144775390625,10.467529296875
0.5499999,-0.22026655077934265,9.655815124511719,-1.158793568611145,17.0440673828125,47.515869140625,17.0440673828125
0.5699999,-0.2825157940387726,9.490615844726562,-1.1492167711257935,23.4222412109375,9.2315673828125,-9.857177734375
0.5899998999999999,-0.31124621629714966,9.198522567749023,-1.0295066833496094,19.3023681640625,-11.1083984375,-19.6685791015625
0.6099998999999999,-0.3256114423274994,8.995016098022461,-1.072602391242981,23.345947265625,1.495361328125,-6.5155029296875
0.6299999,-0.40222588181495667,9.033323287963867,-1.3982137441635132,32.440185546875,10.650634765625,-6.4849853515625
0.6499999,-0.45489832758903503,9.14585018157959,-1.7118542194366455,17.0745849609375,14.5263671875,-8.4991455078125
0.6699999,-0.43095630407333374,9.227252960205078,-1.8531121015548706,-4.6844482421875,12.4969482421875,-4.7760009765625
0.6899999,-0.4141969084739685,9.311050415039062,-1.9153614044189453,0.67138671875,-9.2620849609375,-12.786865234375
0.7099999,-0.3998316824436188,9.368511199951172,-1.965639591217041,14.9078369140625,-18.0511474609375,-17.8070068359375
0.7299998999999999,-0.3926490843296051,9.421183586120605,-2.1284453868865967,12.603759765625,-2.6702880859375,-9.552001953125
0.7499998999999999,-0.42377370595932007,9.50737476348877,-2.365471363067627,5.096435546875,10.3912353515625,-8.6669921875
0.7699999,-0.4405331015586853,9.636661529541016,-2.5330653190612793,10.92529296875,9.674072265625,-12.9852294921875
0.7899999,-0.4596867263317108,9.806650161743164,-2.583343744277954,21.7437744140625,2.9754638671875,-9.3536376953125
0.8099999,-0.4381389021873474,9.93354320526123,-2.5091233253479004,24.688720703125,5.7373046875,7.354736328125
0.8299999,-0.3711012601852417,9.959878921508789,-2.363077163696289,17.2882080078125,13.0615234375,12.9241943359375
0.8499998999999999,-0.3016694188117981,9.890447616577148,-2.248155355453491,13.7481689453125,5.096435546875,-5.218505859375
0.8699998999999999,-0.2298433631658554,9.773131370544434,-2.1787235736846924,20.0042724609375,-2.6397705078125,-12.8936767578125
0.8899999,-0.21547815203666687,9.710882186889648,-2.209848165512085,25.5279541015625,3.4332275390625,-1.0223388671875
0.9099999,-0.2753331959247589,9.75637149810791,-2.33913516998291,20.5230712890625,9.33837890625,6.89697265625
0.9299999,-0.40462008118629456,9.780313491821289,-2.513911724090576,8.6517333984375,5.7830810546875,4.21142578125
0.9499999,-0.5099649429321289,9.667786598205566,-2.6024973392486572,-0.3509521484375,3.997802734375,4.791259765625
0.9699998999999999,-0.5817909836769104,9.502586364746094,-2.6001031398773193,-8.941650390625,2.5634765625,0.8392333984375
0.9899998999999999,-0.5913678407669067,9.337387084960938,-2.6431987285614014,-5.67626953125,-7.1563720703125,0.396728515625
1.0099999,-0.5578489899635315,9.23443603515625,-2.6815059185028076,-3.1585693359375,-3.2501220703125,5.6304931640625
1.0299999,-0.47165772318840027,9.083600997924805,-2.6599581241607666,-16.876220703125,10.68115234375,15.80810546875
1.0499999,-0.33758243918418884,8.858546257019043,-2.5067291259765625,-22.552490234375,8.7432861328125,12.0697021484375
1.0699999,-0.181959331035614,8.655038833618164,-2.2457611560821533,-12.0849609375,-8.9874267578125,-5.9356689453125
1.0899999,-0.05746084079146385,8.611943244934082,-2.03507137298584,2.25830078125,-17.333984375,-11.5509033203125
1.1099999,0.06703764945268631,8.71489429473877,-1.9632453918457031,1.9683837890625,-2.0294189453125,7.537841796875
1.1299999,0.12928688526153564,8.927978515625,-2.0685901641845703,-4.180908203125,7.476806640625,11.474609375
1.1499999,0.1364694982767105,9.167398452758789,-2.255337953567505,-0.5950927734375,0.79345703125,-5.37109375
1.1699998999999999,0.08619125932455063,9.327810287475586,-2.406172752380371,9.735107421875,0.06103515625,-6.4697265625
1.1899998999999999,0.019153613597154617,9.406818389892578,-2.4468741416931152,15.594482421875,10.2386474609375,8.85009765625
1.2099999,-0.09576806426048279,9.466673851013184,-2.4588451385498047,14.4195556640625,5.9051513671875,5.2032470703125
1.2299999,-0.18914192914962769,9.437943458557129,-2.387019157409668,10.406494140625,-4.058837890625,-7.5225830078125
1.2499999,-0.2322375625371933,9.39245319366455,-2.31758713722229,8.9874267578125,-6.744384765625,-6.683349609375
1.2699999,-0.2825157940387726,9.461885452270508,-2.403778553009033,5.126953125,-11.688232421875,-3.3416748046875
1.2899999,-0.33758243918418884,9.605537414550781,-2.6384103298187256,6.1798095703125,-8.331298828125,5.8135986328125
1.3099999,-0.3926490843296051,9.636661529541016,-2.8586769104003906,2.99072265625,6.8206787109375,16.448974609375
1.3299999,-0.42377370595932007,9.526528358459473,-2.8395233154296875,-7.8887939453125,12.725830078125,11.23046875
1.3499999,-0.4596867263317108,9.402029991149902,-2.5905263423919678,-14.434814453125,-9.857177734375,-7.8887939453125
1.3699999,-0.4620809257030487,9.370905876159668,-2.3367409706115723,-18.61572265625,-41.4276123046875,-9.0484619140625
1.3899999,-0.4692635238170624,9.521739959716797,-2.367865562438965,-19.5465087890625,-44.1436767578125,8.9111328125
1.4099999,-0.4596867263317108,9.72285270690918,-2.7246015071868896,-11.9781494140625,-8.6822509765625,23.5137939453125
1.4299998999999999,-0.36152446269989014,9.674968719482422,-3.028665065765381,-15.228271484375,23.681640625,25.6500244140625
1.4499999,-0.22744916379451752,9.461885452270508,-3.028665065765381,-12.420654296875,10.894775390625,6.7596435546875
1.4699999,-0.0454898327589035,9.246406555175781,-2.7892448902130127,1.739501953125,-23.590087890625,-9.7198486328125
1.4899999,0.07182604819536209,9.169792175292969,-2.607285737991333,3.1890869140625,-31.829833984375,-1.1138916015625
1.5099999,0.14604631066322327,9.217676162719727,-2.6001031398773193,-0.9307861328125,2.227783203125,18.157958984375
1.5299999,0.1843535304069519,9.153033256530762,-2.607285737991333,-10.589599609375,26.611328125,20.5841064453125
1.5499999,0.2298433631658554,8.935160636901855,-2.382230758666992,-11.3983154296875,8.0413818359375,0.335693359375
1.5699999,0.26096799969673157,8.700529098510742,-1.9393033981323242,-8.392333984375,-22.5982666015625,-19.439697265625
1.5899999,0.2753331959247589,8.614337921142578,-1.5825673341751099,0.18310546875,-32.04345703125,-10.6964111328125
1.6099999,0.24420857429504395,8.808267593383789,-1.5729905366897583,8.4686279296875,-17.6239013671875,0.4425048828125
1.6299999,0.19632454216480255,9.100360870361328,-1.9536685943603516,2.2735595703125,-8.697509765625,0.762939453125
1.6499999,0.16519992053508759,9.315838813781738,-2.427720546722412,-2.8533935546875,0.457763671875,-0.8087158203125
1.6699999,0.16759411990642548,9.349357604980469,-2.779668092727661,-0.79345703125,6.744384765625,-3.7994384765625
1.6899998999999999,0.14844051003456116,9.339780807495117,-2.8802247047424316,7.6141357421875,4.82177734375,-13.397216796875
1.7099999,0.1412578970193863,9.32302188873291,-2.80361008644104,3.4637451171875,-3.4942626953125,-17.7001953125
1.7299999,0.14604631066322327,9.260771751403809,-2.808398485183716,-4.730224609375,-13.031005859375,-9.5672607421875
1.7499999,0.11252748221158981,9.279925346374512,-2.9879636764526367,-5.1727294921875,-4.425048828125,-13.3819580078125
1.7699999,0.038307227194309235,9.308655738830566,-3.184288263320923,-4.6234130859375,25.69580078125,-22.5830078125
1.7899999,-0.0071826050989329815,9.29189682006836,-3.155557870864868,-9.8724365234375,37.0025634765625,-10.1776123046875
1.8099999,-0.12689268589019775,9.35893440246582,-2.9472622871398926,-3.5552978515625,6.34765625,-10.1776123046875
1.8299999,-0.22744916379451752,9.457097053527832,-2.626439332962036,3.4332275390625,-6.561279296875,-17.7001953125
1.8499999,-0.3471592366695404,9.591172218322754,-2.3535003662109375,2.2430419921875,17.2882080078125,-14.0228271484375
1.8699999,-0.43095630407333374,9.569623947143555,-2.1595699787139893,-1.03759765625,28.1829833984375,5.523681640625
1.8899999,-0.42856210470199585,9.346963882446289,-1.9752163887023926,-2.7923583984375,5.37109375,7.598876953125
1.9099999,-0.38307225704193115,9.02135181427002,-1.867477297782898,7.50732421875,-14.70947265625,-20.99609375
1.9299998999999999,-0.363918662071228,8.820239067077637,-1.9369091987609863,15.8538818359375,-5.1116943359375,-35.94970703125
1.9499999,-0.43335050344467163,8.87051773071289,-2.1523873805999756,0.732421875,14.8162841796875,-19.7906494140625
1.9699999,-0.569819986820221,9.074024200439453,-2.3487119674682617,-13.4124755859375,12.725830078125,3.173828125
1.9899999,-0.7589619159698486,9.399636268615723,-2.3965959548950195,-3.5552978515625,-3.4942626953125,-12.115478515625
2.0099999,-0.9241618514060974,9.660603523254395,-2.3056161403656006,3.7994384765625,-9.674072265625,-20.5841064453125
2.0299999,-1.05105459690094,9.885659217834473,-2.3319525718688965,5.9814453125,-2.960205078125,4.0283203125
2.0499999,-1.1085153818130493,10.194510459899902,-2.5474305152893066,16.204833984375,14.129638671875,25.8636474609375
2.0699999,-1.036689281463623,10.225635528564453,-2.894589900970459,24.5208740234375,29.2510986328125,29.510498046875
2.0899999,-0.8523358106613159,10.031704902648926,-3.160346269607544,16.6015625,38.4063720703125,13.3209228515625
2.1099999,-0.6153098344802856,9.624691009521484,-3.222595453262329,-5.6304931640625,32.0281982421875,-4.150390625
2.1299999,-0.42856210470199585,9.263166427612305,-3.047818660736084,-28.3355712890625,13.61083984375,-9.21630859375
2.1499999,-0.3902548849582672,9.138668060302734,-2.7437551021575928,-13.5345458984375,7.6904296875,-5.43212890625
2.1699999,-0.3902548849582672,9.10993766784668,-2.4684219360351562,14.862060546875,16.54052734375,8.8653564453125
2.1899999,-0.3974374830722809,9.184157371520996,-2.2409727573394775,22.5982666015625,23.86474609375,4.302978515625
2.2099999,-0.3519476354122162,9.17697525024414,-2.0183119773864746,12.4359130859375,19.378662109375,-10.92529296875
2.2299999,-0.2585737705230713,9.05487060546875,-1.9057846069335938,33.87451171875,4.08935546875,-19.683837890625
2.2499999,-0.15322890877723694,8.918401718139648,-1.9823989868164062,56.0455322265625,-2.01416015625,-28.2745361328125
2.2699999,-0.16519992053508759,8.827422142028809,-2.169146776199341,38.9862060546875,7.5836181640625,-33.2183837890625
2.2899999,-0.2537853717803955,8.80587387084961,-2.3726539611816406,13.6871337890625,8.9874267578125,-28.3050537109375
2.3099999,-0.4405331015586853,8.877699851989746,-2.6024973392486572,28.3966064453125,-7.26318359375,-19.744873046875
2.3299999,-0.6584054827690125,8.990227699279785,-2.7222073078155518,65.2923583984375,-4.69970703125,-12.298583984375
2.3499999,-0.8690952062606812,9.059659004211426,-3.1268274784088135,97.2900390625,8.209228515625,-9.1094970703125
2.3699999,-1.0558429956436157,9.14585018157959,-3.584120035171509,42.572021484375,18.6614990234375,-11.71875
2.3899999,-1.1300631761550903,9.069235801696777,-3.8594532012939453,-7.965087890625,19.6380615234375,-12.4359130859375
2.4099999,-1.1994950771331787,9.045293807983398,-3.9815573692321777,-7.1563720703125,-19.47021484375,-21.7742919921875
2.4299999,-1.2306196689605713,9.002198219299316,-3.6798880100250244,-5.615234375,-39.6575927734375,-27.5421142578125
2.4499999,-1.1420341730117798,8.983044624328613,-3.7253777980804443,-6.4697265625,-43.51806640625,-12.3291015625
2.4699999,-1.1803414821624756,9.299078941345215,-3.936067581176758,-22.2625732421875,-2.1820068359375,-4.974365234375
2.4899999,-1.070208191871643,9.516951560974121,-3.9839515686035156,-66.5130615234375,42.0989990234375,23.86474609375
2.5099999,-1.036689281463623,9.612719535827637,-4.1156325340271,-44.0216064453125,5.615234375,42.9840087890625
2.5299999,-1.0869675874710083,9.50737476348877,-3.751713991165161,-27.52685546875,-3.997802734375,12.8326416015625
2.5499999,-1.1204863786697388,8.992621421813965,-3.4811692237854004,-36.0870361328125,3.7841796875,-0.91552734375
2.5699999,-1.2018892765045166,8.631096839904785,-3.4763808250427246,-29.449462890625,1.0223388671875,-16.632080078125
2.5899999,-1.2306196689605713,8.468291282653809,-3.2800562381744385,-34.393310546875,18.402099609375,-21.7437744140625
2.6099999,-1.216254472732544,8.573636054992676,-3.157952070236206,-43.4722900390625,1.3580322265625,-13.7939453125
2.6299999,-1.1875240802764893,8.87291145324707,-3.1028854846954346,-35.9649658203125,-29.1748046875,-12.8631591796875
2.6499999,-1.1516109704971313,9.119514465332031,-2.7509377002716064,-36.9110107421875,5.523681640625,-10.406494140625
2.6699999,-1.0845733880996704,9.32541561126709,-2.846705913543701,-25.5126953125,11.8560791015625,-4.2724609375
2.6899999,-1.0199298858642578,9.607931137084961,-2.5498247146606445,-27.2674560546875,22.308349609375,6.34765625
2.7099999,-0.9313444495201111,9.622296333312988,-2.0829553604125977,-51.4678955078125,23.4527587890625,26.6571044921875
2.7299999,-0.9145850539207458,9.586383819580078,-1.86508309841156,-35.797119140625,-18.7835693359375,16.17431640625
2.7499999,-0.9385270476341248,9.469067573547363,-1.580173134803772,-14.0380859375,-15.3961181640625,-14.0533447265625
2.7699999,-0.9816226959228516,9.320627212524414,-1.5442601442337036,-15.167236328125,10.6201171875,-8.941650390625
2.7899999,-0.9888052940368652,9.169792175292969,-1.702277421951294,-4.7149658203125,-8.0718994140625,-2.1514892578125
2.8099999,-1.0773907899856567,9.418789863586426,-1.9560627937316895,0.3204345703125,-16.41845703125,-21.575927734375
2.8299999,-1.072602391242981,9.246406555175781,-1.9823989868164062,-13.5955810546875,16.5557861328125,-4.3487548828125
2.8499999,-1.158793568611145,9.409213066101074,-2.22660756111145,-6.2103271484375,13.5498046875,-21.66748046875
2.8699999,-1.1755530834197998,9.445125579833984,-2.185906171798706,-0.5645751953125,1.5411376953125,-23.681640625
2.8899999,-1.1563993692398071,9.5408935546875,-2.0039467811584473,-20.0042724609375,11.5966796875,-5.828857421875
2.9099999,-1.1516109704971313,9.727641105651855,-1.900996208190918,-11.566162109375,8.758544921875,-3.2958984375
2.9299999,-1.1300631761550903,9.720458984375,-1.7310078144073486,1.312255859375,12.02392578125,-0.6866455078125
2.9499999,-1.1516109704971313,9.682151794433594,-1.6304513216018677,-0.701904296875,12.8326416015625,-5.126953125
2.9699999,-1.1875240802764893,9.555258750915527,-1.656787633895874,-1.9378662109375,5.218505859375,-4.7607421875
2.9899999,-1.2234370708465576,9.318233489990234,-1.7286136150360107,-9.2010498046875,4.2877197265625,1.922607421875
3.0099999,-1.2880805730819702,9.232041358947754,-1.8195933103561401,-13.916015625,8.1329345703125,-11.53564453125
3.0299999,-1.3263877630233765,9.035717010498047,-1.9536685943603516,-5.9051513671875,3.3721923828125,-16.05224609375
3.0499999,-1.3503297567367554,8.944737434387207,-1.98958158493042,-13.580322265625,4.39453125,-11.2152099609375
3.0699999,-1.3718775510787964,9.040505409240723,-2.0159177780151367,-30.731201171875,10.1165771484375,-15.3045654296875
3.0899999,-1.359906554222107,9.121908187866211,-1.8914192914962769,-28.2745361328125,14.6331787109375,-3.4027099609375
3.1099999,-1.3431471586227417,9.301473617553711,-1.766920804977417,-16.4031982421875,11.04736328125,0.5035400390625
3.1299999,-1.3287819623947144,9.478644371032715,-1.5682021379470825,-12.5732421875,7.8887939453125,-7.049560546875
3.1499999,-1.3048399686813354,9.567230224609375,-1.2713210582733154,-12.6495361328125,16.8914794921875,-3.2501220703125
3.1699999,-1.2952631711959839,9.691728591918945,-1.1037269830703735,-7.7362060546875,7.3699951171875,5.035400390625
3.1899999,-1.292868971824646,9.703699111938477,-0.9528923034667969,-5.9967041015625,0.579833984375,13.3209228515625
3.2099999,-1.2880805730819702,9.646238327026367,-0.8762778043746948,-5.4931640625,4.8828125,8.23974609375
3.2299999,-1.292868971824646,9.524134635925293,-0.9409212470054626,-8.0108642578125,5.31005859375,-2.5787353515625
3.2499999,-1.316810965538025,9.476250648498535,-0.9816226959228516,-12.1917724609375,4.974365234375,-5.5389404296875
3.2699999,-1.3407529592514038,9.493009567260742,-0.9959878921508789,-10.345458984375,-0.3814697265625,0.5035400390625
3.2899999,-1.3646949529647827,9.622296333312988,-1.0031704902648926,-5.8746337890625,-3.96728515625,3.72314453125
3.3099999,-1.37906014919281,9.653421401977539,-1.0007762908935547,-11.7645263671875,5.950927734375,2.7923583984375
3.3299999000000002,-1.3646949529647827,9.586383819580078,-1.048660397529602,-11.1846923828125,13.641357421875,-0.9307861328125
3.3499999,-1.335964560508728,9.433155059814453,-1.1109095811843872,-4.180908203125,14.5721435546875,-3.3416748046875
3.3699999,-1.316810965538025,9.35893440246582,-1.1061211824417114,-4.8980712890625,13.5040283203125,-2.8228759765625
3.3899999,-1.2952631711959839,9.373299598693848,-1.072602391242981,-5.157470703125,6.34765625,8.5601806640625
3.4099999,-1.3024457693099976,9.469067573547363,-0.9792284965515137,-0.4730224609375,-9.2010498046875,20.9197998046875
3.4299999,-1.2856862545013428,9.569623947143555,-0.9002198576927185,1.007080078125,-25.32958984375,23.4375
3.4499999,-1.2425906658172607,9.643844604492188,-0.8212111592292786,-3.0517578125,-31.158447265625,18.06640625
3.4699999,-1.1803414821624756,9.66299819946289,-0.8547300100326538,-0.9307861328125,-28.80859375,17.578125
3.4899999,-1.1109095811843872,9.742006301879883,-0.849941611289978,0.762939453125,-30.029296875,25.69580078125
3.5099999,-1.0007762908935547,9.775525093078613,-0.9265560507774353,6.4544677734375,-31.585693359375,39.6575927734375
3.5299999,-0.9385270476341248,9.773131370544434,-0.9720458984375,12.6495361328125,-25.5584716796875,34.66796875
3.5499999,-0.849941611289978,9.710882186889648,-1.0055646896362305,10.711669921875,-30.6243896484375,27.557373046875
3.5699999,-0.7565677165985107,9.579200744628906,-1.070208191871643,9.0789794921875,-41.900634765625,28.533935546875
3.5899999,-0.6823474764823914,9.459490776062012,-1.1180921792984009,8.758544921875,-43.609619140625,19.9432373046875
3.6099999,-0.5913678407669067,9.421183586120605,-1.1635819673538208,11.0321044921875,-34.48486328125,5.31005859375
3.6299999,-0.45489832758903503,9.425971984863281,-1.2258312702178955,13.092041015625,-22.0489501953125,6.40869140625
3.6499999,-0.36152446269989014,9.442731857299805,-1.2856862545013428,9.3536376953125,-6.011962890625,13.1988525390625
3.6699999,-0.3064578175544739,9.478644371032715,-1.316810965538025,9.5062255859375,8.636474609375,4.5928955078125
3.6899999,-0.36152446269989014,9.516951560974121,-1.3623007535934448,14.46533203125,9.6435546875,-2.4261474609375
3.7099999,-0.4836287498474121,9.519346237182617,-1.3886369466781616,6.2408447265625,5.2490234375,14.3280029296875
3.7299999,-0.5602431893348694,9.569623947143555,-1.3982137441635132,-1.6326904296875,-0.640869140625,21.270751953125
3.7499999,-0.545877993106842,9.57201862335205,-1.3934253454208374,0.1220703125,0.885009765625,9.6282958984375
3.7699999,-0.42377370595932007,9.528923034667969,-1.3551181554794312,4.57763671875,12.359619140625,2.6092529296875
3.7899999,-0.26096799969673157,9.332598686218262,-1.314416766166687,10.6658935546875,14.9993896484375,1.2359619140625
3.8099999,-0.11013327538967133,9.14345645904541,-1.2689268589019775,16.7999267578125,11.2152099609375,-21.6827392578125
3.8299999000000002,-0.11013327538967133,9.131484985351562,-1.2617442607879639,11.1541748046875,17.364501953125,-50.872802734375
3.8499999,-0.2059013396501541,9.136273384094238,-1.3192051649093628,-7.9498291015625,22.0794677734375,-38.2537841796875
3.8699999,-0.3902548849582672,9.351752281188965,-1.3670891523361206,-12.63427734375,17.6544189453125,-25.57373046875
3.8899999,-0.5889736413955688,9.5624418258667,-1.4053963422775269,-5.9661865234375,0.91552734375,-30.2734375
3.9099999,-0.7230489253997803,9.670180320739746,-1.4484920501708984,-13.7481689453125,1.6937255859375,-31.707763671875
3.9299999,-0.8020575642585754,9.732429504394531,-1.4221558570861816,-23.0560302734375,4.4097900390625,-28.01513671875
3.9499999,-0.8331822156906128,9.797073364257812,-1.338358759880066,-12.7105712890625,-6.8817138671875,-17.059326171875
3.9699999,-0.8643068075180054,9.816226959228516,-1.2258312702178955,1.28173828125,-10.7269287109375,-3.2806396484375
3.9899999,-0.849941611289978,9.830592155456543,-1.1037269830703735,3.9520263671875,-10.1776123046875,2.2735595703125
4.0099999,-0.8044517636299133,9.854534149169922,-1.0271124839782715,-3.7078857421875,-13.885498046875,1.2054443359375
4.029999900000001,-0.7206547260284424,9.873687744140625,-1.039083480834961,-3.72314453125,-16.2811279296875,3.1280517578125
4.0499999,-0.646434485912323,9.876082420349121,-1.1037269830703735,-5.2032470703125,-4.7454833984375,10.8184814453125
4.069999900000001,-0.5817909836769104,9.904812812805176,-1.1971008777618408,-18.7530517578125,20.263671875,18.157958984375
4.0899999000000005,-0.507570743560791,9.926360130310059,-1.2497732639312744,-26.9775390625,36.3311767578125,18.9971923828125
4.1099999,-0.42377370595932007,9.909601211547852,-1.2497732639312744,-23.4375,47.8668212890625,20.6756591796875
4.1299999000000005,-0.28730419278144836,9.742006301879883,-1.1300631761550903,-20.0042724609375,61.553955078125,21.9879150390625
4.1499999,-0.14604631066322327,9.603142738342285,-0.9744400978088379,-7.293701171875,68.0084228515625,12.1917724609375
4.1699999000000005,-0.1628057211637497,9.847352027893066,-0.43095630407333374,7.99560546875,54.99267578125,7.2174072265625
4.1899999,-0.0933738648891449,9.57201862335205,-0.4596867263317108,65.85693359375,-5.401611328125,59.4635009765625
4.209999900000001,-0.2059013396501541,9.823410034179688,-0.13168109953403473,-8.1634521484375,2.410888671875,50.4150390625
4.2299999,-0.21547815203666687,9.600749015808105,-0.26096799969673157,-41.1376953125,3.1585693359375,17.6239013671875
4.249999900000001,-0.20111294090747833,9.423578262329102,-0.5147533416748047,5.615234375,-21.8505859375,30.487060546875
4.2699999,-0.19871874153614044,9.437943458557129,-0.6320692300796509,19.3939208984375,-9.490966796875,34.149169921875
4.289999900000001,-0.1843535304069519,9.476250648498535,-0.9002198576927185,19.927978515625,0.79345703125,45.9136962890625
4.3099999,-0.10055647045373917,9.354146003723145,-1.0271124839782715,17.791748046875,-2.716064453125,54.0771484375
4.329999900000001,-0.038307227194309235,9.313444137573242,-1.1803414821624756,21.392822265625,-16.8914794921875,29.632568359375
4.3499999,0.14604631066322327,8.947132110595703,-1.2976573705673218,17.4407958984375,-21.7132568359375,23.5595703125
4.369999900000001,0.33758243918418884,8.762778282165527,-1.381454348564148,-9.9334716796875,-13.519287109375,7.720947265625
4.3899999,0.4908113479614258,8.767566680908203,-1.4053963422775269,-2.99072265625,-10.162353515625,-14.0533447265625
4.409999900000001,0.6320692300796509,8.78432559967041,-1.3910311460494995,18.280029296875,-14.1143798828125,-0.79345703125
4.4299999,0.6799532771110535,9.138668060302734,-1.3862427473068237,26.1383056640625,-17.1966552734375,-1.708984375
4.449999900000001,0.667982280254364,9.53849983215332,-1.4245500564575195,12.298583984375,-7.904052734375,-4.302978515625
4.4699999,0.6248866319656372,9.852140426635742,-1.5682021379470825,5.035400390625,-4.3487548828125,14.0838623046875
4.489999900000001,0.5602431893348694,9.921571731567383,-1.7717092037200928,7.293701171875,-8.0108642578125,21.9268798828125
4.5099999,0.5051765441894531,9.794678688049316,-1.9057846069335938,-4.0740966796875,-7.2174072265625,3.814697265625
4.529999900000001,0.4812345504760742,9.552865028381348,-2.054224967956543,-11.474609375,-8.4381103515625,-13.5955810546875
4.5499999,0.45250412821769714,9.44991397857666,-2.0829553604125977,-13.4735107421875,-10.406494140625,-8.6822509765625
4.569999900000001,0.4381389021873474,9.543288230895996,-2.049436569213867,-15.07568359375,-12.63427734375,7.6751708984375
4.5899999000000005,0.40940847992897034,9.679757118225098,-2.0374655723571777,-11.71875,-16.1590576171875,15.7623291015625
4.609999900000001,0.35673606395721436,9.763554573059082,-1.9704279899597168,-18.85986328125,-8.575439453125,8.97216796875
4.6299999000000005,0.3064578175544739,9.75397777557373,-1.9273324012756348,-0.8392333984375,-0.1983642578125,3.5400390625
4.6499999,0.26575639843940735,9.674968719482422,-1.8531121015548706,17.181396484375,-3.4942626953125,10.406494140625
4.6699999000000005,0.2298433631658554,9.583989143371582,-1.764526605606079,13.1988525390625,-6.6375732421875,12.2222900390625
4.6899999,0.2849099934101105,9.457097053527832,-1.644816517829895,-1.708984375,-4.058837890625,7.354736328125
4.709999900000001,0.363918662071228,9.366117477416992,-1.53707754611969,-12.847900390625,-2.9754638671875,2.5177001953125
4.7299999,0.4908113479614258,9.378087997436523,-1.3982137441635132,-7.598876953125,-6.744384765625,5.3558349609375
4.749999900000001,0.6248866319656372,9.569623947143555,-1.1348515748977661,-5.401611328125,-12.2833251953125,12.2528076171875
4.7699999,0.7589619159698486,9.682151794433594,-1.048660397529602,-2.0294189453125,-26.4739990234375,20.3704833984375
4.789999900000001,0.8643068075180054,9.84495735168457,-1.0773907899856567,1.4801025390625,-27.40478515625,9.2315673828125
4.8099999,0.9552865028381348,9.892841339111328,-1.1683704853057861,-9.5977783203125,-7.7362060546875,4.180908203125
4.829999900000001,0.9672574996948242,9.950302124023438,-1.3455413579940796,-16.876220703125,-9.70458984375,10.6964111328125
4.8499999,0.9145850539207458,9.931148529052734,-1.4317326545715332,-11.2762451171875,-15.472412109375,21.4385986328125
4.869999900000001,0.8379706144332886,9.84495735168457,-1.4508862495422363,-4.94384765625,-13.5345458984375,21.087646484375
4.8899999,0.751779317855835,9.667786598205566,-1.434126853942871,-3.3111572265625,-13.5345458984375,7.8125
4.909999900000001,0.706289529800415,9.461885452270508,-1.4532804489135742,8.148193359375,-17.8985595703125,1.9989013671875
4.9299999,0.6943184733390808,9.265560150146484,-1.4460978507995605,6.1492919921875,-15.777587890625,4.8828125
4.949999900000001,0.706289529800415,9.097966194152832,-1.5298948287963867,0.30517578125,-11.3983154296875,4.5928955078125
4.9699999,0.7110779285430908,9.141061782836914,-1.4844050407409668,-11.23046875,-2.25830078125,-5.8746337890625
4.989999900000001,0.7158663272857666,9.186552047729492,-1.2617442607879639,-26.6265869140625,-5.096435546875,0.213623046875
5.0099999,0.7230489253997803,9.263166427612305,-1.1659762859344482,8.23974609375,-31.73828125,12.3748779296875
5.029999900000001,0.7254431247711182,9.29189682006836,-1.0606313943862915,11.9171142578125,-24.6429443359375,2.62451171875
5.0499999,0.730231523513794,9.227252960205078,-1.0606313943862915,-8.7127685546875,2.197265625,-7.4615478515625
5.069999900000001,0.7493851184844971,9.23443603515625,-1.1635819673538208,1.2664794921875,-4.1351318359375,-6.927490234375
5.0899999000000005,0.7398083209991455,9.378087997436523,-1.1204863786697388,3.7841796875,-17.6544189453125,1.068115234375
5.109999900000001,0.7565677165985107,9.500192642211914,-1.1683704853057861,7.110595703125,-20.6146240234375,10.955810546875
5.1299999000000005,0.7757213711738586,9.57441234588623,-1.2497732639312744,-6.8206787109375,-6.6986083984375,4.5623779296875
5.1499999,0.8259995579719543,9.516951560974121,-1.3072341680526733,-14.1143798828125,2.4261474609375,-3.8604736328125
5.1699999000000005,0.8930372595787048,9.47146224975586,-1.2114660739898682,-3.0059814453125,-8.5601806640625,-2.9449462890625
5.1899999,0.9648633003234863,9.464279174804688,-1.015141487121582,6.683349609375,-20.3094482421875,3.0364990234375
5.209999900000001,1.048660397529602,9.418789863586426,-0.828393816947937,3.5858154296875,-18.280029296875,5.6915283203125
5.2299999,1.1228805780410767,9.402029991149902,-0.7637503147125244,2.1514892578125,-7.720947265625,-3.90625
5.249999900000001,1.1851298809051514,9.428366661071777,-0.7661445140838623,3.7078857421875,-8.697509765625,-10.1776123046875
5.2699999,1.2282254695892334,9.437943458557129,-0.8331822156906128,3.997802734375,-19.3939208984375,-2.5787353515625
5.289999900000001,1.2545616626739502,9.44991397857666,-0.950498104095459,4.94384765625,-17.9901123046875,0.5340576171875
5.3099999,1.2497732639312744,9.435548782348633,-1.1348515748977661,0.8697509765625,-6.9732666015625,-9.674072265625
5.329999900000001,1.235408067703247,9.3828763961792,-1.2832920551300049,-3.47900390625,-2.166748046875,-11.9781494140625
5.3499999,1.194706678390503,9.445125579833984,-1.280897855758667,-8.60595703125,-7.2021484375,-6.805419921875
5.369999900000001,1.1420341730117798,9.564835548400879,-1.1994950771331787,-6.256103515625,-17.2576904296875,1.556396484375
5.3899999,1.1037269830703735,9.634267807006836,-1.0893617868423462,3.936767578125,-16.3421630859375,4.913330078125
5.409999900000001,1.0654197931289673,9.552865028381348,-1.036689281463623,8.148193359375,-9.979248046875,-0.3662109375
5.4299999,1.0438719987869263,9.442731857299805,-1.0797849893569946,3.90625,-13.12255859375,-8.209228515625
5.449999900000001,1.0079588890075684,9.404424667358398,-1.158793568611145,0.1220703125,-18.24951171875,-8.1329345703125
5.4699999,0.9552865028381348,9.50498104095459,-1.2258312702178955,-5.79833984375,-15.4876708984375,2.288818359375
5.489999900000001,0.8858546018600464,9.677363395690918,-1.357512354850769,-1.220703125,-16.0064697265625,8.758544921875
5.5099999,0.790086567401886,9.713275909423828,-1.4724340438842773,-7.32421875,-16.448974609375,9.6435546875
5.529999900000001,0.6991068720817566,9.641449928283691,-1.558625340461731,-10.406494140625,-14.9688720703125,-0.6103515625
5.5499999,0.5961562395095825,9.564835548400879,-1.5466543436050415,-11.1541748046875,-13.153076171875,-12.481689453125
5.569999900000001,0.5051765441894531,9.528923034667969,-1.5394717454910278,1.7547607421875,-16.4337158203125,-5.8746337890625
5.5899999000000005,0.45010992884635925,9.617507934570312,-1.5658079385757446,2.3040771484375,-17.974853515625,2.74658203125
5.609999900000001,0.4213795065879822,9.861717224121094,-1.5897499322891235,-16.5252685546875,-9.033203125,2.2125244140625
5.6299999000000005,0.4620809257030487,9.95748519897461,-1.625662922859192,-36.2091064453125,-4.33349609375,13.85498046875
5.6499999,0.5410895943641663,9.911994934082031,-1.580173134803772,-22.1405029296875,-5.7373046875,22.5677490234375
5.6699999000000005,0.6775590777397156,9.715670585632324,-1.4101848602294922,-9.3994140625,-6.9427490234375,9.765625
5.6899999,0.8020575642585754,9.466673851013184,-1.194706678390503,4.180908203125,-2.6397705078125,-2.532958984375
5.709999900000001,0.9097966551780701,9.196128845214844,-1.0295066833496094,9.46044921875,0.4730224609375,4.0740966796875
5.7299999,0.9696516990661621,9.035717010498047,-0.9050082564353943,7.8582763671875,5.2032470703125,6.4544677734375
5.749999900000001,0.9911994934082031,8.956708908081055,-0.9481038451194763,37.8265380859375,10.0860595703125,-5.950927734375
5.7699999,1.0079588890075684,8.880094528198242,-1.0271124839782715,49.7283935546875,16.78466796875,-10.498046875
5.789999900000001,1.01753568649292,9.05487060546875,-1.1492167711257935,38.6505126953125,20.1873779296875,-11.444091796875
5.8099999,1.036689281463623,9.390059471130371,-1.256955862045288,33.9508056640625,14.3585205078125,-1.15966796875
5.829999900000001,1.094150185585022,9.694122314453125,-1.4269442558288574,23.86474609375,6.4239501953125,20.6451416015625
5.8499999,1.192312479019165,9.823410034179688,-1.5083470344543457,-8.72802734375,12.115478515625,23.3917236328125
5.869999900000001,1.3503297567367554,9.643844604492188,-1.5275006294250488,-19.53125,18.096923828125,11.016845703125
5.8899999,1.4891934394836426,9.402029991149902,-1.4700398445129395,2.4566650390625,8.4381103515625,-3.021240234375
5.909999900000001,1.577778935432434,9.315838813781738,-1.335964560508728,20.8587646484375,2.6702880859375,-0.4730224609375
5.9299999,1.5921441316604614,9.375694274902344,-1.280897855758667,18.157958984375,4.45556640625,14.9383544921875
5.949999900000001,1.5658079385757446,9.476250648498535,-1.3670891523361206,15.9912109375,6.7901611328125,21.78955078125
5.9699999,1.5275006294250488,9.440337181091309,-1.5825673341751099,26.42822265625,8.5906982421875,8.9111328125
5.989999900000001,1.5131354331970215,9.263166427612305,-1.7932571172714233,22.1405029296875,10.345458984375,-3.265380859375
6.0099999,1.4987702369689941,9.160215377807617,-2.0159177780151367,2.4261474609375,7.62939453125,-9.002685546875
6.029999900000001,1.4724340438842773,9.224859237670898,-2.145204782485962,-6.744384765625,6.866455078125,-7.26318359375
6.0499999,1.4508862495422363,9.39245319366455,-2.1571757793426514,-14.6026611328125,9.521484375,3.72314453125
6.069999900000001,1.4317326545715332,9.591172218322754,-2.049436569213867,-16.998291015625,10.2386474609375,5.5694580078125
6.0899999000000005,1.414973258972168,9.670180320739746,-1.845929503440857,-8.11767578125,9.6282958984375,2.2430419921875
6.109999900000001,1.4101848602294922,9.617507934570312,-1.6543933153152466,7.2479248046875,7.2021484375,2.9449462890625
6.1299999000000005,1.3694833517074585,9.53849983215332,-1.5155296325683594,9.4146728515625,5.523681640625,2.3193359375
6.149999900000001,1.3311761617660522,9.397241592407227,-1.482010841369629,-1.8768310546875,5.889892578125,5.767822265625
6.1699999000000005,1.2689268589019775,9.315838813781738,-1.4867992401123047,-12.115478515625,5.9814453125,4.7149658203125
6.1899999,1.2018892765045166,9.232041358947754,-1.4173674583435059,-7.38525390625,6.4849853515625,3.1890869140625
6.209999900000001,1.161187767982483,9.05247688293457,-1.3670891523361206,9.796142578125,-3.997802734375,7.232666015625
6.2299999,1.1444283723831177,9.035717010498047,-1.3862427473068237,6.6680908203125,-18.2952880859375,-4.852294921875
6.249999900000001,1.1540051698684692,9.040505409240723,-1.4891934394836426,-5.5084228515625,-10.4827880859375,-10.498046875
6.2699999,1.1851298809051514,9.136273384094238,-1.6112977266311646,-11.749267578125,3.8909912109375,2.8533935546875
6.289999900000001,1.2018892765045166,9.38048267364502,-1.5466543436050415,-17.51708984375,2.5634765625,-2.99072265625
6.3099999,1.1971008777618408,9.476250648498535,-1.5538369417190552,5.8441162109375,-13.4429931640625,-8.0718994140625
6.329999900000001,1.2210428714752197,9.481039047241211,-1.5969325304031372,40.6494140625,-4.7149658203125,-4.6844482421875
6.3499999,1.2665326595306396,9.466673851013184,-1.6687586307525635,35.4766845703125,25.3143310546875,-12.7716064453125
6.369999900000001,1.292868971824646,9.342175483703613,-1.9512743949890137,35.8734130859375,20.1263427734375,-9.674072265625
6.3899999,1.3024457693099976,9.27034854888916,-2.2242133617401123,38.1927490234375,6.28662109375,-8.36181640625
6.409999900000001,1.1971008777618408,9.308655738830566,-2.3558945655822754,19.500732421875,24.10888671875,-16.6473388671875
6.4299999,1.1109095811843872,9.351752281188965,-2.647987127304077,23.0560302734375,33.99658203125,-14.46533203125
6.449999900000001,1.0295066833496094,9.394847869873047,-2.808398485183716,16.754150390625,25.2227783203125,-3.60107421875
6.4699999,1.039083480834961,9.488221168518066,-2.875436305999756,6.3018798828125,23.193359375,-8.8348388671875
6.489999900000001,1.0749965906143188,9.512163162231445,-2.784456491470337,4.7607421875,23.4375,-10.0860595703125
6.5099999,1.1300631761550903,9.425971984863281,-2.564189910888672,-5.9814453125,10.284423828125,1.5716552734375
6.529999900000001,1.1683704853057861,9.404424667358398,-2.3367409706115723,-14.9993896484375,-7.2174072265625,-2.13623046875
6.5499999,1.292868971824646,9.425971984863281,-2.1045033931732178,-41.015625,-8.1329345703125,-6.8511962890625
6.569999900000001,1.216254472732544,9.461885452270508,-2.0901381969451904,-83.3282470703125,-20.1263427734375,10.528564453125
6.5899999000000005,1.1779472827911377,9.433155059814453,-2.2409727573394775,-51.3916015625,-3.4332275390625,26.9622802734375
6.609999900000001,1.0893617868423462,9.516951560974121,-2.255337953567505,6.9732666015625,28.961181640625,6.4544677734375
6.6299999000000005,1.0055646896362305,9.452308654785156,-2.3558945655822754,30.6396484375,20.355224609375,2.3956298828125
6.649999900000001,1.1540051698684692,9.224859237670898,-2.2625205516815186,34.8663330078125,27.984619140625,33.6761474609375
6.6699999000000005,1.256955862045288,9.121908187866211,-2.164358377456665,-9.1552734375,22.918701171875,16.3421630859375
6.6899999,1.194706678390503,8.87291145324707,-2.2026655673980713,-2.593994140625,-4.791259765625,8.8653564453125
6.709999900000001,1.2234370708465576,8.616731643676758,-2.1092917919158936,19.134521484375,7.9193115234375,14.09912109375
6.7299999,1.213860273361206,8.65743350982666,-2.2242133617401123,-10.2386474609375,12.6495361328125,-10.772705078125
6.749999900000001,1.2497732639312744,8.75080680847168,-2.4157495498657227,-18.4478759765625,4.7454833984375,-18.9361572265625
6.7699999,1.2713210582733154,9.0859956741333,-2.4612393379211426,-31.5704345703125,13.0767822265625,-2.7008056640625
6.789999900000001,1.2737152576446533,9.44752025604248,-2.3726539611816406,-45.684814453125,17.7154541015625,8.4991455078125
6.8099999,1.316810965538025,9.639056205749512,-2.2864625453948975,-39.1082763671875,-2.5634765625,5.859375
6.829999900000001,1.381454348564148,9.694122314453125,-1.9345149993896484,-41.412353515625,-5.4168701171875,-10.345458984375
6.8499999,1.4676456451416016,9.612719535827637,-1.7573440074920654,-28.564453125,-5.0048828125,-7.720947265625
6.869999900000001,1.5658079385757446,9.44752025604248,-1.680729627609253,4.2724609375,-8.30078125,2.1209716796875
6.8899999,1.6376339197158813,9.418789863586426,-1.644816517829895,-8.9111328125,1.6937255859375,-8.758544921875
6.909999900000001,1.6663644313812256,9.461885452270508,-1.6280571222305298,-26.4434814453125,10.2996826171875,-18.4478759765625
6.9299999,1.6687586307525635,9.502586364746094,-1.5873557329177856,-22.491455078125,1.4495849609375,-5.4779052734375
6.949999900000001,1.6543933153152466,9.706093788146973,-1.4724340438842773,-15.2130126953125,2.3193359375,0.3204345703125
6.9699999,1.647210717201233,9.80904483795166,-1.4915876388549805,18.3563232421875,19.3634033203125,0.2288818359375
6.989999900000001,1.6160861253738403,9.974244117736816,-1.601720929145813,35.4766845703125,37.109375,1.89208984375
7.0099999,1.50355863571167,10.113107681274414,-1.5538369417190552,-16.6778564453125,39.794921875,8.7127685546875
7.029999900000001,1.4269442558288574,9.909601211547852,-1.4245500564575195,-47.66845703125,12.1917724609375,34.4085693359375
7.0499999,1.3503297567367554,9.531316757202148,-1.213860273361206,-16.9677734375,-12.4664306640625,14.4195556640625
7.069999900000001,1.359906554222107,9.047688484191895,-0.9816226959228516,-1.6632080078125,-4.94384765625,-24.5513916015625
7.0899999000000005,1.455674648284912,8.698134422302246,-0.8858546018600464,-8.8958740234375,-0.4730224609375,-23.773193359375
7.109999900000001,1.558625340461731,8.801085472106934,-0.8762778043746948,0.823974609375,-8.9874267578125,-4.0130615234375
7.1299999000000005,1.6160861253738403,9.141061782836914,-0.9145850539207458,3.2196044921875,-12.2833251953125,3.936767578125
7.149999900000001,1.6735470294952393,9.35893440246582,-0.9145850539207458,-27.7557373046875,-8.209228515625,6.3323974609375
7.1699999000000005,1.699883222579956,9.421183586120605,-0.871489405632019,-23.25439453125,-4.7760009765625,-4.8675537109375
7.1899999,1.7190368175506592,9.409213066101074,-0.7422025203704834,-15.5792236328125,-19.5465087890625,-18.2952880859375
7.209999900000001,1.7094600200653076,9.406818389892578,-0.6799532771110535,-1.739501953125,-34.2559814453125,-12.14599609375
7.2299999,1.678335428237915,9.469067573547363,-0.6177040338516235,-6.2255859375,-22.4609375,1.953125
7.249999900000001,1.6400281190872192,9.586383819580078,-0.5889736413955688,-9.5367431640625,-9.5672607421875,3.753662109375
7.2699999,1.623268723487854,9.622296333312988,-0.6105214357376099,8.880615234375,-25.81787109375,2.777099609375
7.289999900000001,1.6280571222305298,9.62947940826416,-0.6512228846549988,14.2364501953125,-40.34423828125,3.4027099609375
7.3099999,1.6543933153152466,9.648633003234863,-0.7852981686592102,-1.8310546875,-30.3497314453125,2.777099609375
7.329999900000001,1.6519991159439087,9.615114212036133,-0.8140285611152649,-10.4522705078125,-12.6190185546875,4.8370361328125
7.3499999,1.6496049165725708,9.550470352172852,-0.7661445140838623,-14.129638671875,-30.57861328125,5.5389404296875
7.369999900000001,1.625662922859192,9.445125579833984,-0.7038952708244324,-2.105712890625,-62.469482421875,-1.3580322265625
7.3899999,1.580173134803772,9.418789863586426,-0.7805097699165344,5.462646484375,-40.1458740234375,-3.7994384765625
7.409999900000001,1.455674648284912,9.533711433410645,-1.01753568649292,-2.1514892578125,-2.9144287109375,3.90625
7.4299999,1.3646949529647827,9.44991397857666,-1.1348515748977661,-46.7071533203125,6.256103515625,21.66748046875
7.449999900000001,1.2545616626739502,9.318233489990234,-1.3742717504501343,-74.76806640625,-40.10009765625,9.857177734375
7.4699999,1.2018892765045166,9.260771751403809,-1.1540051698684692,-56.21337890625,-22.4151611328125,-31.097412109375
7.489999900000001,1.139639973640442,9.27034854888916,-0.9217676520347595,-37.1551513671875,7.781982421875,-26.641845703125
7.5099999,1.1994950771331787,9.241618156433105,-0.6105214357376099,-49.5758056640625,-16.0369873046875,7.537841796875
7.529999900000001,1.1659762859344482,9.500192642211914,-0.40222588181495667,-60.48583984375,-27.3895263671875,-22.1099853515625
7.5499999,1.2210428714752197,9.332598686218262,-0.21787235140800476,-57.4798583984375,6.8511962890625,-40.8935546875
7.569999900000001,1.2545616626739502,9.35654067993164,-0.0933738648891449,-93.7347412109375,30.8837890625,-42.48046875
7.5899999000000005,1.1683704853057861,9.588777542114258,0.15801730751991272,-100.52490234375,26.9317626953125,-36.7279052734375
7.609999900000001,1.1085153818130493,9.775525093078613,0.6200982332229614,-48.980712890625,19.866943359375,5.2642822265625
7.6299999000000005,0.9528923034667969,9.995792388916016,1.1468225717544556,4.7607421875,36.0565185546875,8.85009765625
7.649999900000001,0.8690952062606812,9.847352027893066,1.7286136150360107,19.6685791015625,46.905517578125,-5.0048828125
7.6699999000000005,0.8020575642585754,9.555258750915527,2.054224967956543,26.5960693359375,0.9613037109375,-24.10888671875
7.6899999,0.7733271718025208,9.17936897277832,2.0877439975738525,108.673095703125,-23.8037109375,-36.712646484375
7.709999900000001,0.7493851184844971,8.96149730682373,1.7573440074920654,139.373779296875,-4.3182373046875,-46.4019775390625
7.7299999,0.6991068720817566,8.951920509338379,0.9576807022094727,136.749267578125,11.3372802734375,-46.142578125
7.749999900000001,0.6009446382522583,9.17936897277832,0.20350714027881622,111.3739013671875,12.4053955078125,-40.252685546875
7.7699999,0.5171475410461426,9.411606788635254,-0.3878606855869293,125.3814697265625,6.0272216796875,-25.146484375
7.789999900000001,0.3998316824436188,9.792284965515137,-0.7158663272857666,111.175537109375,-11.0321044921875,-24.0936279296875
7.8099999,0.31124621629714966,9.967061996459961,-0.9457096457481384,95.5352783203125,-12.4053955078125,-13.427734375
7.829999900000001,0.23702596127986908,10.036493301391602,-1.3000515699386597,77.5909423828125,-13.763427734375,-3.4637451171875
7.8499999,0.1867477297782898,9.96945571899414,-1.699883222579956,58.10546875,-9.9639892578125,-8.941650390625
7.869999900000001,0.11252748221158981,9.95748519897461,-2.0661959648132324,28.9306640625,-7.7667236328125,-11.932373046875
7.8899999,0.05506663769483566,9.847352027893066,-2.425326347351074,0.30517578125,-20.4010009765625,4.0130615234375
7.909999900000001,0.004788403399288654,10.029311180114746,-2.387019157409668,-14.2822265625,-15.7928466796875,18.9971923828125
7.9299999,-0.08140286058187485,10.180145263671875,-2.5067291259765625,9.6588134765625,-20.599365234375,29.2205810546875
7.949999900000001,0.014365210197865963,10.070012092590332,-2.389413356781006,3.2806396484375,-21.91162109375,61.1419677734375
7.9699999,0.026336219161748886,9.979032516479492,-2.4205379486083984,-18.1732177734375,-19.4244384765625,53.192138671875
7.989999900000001,0.1867477297782898,9.299078941345215,-2.494758129119873,-7.8125,-19.4549560546875,48.64501953125
8.0099999,0.3974374830722809,8.461109161376953,-2.6024973392486572,-3.2958984375,-16.6168212890625,27.9388427734375
8.0299999,0.507570743560791,8.22887134552002,-2.760514497756958,2.5787353515625,-3.3721923828125,-32.7911376953125
8.049999900000001,0.5123591423034668,8.746018409729004,-2.7054479122161865,7.843017578125,18.951416015625,-33.0047607421875
8.069999900000001,0.507570743560791,9.373299598693848,-2.564189910888672,-1.03759765625,9.09423828125,60.6231689453125
8.0899999,0.42856210470199585,10.244789123535156,-2.319981336593628,6.561279296875,-24.6124267578125,64.605712890625
8.1099999,0.43095630407333374,10.503362655639648,-2.231395959854126,66.7572021484375,-24.8565673828125,17.9290771484375
8.129999900000001,0.5339069962501526,9.947908401489258,-2.5019407272338867,79.5745849609375,-6.8511962890625,45.10498046875
8.149999900000001,0.730231523513794,9.35654067993164,-2.980781078338623,9.6282958984375,15.5181884765625,56.7779541015625
8.1699999,0.9050082564353943,8.865729331970215,-3.3854012489318848,-20.1873779296875,35.2783203125,16.510009765625
8.1899999,1.1252747774124146,8.40843677520752,-3.6583402156829834,14.434814453125,33.4320068359375,15.44189453125
8.2099999,1.3694833517074585,8.348581314086914,-3.6080620288848877,41.3818359375,37.04833984375,24.5819091796875
8.229999900000001,1.501164436340332,8.619126319885254,-3.3949780464172363,43.1671142578125,42.66357421875,19.6075439453125
8.2499999,1.599326729774475,8.87051773071289,-3.2178070545196533,37.109375,29.693603515625,22.216796875
8.2699999,1.6735470294952393,8.918401718139648,-3.117250680923462,18.2647705078125,5.0201416015625,27.587890625
8.2899999,1.7094600200653076,8.669404029846191,-3.19865345954895,17.242431640625,-3.0517578125,9.21630859375
8.309999900000001,1.7525556087493896,8.322244644165039,-3.308786630630493,10.7574462890625,2.0751953125,-20.5841064453125
8.3299999,1.7693150043487549,8.245630264282227,-3.339911460876465,3.7689208984375,0.732421875,-28.564453125
8.3499999,1.7573440074920654,8.33182144165039,-3.246537446975708,-1.556396484375,-14.068603515625,-9.033203125
8.3699999,1.7621324062347412,8.662221908569336,-3.0765492916107178,-4.5318603515625,-25.1312255859375,5.4473876953125
8.389999900000001,1.7094600200653076,8.918401718139648,-2.9903578758239746,24.9481201171875,-8.7127685546875,-11.65771484375
8.4099999,1.723825216293335,8.848969459533691,-3.2297780513763428,30.1055908203125,-3.2806396484375,4.1046142578125
8.4299999,1.6687586307525635,8.889671325683594,-3.421314239501953,6.500244140625,18.9056396484375,1.129150390625
8.4499999,1.5682021379470825,8.96149730682373,-3.687070608139038,-13.3209228515625,25.5889892578125,-4.7454833984375
8.469999900000001,1.53707754611969,8.89685344696045,-3.9408559799194336,-25.360107421875,-1.3580322265625,14.9688720703125
8.4899999,1.4652514457702637,8.757989883422852,-3.866635799407959,-20.3399658203125,22.64404296875,-1.46484375
8.5099999,1.4844050407409668,8.44195556640625,-3.471592426300049,-43.9910888671875,29.1290283203125,-35.9954833984375
8.5299999,1.5155296325683594,8.20732307434082,-3.066972494125366,-23.834228515625,-22.0489501953125,-50.3082275390625
8.549999900000001,1.5203180313110352,8.219294548034668,-2.5665841102600098,-23.284912109375,-40.069580078125,-42.3431396484375
8.569999900000001,1.5059528350830078,8.564059257507324,-2.52109432220459,-33.7066650390625,-28.2745361328125,-28.076171875
8.5899999,1.3239935636520386,8.918401718139648,-2.6647465229034424,-25.482177734375,-1.0223388671875,-23.4375
8.6099999,1.2856862545013428,9.071630477905273,-2.497152328491211,-69.2901611328125,16.05224609375,-12.4359130859375
8.629999900000001,1.0606313943862915,9.368511199951172,-2.4803929328918457,-26.3519287109375,-22.857666015625,-35.5224609375
8.649999900000001,1.039083480834961,9.433155059814453,-2.389413356781006,-10.3912353515625,-28.564453125,-16.6473388671875
8.6699999,0.9074024558067322,9.775525093078613,-2.4181437492370605,-41.1376953125,21.820068359375,-8.7890625
8.6899999,0.8834604024887085,9.897629737854004,-2.4157495498657227,-60.3790283203125,37.3687744140625,-5.9967041015625
8.709999900000001,0.7781155705451965,9.979032516479492,-2.454056739807129,-35.3240966796875,-11.474609375,-11.5966796875
8.729999900000001,0.7565677165985107,9.78989028930664,-2.0685901641845703,-19.805908203125,-13.1683349609375,-10.711669921875
8.7499999,0.7182605266571045,9.706093788146973,-1.766920804977417,-20.477294921875,13.7481689453125,-12.3748779296875
8.7699999,0.6703764796257019,9.648633003234863,-1.6639702320098877,3.7994384765625,-0.7171630859375,-11.7034912109375
8.7899999,0.629675030708313,9.588777542114258,-1.6519991159439087,5.4168701171875,-11.627197265625,3.4637451171875
8.809999900000001,0.5674257874488831,9.533711433410645,-1.8363527059555054,2.8076171875,1.2054443359375,1.9378662109375
8.8299999,0.5219359993934631,9.519346237182617,-2.011129379272461,15.56396484375,26.9317626953125,-11.474609375
8.8499999,0.4884171485900879,9.622296333312988,-1.9943699836730957,14.5416259765625,22.369384765625,-12.786865234375
8.8699999,0.524330198764801,9.715670585632324,-1.920149803161621,24.658203125,-13.519287109375,9.7503662109375
8.889999900000001,0.5889736413955688,9.746794700622559,-1.802833914756775,26.4129638671875,-15.899658203125,11.260986328125
8.9099999,0.7469909191131592,9.473855972290039,-1.9249382019042969,17.08984375,1.52587890625,-7.4920654296875
8.9299999,0.8307880163192749,9.114726066589355,-2.078166961669922,-27.4200439453125,6.683349609375,-25.482177734375
8.9499999,0.8451532125473022,8.908824920654297,-2.233790159225464,-28.25927734375,-6.0577392578125,-26.1383056640625
8.969999900000001,0.7637503147125244,8.927978515625,-2.169146776199341,-8.7890625,-11.6119384765625,-6.988525390625
8.9899999,0.5937620401382446,9.160215377807617,-2.0661959648132324,-18.9361572265625,-12.237548828125,1.52587890625
9.0099999,0.4165911078453064,9.433155059814453,-1.9632453918457031,-19.0582275390625,-10.986328125,-3.631591796875
9.0299999,0.30885201692581177,9.682151794433594,-1.9512743949890137,-0.2593994140625,-8.453369140625,-3.7689208984375
9.049999900000001,0.24181437492370605,9.78989028930664,-2.0183119773864746,4.57763671875,-7.1868896484375,10.3607177734375
9.069999900000001,0.19632454216480255,9.876082420349121,-2.0446481704711914,-12.5885009765625,-0.6256103515625,13.2904052734375
9.0899999,0.2992752194404602,9.856928825378418,-2.0638017654418945,-3.84521484375,8.758544921875,10.0250244140625
9.1099999,0.3734954595565796,9.670180320739746,-1.9752163887023926,-1.373291015625,0.1068115234375,18.9361572265625
9.129999900000001,0.5171475410461426,9.397241592407227,-1.8507179021835327,-19.439697265625,-16.357421875,20.4010009765625
9.149999900000001,0.6536170840263367,9.133879661560059,-1.920149803161621,-19.500732421875,-25.8941650390625,2.288818359375
9.1699999,0.6943184733390808,8.987833023071289,-2.030282974243164,-24.5513916015625,-13.6260986328125,-11.41357421875
9.1899999,0.7326257228851318,8.968679428100586,-2.185906171798706,-32.6995849609375,3.3416748046875,-1.1444091796875
9.209999900000001,0.6967126727104187,9.241618156433105,-2.166752576828003,-51.9866943359375,5.3253173828125,-0.3662109375
9.229999900000001,0.6991068720817566,9.579200744628906,-1.889025092124939,-54.3975830078125,1.8463134765625,-6.5460205078125
9.2499999,0.7038952708244324,9.751583099365234,-1.4676456451416016,-28.2745361328125,1.2969970703125,6.0272216796875
9.2699999,0.7326257228851318,9.679757118225098,-1.1875240802764893,-1.922607421875,-10.0555419921875,10.284423828125
9.2899999,0.727837324142456,9.521739959716797,-1.0319008827209473,-10.19287109375,-10.0555419921875,-10.6658935546875
9.309999900000001,0.7493851184844971,9.351752281188965,-1.0127472877502441,-20.8587646484375,-2.8533935546875,-20.7672119140625
9.3299999,0.6991068720817566,9.337387084960938,-1.0438719987869263,-14.1143798828125,-5.9967041015625,-4.6844482421875
9.3499999,0.6440402865409851,9.548076629638672,-1.0079588890075684,-30.914306640625,-14.7247314453125,5.9967041015625
9.3699999,0.5554547905921936,9.849745750427246,-0.9409212470054626,-5.859375,-1.5869140625,-0.5340576171875
9.389999900000001,0.44532153010368347,10.034099578857422,-0.8858546018600464,-10.5133056640625,1.6326904296875,5.8746337890625
9.4099999,0.40462008118629456,10.005369186401367,-0.8427590131759644,-17.669677734375,-8.7127685546875,18.1884765625
9.4299999,0.44771572947502136,9.821015357971191,-0.6919242739677429,-34.332275390625,-16.571044921875,3.84521484375
9.4499999,0.5003881454467773,9.569623947143555,-0.5793967843055725,-11.1846923828125,-18.9208984375,-19.317626953125
9.469999900000001,0.5985504388809204,9.244012832641602,-0.6751648783683777,-3.9825439453125,-20.294189453125,-17.39501953125
9.4899999,0.6416460275650024,9.186552047729492,-0.6967126727104187,-56.243896484375,10.5743408203125,-21.392822265625
9.5099999,0.5937620401382446,9.205705642700195,-0.5051765441894531,-104.30908203125,29.1748046875,-27.2369384765625
9.5299999,0.5410895943641663,9.29189682006836,-0.15322890877723694,-54.2449951171875,-7.8887939453125,-20.263671875
9.549999900000001,0.44532153010368347,9.493009567260742,0.21547815203666687,48.614501953125,-30.6854248046875,-21.270751953125
9.569999900000001,0.38307225704193115,9.68694019317627,0.5195417404174805,31.55517578125,-12.8173828125,-14.6636962890625
9.5899999,0.31124621629714966,9.897629737854004,0.2968810200691223,-8.6822509765625,-13.153076171875,-1.739501953125
9.6099999,0.2944868206977844,9.921571731567383,0.05746084079146385,-8.7890625,-7.0648193359375,6.34765625
9.629999900000001,0.2777273952960968,9.818621635437012,-0.11252748221158981,-37.8265380859375,-1.678466796875,0.42724609375
9.649999900000001,0.2849099934101105,9.658209800720215,-0.2777273952960968,-17.9595947265625,-6.1187744140625,-16.815185546875
9.6699999,0.2849099934101105,9.531316757202148,-0.16998831927776337,-26.8096923828125,9.490966796875,-14.434814453125
9.6899999,0.2753331959247589,9.579200744628906,0.08858546614646912,-27.2979736328125,13.6260986328125,-4.08935546875
9.709999900000001,0.2561795711517334,9.66539192199707,0.33758243918418884,7.3699951171875,-8.3160400390625,2.166748046875
9.729999900000001,0.22026655077934265,9.691728591918945,0.5722141861915588,12.969970703125,-15.350341796875,1.7852783203125
9.7499999,0.1604115068912506,9.627084732055664,0.6655880808830261,-2.0599365234375,-0.8544921875,-5.0048828125
9.7699999,0.12449848651885986,9.497797966003418,0.5123591423034668,-0.5035400390625,-4.119873046875,-7.7362060546875
9.7899999,0.05746084079146385,9.421183586120605,0.33279404044151306,-5.2032470703125,-10.3759765625,-9.2010498046875
9.809999900000001,0.023942016065120697,9.385271072387695,0.14365209639072418,-11.627197265625,-6.9122314453125,-7.5225830078125
9.8299999,-0.021547814831137657,9.440337181091309,0.026336219161748886,-23.7274169921875,-0.6561279296875,-7.01904296875
9.8499999,-0.05267243832349777,9.476250648498535,0.05027823522686958,-27.2369384765625,2.655029296875,-3.90625
9.8699999,-0.08858546614646912,9.497797966003418,0.16519992053508759,-25.8026123046875,-7.965087890625,-4.5166015625
9.889999900000001,-0.12928688526153564,9.516951560974121,0.2513911724090576,-15.3656005859375,-13.7176513671875,-10.711669921875
9.9099999,-0.15322890877723694,9.526528358459473,0.35913026332855225,-19.134521484375,1.5716552734375,-8.8958740234375
9.9299999,-0.17477671802043915,9.583989143371582,0.45010992884635925,-29.6173095703125,11.0321044921875,-5.4931640625
9.9499999,-0.17956513166427612,9.684545516967773,0.5937620401382446,-23.712158203125,-0.2899169921875,-3.6163330078125
9.969999900000001,-0.15801730751991272,9.734824180603027,0.7613561153411865,-10.3607177734375,-10.8184814453125,0.0152587890625
9.9899999,-0.12449848651885986,9.749189376831055,0.9241618514060974,-12.2528076171875,-4.9896240234375,0.335693359375
10.0099999,-0.08379705995321274,9.744400978088379,1.0462661981582642,-20.0042724609375,-2.044677734375,-4.730224609375
10.0299999,-0.05506663769483566,9.75397777557373,1.0965443849563599,-13.5498046875,-12.75634765625,-3.5400390625
10.049999900000001,-0.040701430290937424,9.806650161743164,1.1779472827911377,-11.444091796875,-14.7705078125,2.3651123046875
10.069999900000001,-0.035913024097681046,9.832986831665039,1.1875240802764893,-9.4757080078125,-9.185791015625,9.246826171875
10.0899999,-0.026336219161748886,9.859322547912598,1.1635819673538208,-6.927490234375,-9.552001953125,5.1116943359375
10.1099999,-0.0071826050989329815,9.837775230407715,1.1468225717544556,-9.8724365234375,-12.3748779296875,2.8533935546875
10.129999900000001,0.021547814831137657,9.78989028930664,1.1635819673538208,2.9296875,-11.016845703125,9.1400146484375
10.149999900000001,0.043095629662275314,9.742006301879883,1.1252747774124146,9.46044921875,-13.1683349609375,9.7198486328125
10.1699999,0.0694318488240242,9.677363395690918,1.05105459690094,9.8724365234375,-7.720947265625,3.7841796875
10.1899999,0.08619125932455063,9.569623947143555,0.993593692779541,8.3160400390625,2.044677734375,1.6326904296875
10.209999900000001,0.1149216815829277,9.466673851013184,0.8834604024887085,12.1612548828125,-1.6937255859375,1.068115234375
10.229999900000001,0.11013327538967133,9.490615844726562,0.8523358106613159,4.6844482421875,-3.021240234375,-7.171630859375
10.2499999,0.10773907601833344,9.521739959716797,0.8786720037460327,3.84521484375,5.462646484375,-2.4871826171875
10.2699999,0.090979665517807,9.5624418258667,0.8810662031173706,3.753662109375,-0.335693359375,6.53076171875
10.2899999,0.08379705995321274,9.579200744628906,0.8954314589500427,-1.6326904296875,-4.791259765625,0.3509521484375
10.309999900000001,0.08379705995321274,9.533711433410645,0.933738648891449,-19.1192626953125,1.190185546875,-5.950927734375
10.3299999,0.08619125932455063,9.488221168518066,1.0031704902648926,-21.392822265625,4.39453125,-2.899169921875
10.3499999,0.08140286058187485,9.452308654785156,1.0749965906143188,-2.0904541015625,-2.3651123046875,1.0528564453125
10.3699999,0.06703764945268631,9.442731857299805,1.1540051698684692,5.2642822265625,-3.997802734375,-0.1373291015625
10.389999900000001,0.05027823522686958,9.433155059814453,1.2186486721038818,-4.913330078125,3.72314453125,-4.302978515625
10.4099999,0.023942016065120697,9.44752025604248,1.2449848651885986,-7.75146484375,3.23486328125,-4.0130615234375
10.4299999,-0.002394201699644327,9.488221168518066,1.237802267074585,6.8359375,-3.936767578125,-1.3275146484375
10.4499999,-0.026336219161748886,9.557653427124023,1.192312479019165,11.2762451171875,-4.7149658203125,-1.0986328125
10.469999900000001,-0.0454898327589035,9.612719535827637,1.0821791887283325,0.3814697265625,1.64794921875,-2.2735595703125
10.4899999,-0.028730420395731926,9.59835433959961,1.036689281463623,-11.627197265625,8.9263916015625,0.8544921875
10.5099999,-0.011971008032560349,9.591172218322754,0.9888052940368652,-0.8544921875,2.7923583984375,-2.288818359375
10.5299999,0.019153613597154617,9.548076629638672,1.0079588890075684,7.99560546875,-2.01416015625,-4.425048828125
10.549999900000001,0.038307227194309235,9.531316757202148,1.0869675874710083,3.448486328125,6.7901611328125,-2.86865234375
10.569999900000001,0.033518824726343155,9.564835548400879,1.1827356815338135,3.1280517578125,9.002685546875,-2.62451171875
10.5899999,0.016759412363171577,9.607931137084961,1.2186486721038818,10.0555419921875,-4.69970703125,0.244140625
10.6099999,0.002394201699644327,9.63187313079834,1.213860273361206,13.48876953125,-7.0037841796875,0.946044921875
10.629999900000001,0,9.646238327026367,1.139639973640442,9.674072265625,5.43212890625,-0.9002685546875
10.649999900000001,0.002394201699644327,9.660603523254395,0.9864110946655273,13.5955810546875,8.0413818359375,-2.3193359375
10.6699999,-0.009576806798577309,9.694122314453125,0.8571242094039917,15.3961181640625,0.3814697265625,-0.6103515625
10.6899999,-0.031124621629714966,9.715670585632324,0.7757213711738586,12.725830078125,0.30517578125,1.3580322265625
10.709999900000001,-0.040701430290937424,9.6989107131958,0.6440402865409851,14.5111083984375,4.6234130859375,-1.1444091796875
10.729999900000001,-0.06464344263076782,9.677363395690918,0.6105214357376099,10.986328125,13.7176513671875,-5.584716796875
10.7499999,-0.0694318488240242,9.607931137084961,0.6919242739677429,-0.823974609375,10.711669921875,-3.875732421875
10.7699999,-0.090979665517807,9.543288230895996,0.7733271718025208,12.8021240234375,-6.9580078125,-0.6561279296875
10.7899999,-0.12928688526153564,9.445125579833984,0.828393816947937,12.0697021484375,-9.552001953125,-2.288818359375
10.809999900000001,-0.16998831927776337,9.390059471130371,0.7637503147125244,6.7901611328125,3.84521484375,-7.0953369140625
10.8299999,-0.19632454216480255,9.346963882446289,0.608127236366272,14.9078369140625,12.3138427734375,-6.011962890625
10.8499999,-0.17238251864910126,9.370905876159668,0.5219359993934631,17.02880859375,10.5133056640625,-1.129150390625
10.8699999,-0.10773907601833344,9.433155059814453,0.5985504388809204,1.4801025390625,4.486083984375,-3.936767578125
10.889999900000001,-0.10534487664699554,9.550470352172852,0.6177040338516235,-11.6729736328125,-11.474609375,-7.9498291015625
10.9099999,-0.07900865375995636,9.694122314453125,0.6105214357376099,4.0130615234375,-4.7454833984375,-5.767822265625
10.9299999,-0.1364694982767105,9.84495735168457,0.6200982332229614,4.0740966796875,13.671875,3.0059814453125
10.9499999,-0.1843535304069519,9.943120002746582,0.6129156351089478,0.5340576171875,8.1024169921875,6.1187744140625
10.969999900000001,-0.19153612852096558,9.938331604003906,0.6105214357376099,13.824462890625,-5.9051513671875,1.861572265625
10.9899999,-0.16519992053508759,9.797073364257812,0.6703764796257019,11.8865966796875,0.9918212890625,3.7078857421875
11.0099999,-0.1173158809542656,9.619902610778809,0.6847416758537292,-3.6773681640625,7.476806640625,1.8157958984375
11.0299999,0,9.423578262329102,0.7374141216278076,3.7384033203125,1.953125,-4.57763671875
11.049999900000001,0.15322890877723694,9.181763648986816,0.9744400978088379,-13.092041015625,-7.5225830078125,-7.7972412109375
11.069999900000001,0.2346317619085312,9.153033256530762,1.2210428714752197,-36.4227294921875,-29.083251953125,-22.064208984375
11.0899999,0.2801215946674347,9.188945770263672,1.4317326545715332,-11.90185546875,-33.660888671875,-21.1639404296875
11.1099999,0.2777273952960968,9.344569206237793,1.6711528301239014,-10.5743408203125,-23.8037109375,-12.26806640625
11.129999900000001,0.29209262132644653,9.557653427124023,1.8387469053268433,-16.082763671875,-33.1878662109375,-19.0277099609375
11.149999900000001,0.33758243918418884,9.876082420349121,1.8507179021835327,-0.732421875,-58.1512451171875,-29.6783447265625
11.1699999,0.4405331015586853,10.47702693939209,1.8411411046981812,26.4892578125,-41.4581298828125,-27.9388427734375
11.1899999,0.45489832758903503,11.523292541503906,1.7717092037200928,-1.8768310546875,-20.538330078125,-11.2152099609375
11.209999900000001,0.3878606855869293,12.87362289428711,1.7932571172714233,-12.908935546875,-34.8052978515625,17.547607421875
11.229999900000001,0.30885201692581177,14.12818431854248,1.7525556087493896,40.3900146484375,-69.39697265625,47.05810546875
11.2499999,0.12210428714752197,15.327679634094238,1.3215993642807007,71.9146728515625,-90.8050537109375,41.0308837890625
11.2699999,-0.17956513166427612,16.263813018798828,0.4118026793003082,53.497314453125,-67.3828125,51.7578125
11.2899999,-0.5674257874488831,16.814477920532227,-0.9145850539207458,53.1768798828125,-38.0706787109375,110.7177734375
11.309999900000001,-1.1085153818130493,16.936582565307617,-2.343923568725586,74.462890625,-29.7393798828125,151.611328125
11.3299999,-1.647210717201233,16.045940399169922,-3.6511576175689697,111.968994140625,-21.331787109375,175.6439208984375
11.3499999,-2.097320795059204,14.156914710998535,-4.630385875701904,135.0250244140625,21.97265625,179.6417236328125
11.3699999,-2.4396915435791016,11.535264015197754,-5.415684223175049,131.9580078125,55.8013916015625,158.233642578125
11.389999900000001,-2.719813108444214,8.621520042419434,-5.940014362335205,105.010986328125,69.8394775390625,141.6473388671875
11.4099999,-2.9472622871398926,5.796362400054932,-6.117185115814209,78.369140625,102.6611328125,130.340576171875
11.4299999,-3.1100680828094482,3.162740468978882,-6.145915985107422,76.6754150390625,137.054443359375,117.2637939453125
11.4499999,-3.224989652633667,0.5937620401382446,-6.066906929016113,86.3800048828125,168.7469482421875,88.9892578125
11.469999900000001,-3.1962592601776123,-1.900996208190918,-5.272032260894775,17.242431640625,229.9957275390625,30.1666259765625
11.4899999,-3.112462282180786,-4.089296340942383,-3.5051112174987793,-5.31005859375,276.458740234375,-53.9398193359375
11.5099999,-2.8107926845550537,-5.8873419761657715,-0.7996633648872375,17.88330078125,209.808349609375,-120.1934814453125
11.5299999,-2.535459518432617,-6.576871871948242,1.534683346748352,83.221435546875,93.7957763671875,-204.315185546875
11.549999900000001,-2.4444799423217773,-5.765237808227539,3.292027235031128,80.078125,120.2850341796875,-284.0728759765625
11.569999900000001,-2.7222073078155518,-2.9903578758239746,4.776432514190674,-46.5240478515625,236.8927001953125,-339.7064208984375
11.5899999,-3.160346269607544,1.2258312702178955,6.833051681518555,-180.9234619140625,217.34619140625,-332.733154296875
11.6099999,-3.670311212539673,6.63433313369751,9.797073364257812,-178.955078125,54.8248291015625,-312.408447265625
11.629999900000001,-3.9384617805480957,12.133813858032227,13.713987350463867,-86.3494873046875,-9.5062255859375,-303.7567138671875
11.649999900000001,-4.048594951629639,17.130512237548828,17.50161361694336,-37.628173828125,-18.0816650390625,-267.669677734375
11.6699999,-4.278438568115234,21.37543296813965,19.912574768066406,30.57861328125,-179.3060302734375,-207.9620361328125
11.6899999,-4.922478675842285,24.648305892944336,19.235015869140625,105.46875,-425.9490966796875,-110.90087890625
11.709999900000001,-5.829881191253662,26.204538345336914,14.958971977233887,187.0880126953125,-455.99365234375,-10.9405517578125
11.729999900000001,-6.4595561027526855,25.44318199157715,7.378929615020752,196.7315673828125,-239.3951416015625,101.043701171875
11.7499999,-6.931213855743408,23.39613914489746,-1.2449848651885986,46.2799072265625,-116.5771484375,74.5391845703125
11.7699999,-6.8809356689453125,20.23100471496582,-8.525752067565918,9.368896484375,-118.621826171875,57.3883056640625
11.7899999,-6.610390663146973,16.962919235229492,-12.823344230651855,16.9677734375,-75.2410888671875,133.4686279296875
11.809999900000001,-6.380547523498535,14.159308433532715,-14.475343704223633,1.9683837890625,-3.7078857421875,163.6962890625
11.8299999,-5.971138954162598,11.085153579711914,-13.833697319030762,-44.891357421875,45.22705078125,164.031982421875
11.8499999,-5.39174222946167,7.955932140350342,-11.322179794311523,-88.92822265625,67.0623779296875,131.2255859375
11.8699999,-4.417302131652832,4.903325080871582,-7.716512203216553,-69.9920654296875,62.0574951171875,93.8568115234375
11.889999900000001,-3.1747114658355713,2.52109432220459,-3.8953661918640137,-44.4488525390625,42.7398681640625,63.8885498046875
11.9099999,-1.8315643072128296,1.2282254695892334,-0.3208230137825012,-47.027587890625,59.417724609375,26.153564453125
11.9299999,-0.5913678407669067,1.1324573755264282,2.607285737991333,-50.323486328125,64.2242431640625,0.48828125
11.9499999,0.3232172429561615,2.1116859912872314,4.757278919219971,-11.41357421875,20.660400390625,-6.4849853515625
11.969999900000001,0.871489405632019,3.778050184249878,5.837063789367676,19.1192626953125,-27.6947021484375,-5.1727294921875
11.9899999,1.048660397529602,5.592854976654053,5.743690013885498,23.5595703125,-29.6173095703125,-8.697509765625
12.0099999,1.0103530883789062,7.180211067199707,4.644751071929932,23.040771484375,1.3427734375,-17.4713134765625
12.0299999,0.811634361743927,8.456320762634277,3.1292216777801514,19.59228515625,14.5111083984375,-27.0538330078125
12.049999900000001,0.5722141861915588,9.433155059814453,1.9345149993896484,25.054931640625,11.3983154296875,-24.2156982421875
12.069999900000001,0.3519476354122162,10.144232749938965,1.2018892765045166,36.92626953125,-0.6256103515625,-13.0462646484375
12.0899999,0.19871874153614044,10.618284225463867,0.912190854549408,41.07666015625,-1.434326171875,-6.9580078125
12.1099999,0.1149216815829277,10.781089782714844,0.7972691655158997,36.773681640625,3.4942626953125,-6.3323974609375
12.129999900000001,0.090979665517807,10.685321807861328,0.7493851184844971,27.8472900390625,3.4942626953125,-6.0577392578125
12.149999900000001,0.06703764945268631,10.548852920532227,0.7350199222564697,14.0228271484375,0.5340576171875,-10.406494140625
12.1699999,0.05985504388809204,10.376470565795898,0.7709329724311829,9.9029541015625,2.288818359375,-5.462646484375
12.1899999,0.038307227194309235,10.24239444732666,0.7374141216278076,15.8538818359375,-1.9378662109375,2.50244140625
12.209999900000001,0.040701430290937424,10.108319282531738,0.706289529800415,11.1083984375,-0.4730224609375,1.953125
12.229999900000001,0.028730420395731926,10.077195167541504,0.6775590777397156,-0.213623046875,3.8604736328125,-6.4697265625
12.2499999,0.047884032130241394,10.007762908935547,0.5841852426528931,-0.8087158203125,-3.5858154296875,1.1749267578125
12.2699999,0.08140286058187485,9.93593692779541,0.6200982332229614,-5.889892578125,-1.89208984375,12.4664306640625
12.289999900000002,0.11971008777618408,9.835380554199219,0.6177040338516235,-12.1612548828125,-3.4027099609375,4.8675537109375
12.309999900000001,0.1412578970193863,9.682151794433594,0.6655880808830261,-19.59228515625,-8.148193359375,-2.62451171875
12.3299999,0.1364694982767105,9.524134635925293,0.6727706789970398,-26.7333984375,-8.636474609375,1.9073486328125
12.3499999,0.07900865375995636,9.469067573547363,0.6368576288223267,-32.8826904296875,-9.1400146484375,4.8065185546875
12.3699999,0.026336219161748886,9.373299598693848,0.706289529800415,-34.9578857421875,-0.244140625,4.669189453125
12.389999900000001,-0.016759412363171577,9.289502143859863,0.7326257228851318,-19.3023681640625,-6.04248046875,-0.8544921875
12.4099999,-0.040701430290937424,9.217676162719727,0.8307880163192749,-13.458251953125,-10.833740234375,-5.2337646484375
12.4299999,-0.026336219161748886,9.138668060302734,0.9552865028381348,-17.9901123046875,-2.9449462890625,-0.518798828125
12.4499999,0,9.105149269104004,1.036689281463623,-10.07080078125,-2.0599365234375,-2.9449462890625
12.469999900000001,0.023942016065120697,9.095572471618652,1.216254472732544,5.8135986328125,-2.288818359375,-9.2926025390625
12.4899999,0.028730420395731926,9.191340446472168,1.3239935636520386,22.03369140625,-6.317138671875,-9.979248046875
12.5099999,0.014365210197865963,9.308655738830566,1.3000515699386597,20.69091796875,-12.0849609375,-0.54931640625
12.5299999,0.0071826050989329815,9.430760383605957,1.170764684677124,12.26806640625,0.6103515625,2.105712890625
12.549999900000001,-0.009576806798577309,9.57441234588623,0.9169792532920837,2.86865234375,5.584716796875,-11.4593505859375
12.569999900000001,-0.009576806798577309,9.605537414550781,0.7493851184844971,-0.6103515625,3.60107421875,-12.9241943359375
12.5899999,-0.002394201699644327,9.612719535827637,0.7398083209991455,9.5367431640625,5.5999755859375,-5.6610107421875
12.6099999,-0.021547814831137657,9.655815124511719,0.7637503147125244,20.721435546875,2.0599365234375,-8.453369140625
12.629999900000001,-0.019153613597154617,9.593565940856934,0.8595184087753296,19.378662109375,5.0048828125,-8.270263671875
12.649999900000001,-0.0454898327589035,9.536105155944824,1.0247182846069336,10.4217529296875,10.0860595703125,-9.3841552734375
12.6699999,-0.040701430290937424,9.418789863586426,1.113303780555725,14.5416259765625,-2.105712890625,-12.0086669921875
12.6899999,-0.06464344263076782,9.277531623840332,1.1252747774124146,12.176513671875,-11.3067626953125,-15.9759521484375
12.709999900000001,-0.047884032130241394,9.093177795410156,1.1899182796478271,7.7667236328125,5.5694580078125,-20.44677734375
12.729999900000001,-0.05985504388809204,8.899248123168945,1.2425906658172607,11.8865966796875,8.8958740234375,-25.2227783203125
12.7499999,-0.0071826050989329815,8.686163902282715,1.1037269830703735,38.9251708984375,-17.0135498046875,-30.7464599609375
12.7699999,0.15801730751991272,8.453926086425781,1.0797849893569946,23.7884521484375,-5.279541015625,-37.2772216796875
12.789999900000002,0.45010992884635925,8.394071578979492,1.2186486721038818,-14.9383544921875,22.0184326171875,-54.38232421875
12.809999900000001,0.8403648138046265,8.664615631103516,1.7597382068634033,-40.557861328125,8.0718994140625,-71.563720703125
12.8299999,1.0414776802062988,9.66299819946289,2.6144683361053467,-53.497314453125,-47.576904296875,-77.3468017578125
12.8499999,0.9241618514060974,11.322179794311523,3.7445313930511475,-49.31640625,-66.009521484375,-60.455322265625
12.8699999,0.37828385829925537,13.443442344665527,4.41969633102417,-6.53076171875,-75.01220703125,-28.2745361328125
12.889999900000001,-0.6153098344802856,15.91425895690918,4.101267337799072,42.4346923828125,-123.1536865234375,-13.8702392578125
12.9099999,-1.9632453918457031,18.327613830566406,2.6216509342193604,34.6527099609375,-145.4315185546875,14.2669677734375
12.9299999,-3.3686418533325195,20.013132095336914,0.24420857429504395,23.92578125,-88.3331298828125,101.9744873046875
12.9499999,-4.575319290161133,20.429723739624023,-2.4013843536376953,24.9481201171875,-27.8778076171875,178.6956787109375
12.969999900000001,-5.408501625061035,19.405004501342773,-4.766855716705322,51.1322021484375,-26.2298583984375,178.5430908203125
12.9899999,-5.781997203826904,16.960525512695312,-6.172252178192139,72.845458984375,-2.4871826171875,175.9490966796875
13.0099999,-5.815515995025635,13.7882080078125,-6.682217121124268,66.9708251953125,51.5594482421875,202.9876708984375
13.0299999,-5.70777702331543,10.350133895874023,-6.648698329925537,64.788818359375,69.7784423828125,221.3287353515625
13.049999900000001,-5.3797712326049805,6.7492547035217285,-6.256049156188965,66.0552978515625,83.6029052734375,204.77294921875
13.069999900000001,-4.8937482833862305,3.3207578659057617,-5.674258232116699,50.994873046875,140.9454345703125,142.120361328125
13.0899999,-4.333505153656006,0.3423708379268646,-4.7836151123046875,10.2691650390625,208.0078125,83.770751953125
13.1099999,-3.7660791873931885,-2.051830768585205,-3.4739866256713867,16.1285400390625,228.5003662109375,59.6771240234375
13.129999900000001,-3.2417490482330322,-4.060565948486328,-1.680729627609253,45.867919921875,213.0126953125,20.9808349609375
13.149999900000001,-2.655169725418091,-5.841852188110352,0.16998831927776337,10.345458984375,195.86181640625,-60.7757568359375
13.1699999,-2.2457611560821533,-6.8378400802612305,1.8818424940109253,-73.638916015625,208.6334228515625,-176.33056640625
13.1899999,-1.8938134908676147,-7.2113356590271,4.563348293304443,-174.9114990234375,292.0684814453125,-214.1265869140625
13.209999900000001,-1.6927006244659424,-6.224924564361572,9.157821655273438,-242.3248291015625,325.3173828125,-253.021240234375
13.229999900000001,-1.8148049116134644,-3.579331636428833,14.743494033813477,-126.6021728515625,106.903076171875,-349.8077392578125
13.2499999,-2.1499931812286377,0.5291185975074768,19.491195678710938,85.0067138671875,-136.53564453125,-373.3062744140625
13.2699999,-2.8826189041137695,6.562506675720215,22.498313903808594,59.7991943359375,-108.245849609375,-345.1385498046875
13.289999900000002,-3.8331170082092285,13.163320541381836,22.005107879638672,19.53125,-95.8404541015625,-230.9112548828125
13.309999900000001,-4.8722004890441895,19.141643524169922,18.452112197875977,120.4071044921875,-247.314453125,-93.56689453125
13.3299999,-5.748478412628174,23.39613914489746,13.309367179870605,99.4110107421875,-274.444580078125,-54.290771484375
13.3499999,-6.339846134185791,25.39529800415039,7.680599212646484,44.4793701171875,-136.65771484375,-15.5487060546875
13.3699999,-6.780379295349121,25.732879638671875,2.583343744277954,42.66357421875,-112.4725341796875,44.5709228515625
13.389999900000001,-7.240066051483154,24.72252655029297,-1.625662922859192,119.232177734375,-230.9417724609375,122.1923828125
13.4099999,-7.5417351722717285,22.213403701782227,-5.054159641265869,172.5921630859375,-235.9771728515625,195.9075927734375
13.4299999,-7.625532627105713,18.23184585571289,-8.669404029846191,140.93017578125,-76.0650634765625,210.5712890625
13.4499999,-7.187393665313721,12.971784591674805,-11.346121788024902,6.2713623046875,120.78857421875,169.7845458984375
13.469999900000001,-6.205770969390869,7.625532627105713,-11.743558883666992,-98.69384765625,202.0263671875,106.1248779296875
13.4899999,-4.716577529907227,3.177105665206909,-9.083600997924805,-88.8519287109375,169.61669921875,55.6793212890625
13.5099999,-3.021482467651367,0.38546648621559143,-4.082113742828369,-51.2542724609375,105.4840087890625,35.4766845703125
13.5299999,-1.4221558570861816,-0.5770025849342346,1.4532804489135742,-30.4107666015625,45.257568359375,10.4217529296875
13.549999900000001,-0.08858546614646912,-0.1867477297782898,5.872976779937744,-10.4522705078125,7.8582763671875,-8.758544921875
13.569999900000001,0.7852981686592102,1.2186486721038818,8.279149055480957,12.51220703125,-5.06591796875,-25.9552001953125
13.5899999,1.2018892765045166,3.19865345954895,8.53293514251709,12.054443359375,-13.0767822265625,-38.543701171875
13.6099999,1.2665326595306396,5.3342814445495605,7.479485988616943,-1.8463134765625,3.204345703125,-34.1339111328125
13.629999900000001,1.0606313943862915,7.3693528175354,6.007051944732666,10.8184814453125,21.728515625,-34.393310546875
13.649999900000001,0.730231523513794,9.016563415527344,4.656722068786621,47.05810546875,-2.0599365234375,-35.2020263671875
13.6699999,0.33758243918418884,10.259154319763184,3.6727054119110107,68.29833984375,-26.0772705078125,-30.21240234375
13.6899999,-0.06464344263076782,11.111490249633789,2.695871114730835,67.4591064453125,-26.1993408203125,-23.98681640625
13.709999900000001,-0.31364041566848755,11.499350547790527,1.656787633895874,49.2095947265625,-3.3416748046875,-4.3182373046875
13.729999900000001,-0.4692635238170624,11.590330123901367,0.8643068075180054,33.14208984375,25.81787109375,-3.5247802734375
13.7499999,-0.4668693244457245,11.44907283782959,0.5339069962501526,21.728515625,20.477294921875,-11.1083984375
13.7699999,-0.38546648621559143,11.149797439575195,0.7326257228851318,19.866943359375,-3.4942626953125,-3.0670166015625
13.789999900000002,-0.2561795711517334,10.766724586486816,1.1037269830703735,31.3873291015625,-15.0909423828125,10.284423828125
13.809999900000001,-0.1412578970193863,10.390835762023926,1.2617442607879639,36.2091064453125,-9.979248046875,1.556396484375
13.8299999,-0.090979665517807,10.022128105163574,1.2258312702178955,16.4031982421875,4.8675537109375,-7.049560546875
13.8499999,-0.10534487664699554,9.758766174316406,1.0869675874710083,0.0762939453125,6.2408447265625,-0.457763671875
13.8699999,-0.19153612852096558,9.643844604492188,0.9361328482627869,1.3580322265625,-8.85009765625,7.781982421875
13.889999900000001,-0.2944868206977844,9.545681953430176,0.8643068075180054,-6.6070556640625,-10.345458984375,8.5601806640625
13.9099999,-0.35434186458587646,9.35654067993164,0.8906430602073669,-17.242431640625,5.37109375,5.3253173828125
13.9299999,-0.3758896589279175,9.10993766784668,0.8786720037460327,-22.369384765625,-1.953125,-0.9765625
13.9499999,-0.33758243918418884,8.83939266204834,0.9768342971801758,-35.2935791015625,-11.7340087890625,-3.6773681640625
13.969999900000001,-0.2992752194404602,8.734047889709473,1.1085153818130493,-43.3807373046875,-5.3253173828125,-8.36181640625
13.9899999,-0.26336219906806946,8.803479194641113,1.4101848602294922,-41.8853759765625,5.6610107421875,-11.29150390625
14.0099999,-0.28730419278144836,9.107542991638184,1.699883222579956,-19.805908203125,-4.9285888671875,-9.674072265625
14.0299999,-0.3663128614425659,9.435548782348633,1.8746598958969116,-10.772705078125,-25.299072265625,-0.1220703125
14.049999900000001,-0.42377370595932007,9.639056205749512,1.9919757843017578,-17.181396484375,-7.0343017578125,4.7760009765625
14.069999900000001,-0.4908113479614258,9.804255485534668,1.9273324012756348,-15.7012939453125,7.0343017578125,-10.25390625
14.0899999,-0.49799394607543945,9.818621635437012,1.886630892753601,-5.2947998046875,-4.4708251953125,-9.918212890625
14.1099999,-0.5051765441894531,9.840168952941895,1.8387469053268433,11.993408203125,-13.8092041015625,2.3956298828125
14.129999900000001,-0.5003881454467773,9.828198432922363,1.7381904125213623,12.87841796875,-6.6070556640625,6.378173828125
14.149999900000001,-0.4812345504760742,9.720458984375,1.5825673341751099,11.5509033203125,11.3525390625,1.6021728515625
14.1699999,-0.4357447028160095,9.569623947143555,1.501164436340332,8.819580078125,15.2587890625,-4.791259765625
14.1899999,-0.38307225704193115,9.469067573547363,1.5179238319396973,15.045166015625,2.7313232421875,-6.6070556640625
14.209999900000001,-0.3256114423274994,9.402029991149902,1.599326729774475,20.416259765625,-1.5716552734375,0.1678466796875
14.229999900000001,-0.29209262132644653,9.378087997436523,1.659181833267212,21.1029052734375,8.6822509765625,0.579833984375
14.2499999,-0.30885201692581177,9.421183586120605,1.6735470294952393,18.3868408203125,12.451171875,-8.8043212890625
14.2699999,-0.3495534360408783,9.457097053527832,1.680729627609253,15.3350830078125,4.150390625,-6.103515625
14.289999900000002,-0.40462008118629456,9.500192642211914,1.6208745241165161,12.237548828125,-5.18798828125,3.875732421875
14.309999900000001,-0.44532153010368347,9.536105155944824,1.522712230682373,9.063720703125,1.2969970703125,0.3509521484375
14.3299999,-0.44771572947502136,9.509769439697266,1.4101848602294922,8.148193359375,11.23046875,-6.7901611328125
14.3499999,-0.4429273009300232,9.44991397857666,1.3192051649093628,10.101318359375,4.8980712890625,-7.0037841796875
14.3699999,-0.4213795065879822,9.349357604980469,1.3048399686813354,7.476806640625,-3.7994384765625,-2.9449462890625
14.389999900000001,-0.38546648621559143,9.220070838928223,1.381454348564148,4.57763671875,1.52587890625,-7.4920654296875
14.4099999,-0.33758243918418884,9.064447402954102,1.5969325304031372,0.274658203125,6.805419921875,-17.7001953125
14.4299999,-0.2322375625371933,8.935160636901855,1.8267759084701538,9.307861328125,-5.79833984375,-22.9339599609375
14.4499999,-0.05267243832349777,8.978256225585938,2.190694570541382,11.3067626953125,-17.4102783203125,-24.8565673828125
14.469999900000001,0.21547815203666687,9.23443603515625,2.583343744277954,0.518798828125,-14.739990234375,-26.2603759765625
14.4899999,0.5099649429321289,9.684545516967773,3.023876667022705,-7.26318359375,-24.017333984375,-26.5960693359375
14.5099999,0.706289529800415,10.560823440551758,3.6846764087677,-27.03857421875,-43.548583984375,-40.4815673828125
14.5299999,0.6631938815116882,11.915942192077637,4.213795185089111,-22.8424072265625,-87.1429443359375,-41.9921875
14.549999900000001,0.26096799969673157,13.91510009765625,4.082113742828369,28.900146484375,-122.86376953125,-17.9443359375
14.569999900000001,-0.4381389021873474,15.940594673156738,3.1004912853240967,43.5791015625,-106.26220703125,44.9371337890625
14.5899999,-1.2761094570159912,17.496826171875,1.278503656387329,50.018310546875,-57.55615234375,94.23828125
14.6099999,-2.1547815799713135,18.212692260742188,-0.9481038451194763,78.857421875,-33.447265625,101.86767578125
14.629999900000001,-2.918531894683838,17.73863983154297,-2.82515811920166,87.7838134765625,-10.5133056640625,128.90625
14.649999900000001,-3.4739866256713867,16.28775405883789,-3.9911341667175293,87.8753662109375,22.8729248046875,175.9796142578125
14.6699999,-3.823540210723877,14.051569938659668,-4.4532151222229,92.8802490234375,38.7115478515625,196.4874267578125
14.6899999,-3.928884983062744,11.092336654663086,-4.458003520965576,99.9603271484375,38.26904296875,193.817138671875
14.709999900000001,-3.7612907886505127,7.675810813903809,-4.345476150512695,91.97998046875,52.825927734375,180.3131103515625
14.729999900000001,-3.3925838470458984,4.321534156799316,-4.4077253341674805,77.7740478515625,92.7581787109375,139.739990234375
14.7499999,-2.868253707885742,1.314416766166687,-4.5394062995910645,69.4427490234375,145.08056640625,88.8671875
14.7699999,-2.300827741622925,-0.9624691009521484,-4.23773717880249,29.571533203125,188.29345703125,42.8924560546875
14.789999900000002,-1.8052281141281128,-2.3774423599243164,-3.2321722507476807,24.5513916015625,206.48193359375,-11.1083984375
14.809999900000001,-1.479616641998291,-3.066972494125366,-1.5897499322891235,52.9632568359375,184.967041015625,-65.093994140625
14.8299999,-1.2234370708465576,-3.3063924312591553,0.21547815203666687,56.6253662109375,153.7322998046875,-116.119384765625
14.8499999,-1.0989385843276978,-3.5386300086975098,2.078166961669922,-11.8408203125,163.8946533203125,-165.130615234375
14.8699999,-1.1516109704971313,-3.603273630142212,4.225766181945801,-80.1849365234375,204.9102783203125,-239.0289306640625
14.889999900000001,-1.5394717454910278,-2.3774423599243164,7.319074630737305,-159.4390869140625,186.95068359375,-378.0517578125
14.9099999,-2.279279947280884,0.6751648783683777,11.501745223999023,-146.7742919921875,93.93310546875,-419.7845458984375
14.9299999,-3.1459810733795166,5.178658485412598,16.22311019897461,-47.2564697265625,-23.9410400390625,-306.0302734375
14.9499999,-4.244919776916504,11.255142211914062,19.75934600830078,70.00732421875,-161.9873046875,-268.035888671875
14.969999900000001,-5.48272180557251,17.717092514038086,19.98440170288086,143.1121826171875,-312.469482421875,-264.95361328125
14.9899999,-6.766014099121094,22.938846588134766,15.62216567993164,172.3785400390625,-387.664794921875,-75.9735107421875
15.0099999,-7.8529815673828125,26.405651092529297,8.250418663024902,100.7080078125,-220.64208984375,93.902587890625
15.0299999,-8.427590370178223,27.52374267578125,0.3495534360408783,3.7078857421875,-39.73388671875,98.052978515625
15.049999900000001,-8.468291282653809,26.49184226989746,-6.090848922729492,12.3138427734375,-99.06005859375,94.1162109375
15.069999900000001,-8.14028549194336,23.949199676513672,-9.86889934539795,76.263427734375,-152.557373046875,192.535400390625
15.0899999,-7.797914981842041,20.592529296875,-11.678915977478027,94.573974609375,-44.4183349609375,289.00146484375
15.1099999,-7.38132381439209,16.002843856811523,-12.15057373046875,36.0107421875,90.2252197265625,293.6553955078125
15.129999900000001,-6.445190906524658,10.232817649841309,-11.264719009399414,-60.48583984375,125.9002685546875,242.401123046875
15.149999900000001,-5.173870086669922,4.434061527252197,-9.064447402954102,-77.4688720703125,103.3782958984375,120.758056640625
15.1699999,-3.507505416870117,-0.18914192914962769,-5.920860767364502,-45.745849609375,128.6163330078125,30.1666259765625
15.1899999,-1.843535304069519,-2.801215887069702,-2.070984363555908,-93.1396484375,192.1844482421875,7.720947265625
15.209999900000001,-0.3974374830722809,-3.184288263320923,2.3271639347076416,-139.0533447265625,180.1605224609375,-18.2342529296875
15.229999900000001,0.6584054827690125,-1.5729905366897583,6.5481414794921875,-71.6705322265625,45.5322265625,-75.0579833984375
15.2499999,1.3335703611373901,1.2114660739898682,9.411606788635254,36.651611328125,-77.6519775390625,-77.789306640625
15.2699999,1.644816517829895,4.438849925994873,10.180145263671875,64.8040771484375,-66.5283203125,-36.7279052734375
15.289999900000002,1.6376339197158813,7.51779317855835,8.815450668334961,11.566162109375,-11.65771484375,-29.60205078125
15.309999900000001,1.3838485479354858,10.005369186401367,6.174646377563477,-18.3258056640625,-20.6756591796875,-48.553466796875
15.3299999,1.0773907899856567,11.640608787536621,3.732560396194458,8.7738037109375,-18.4173583984375,-26.0772705078125
15.3499999,0.7469909191131592,12.564770698547363,1.9967641830444336,48.7823486328125,6.2255859375,12.3748779296875
15.3699999,0.5171475410461426,12.701239585876465,1.0414776802062988,59.7686767578125,3.326416015625,18.1732177734375
15.389999900000001,0.43095630407333374,12.167332649230957,0.727837324142456,45.013427734375,-10.80322265625,0.457763671875
15.4099999,0.47405192255973816,11.276689529418945,0.689530074596405,20.751953125,-15.0604248046875,-11.4593505859375
15.4299999,0.5506663918495178,10.424354553222656,0.768538773059845,-1.8310546875,-1.312255859375,-7.843017578125
15.4499999,0.6248866319656372,9.768342971801758,0.9241618514060974,-8.4075927734375,9.368896484375,-4.33349609375
15.469999900000001,0.6272808313369751,9.366117477416992,1.0654197931289673,9.2010498046875,-2.62451171875,-12.115478515625
15.4899999,0.586579442024231,9.160215377807617,1.2856862545013428,6.378173828125,-7.659912109375,-20.5078125
15.5099999,0.4812345504760742,9.126696586608887,1.4700398445129395,-4.913330078125,-1.6632080078125,-16.845703125
15.5299999,0.33279404044151306,9.248801231384277,1.6400281190872192,-3.7841796875,-4.9285888671875,-9.5977783203125
15.549999900000001,0.18914192914962769,9.373299598693848,1.7812861204147339,-4.8065185546875,-21.1181640625,-3.662109375
15.569999900000001,0.08379705995321274,9.361329078674316,1.7884687185287476,-17.303466796875,-37.384033203125,-4.119873046875
15.5899999,0.035913024097681046,9.258378028869629,1.6160861253738403,-36.0870361328125,-32.3028564453125,-15.228271484375
15.6099999,0.016759412363171577,9.083600997924805,1.37906014919281,-50.10986328125,-13.7786865234375,-23.6663818359375
15.629999900000001,0.004788403399288654,9.009381294250488,1.1755530834197998,-40.313720703125,-11.8560791015625,-24.1241455078125
15.649999900000001,-0.043095629662275314,9.07641887664795,1.0845733880996704,-30.21240234375,-22.705078125,-21.026611328125
15.6699999,-0.0694318488240242,9.23443603515625,1.137245774269104,-29.1900634765625,-14.312744140625,-13.3056640625
15.6899999,-0.06703764945268631,9.399636268615723,1.4437036514282227,-37.0941162109375,11.810302734375,-11.505126953125
15.709999900000001,-0.05027823522686958,9.576807022094727,1.8267759084701538,-23.101806640625,-1.15966796875,-15.93017578125
15.729999900000001,-0.043095629662275314,9.782708168029785,2.207453966140747,-7.8582763671875,-29.6783447265625,-15.7318115234375
15.7499999,-0.10534487664699554,9.921571731567383,2.470816135406494,-11.627197265625,-20.3857421875,-2.1820068359375
15.7699999,-0.16519992053508759,9.916783332824707,2.382230758666992,5.615234375,1.5411376953125,6.9732666015625
15.789999900000002,-0.20350714027881622,9.81143856048584,2.1356279850006104,8.6822509765625,7.2021484375,-5.8441162109375
15.809999900000001,-0.19153612852096558,9.63187313079834,1.941697597503662,10.68115234375,8.8348388671875,-15.0909423828125
15.8299999,-0.14604631066322327,9.5408935546875,1.9393033981323242,24.8870849609375,14.70947265625,-7.99560546875
15.8499999,-0.1149216815829277,9.469067573547363,2.075772762298584,28.3660888671875,7.2174072265625,3.662109375
15.869999900000002,-0.1604115068912506,9.32302188873291,2.2840683460235596,40.0390625,-0.2899169921875,-2.4566650390625
15.889999900000001,-0.20111294090747833,9.153033256530762,2.3487119674682617,48.6907958984375,-3.60107421875,-22.3236083984375
15.9099999,-0.3256114423274994,9.186552047729492,2.121262788772583,54.534912109375,-1.2054443359375,-31.73828125
15.9299999,-0.3998316824436188,9.287108421325684,1.745373010635376,29.0679931640625,13.1683349609375,-1.190185546875
15.9499999,-0.42377370595932007,9.478644371032715,1.403002142906189,13.2293701171875,27.740478515625,16.1895751953125
15.969999900000001,-0.43335050344467163,9.607931137084961,1.4053963422775269,-10.6201171875,18.768310546875,-5.0506591796875
15.9899999,-0.3687070608139038,9.464279174804688,1.5131354331970215,7.6446533203125,-9.552001953125,-8.758544921875
16.0099999,-0.33997663855552673,9.29189682006836,1.623268723487854,10.498046875,-16.815185546875,-1.3427734375
16.0299999,-0.3447650372982025,9.229647636413574,1.6376339197158813,-15.167236328125,5.096435546875,-8.3770751953125
16.0499999,-0.3926490843296051,9.255983352661133,1.6376339197158813,-24.322509765625,13.458251953125,-9.2315673828125
16.0699999,-0.3926490843296051,9.306262016296387,1.7621324062347412,12.3291015625,-0.3814697265625,3.0059814453125
16.089999900000002,-0.43095630407333374,9.404424667358398,1.8579005002975464,20.7061767578125,-26.0162353515625,0.5950927734375
16.109999900000002,-0.3974374830722809,9.342175483703613,1.900996208190918,-8.5296630859375,-17.2576904296875,-4.1046142578125
16.1299999,-0.395043283700943,9.26795482635498,1.845929503440857,-23.9410400390625,0.457763671875,-11.4898681640625
16.1499999,-0.3878606855869293,9.26795482635498,1.764526605606079,-11.810302734375,-13.61083984375,-19.7296142578125
16.1699999,-0.42377370595932007,9.390059471130371,1.6304513216018677,10.467529296875,-30.5023193359375,-12.8173828125
16.1899999,-0.47884035110473633,9.528923034667969,1.4772224426269531,-2.777099609375,-18.4783935546875,-0.335693359375
16.2099999,-0.5530605912208557,9.615114212036133,1.403002142906189,-28.25927734375,9.1705322265625,-2.2430419921875
16.2299999,-0.6584054827690125,9.727641105651855,1.3958195447921753,-14.83154296875,0.91552734375,-17.5628662109375
16.249999900000002,-0.6967126727104187,9.701305389404297,1.5825673341751099,26.336669921875,-14.8162841796875,-7.14111328125
16.269999900000002,-0.6943184733390808,9.682151794433594,1.6927006244659424,54.6722412109375,-9.0484619140625,5.9356689453125
16.2899999,-0.6177040338516235,9.583989143371582,1.6974890232086182,24.993896484375,4.39453125,-3.2806396484375
16.3099999,-0.5578489899635315,9.524134635925293,1.6400281190872192,-5.9356689453125,6.3018798828125,-18.585205078125
16.3299999,-0.5434837937355042,9.552865028381348,1.525106430053711,2.2125244140625,-11.5966796875,-15.0909423828125
16.3499999,-0.5913678407669067,9.63187313079834,1.4389152526855469,2.5482177734375,-10.9405517578125,3.7994384765625
16.3699999,-0.6751648783683777,9.751583099365234,1.3766659498214722,3.0059814453125,12.5274658203125,3.90625
16.3899999,-0.7254431247711182,9.667786598205566,1.314416766166687,7.568359375,13.97705078125,-3.173828125
16.4099999,-0.7709329724311829,9.569623947143555,1.3096283674240112,7.1258544921875,-4.5928955078125,-8.8958740234375
16.429999900000002,-0.7757213711738586,9.457097053527832,1.3838485479354858,9.674072265625,-4.33349609375,-5.4473876953125
16.4499999,-0.7972691655158997,9.387664794921875,1.403002142906189,17.852783203125,6.683349609375,2.166748046875
16.4699999,-0.7781155705451965,9.337387084960938,1.41257905960083,9.3231201171875,7.4005126953125,-0.6103515625
16.4899999,-0.7829039692878723,9.346963882446289,1.4389152526855469,0.2593994140625,-1.28173828125,-10.7421875
16.5099999,-0.7996633648872375,9.445125579833984,1.3886369466781616,-1.1749267578125,-12.5579833984375,-8.97216796875
16.5299999,-0.8092401623725891,9.588777542114258,1.280897855758667,-4.241943359375,-6.317138671875,2.0599365234375
16.5499999,-0.828393816947937,9.770736694335938,1.259350061416626,-17.6849365234375,9.765625,2.62451171875
16.5699999,-0.8307880163192749,9.847352027893066,1.1803414821624756,-13.24462890625,-4.2266845703125,-3.5400390625
16.589999900000002,-0.811634361743927,9.818621635437012,1.2497732639312744,-6.9427490234375,-12.237548828125,-2.532958984375
16.609999900000002,-0.8140285611152649,9.775525093078613,1.3048399686813354,-6.2713623046875,-3.11279296875,-1.8310546875
16.6299999,-0.7876923680305481,9.684545516967773,1.3335703611373901,0.3814697265625,-0.579833984375,-0.762939453125
16.6499999,-0.7709329724311829,9.639056205749512,1.4915876388549805,4.8370361328125,1.3580322265625,-2.62451171875
16.6699999,-0.7493851184844971,9.639056205749512,1.6424223184585571,0.91552734375,-12.26806640625,-4.69970703125
16.6899999,-0.7182605266571045,9.579200744628906,1.7477672100067139,3.753662109375,-19.5770263671875,1.4190673828125
16.7099999,-0.6751648783683777,9.588777542114258,1.802833914756775,-4.8065185546875,-9.0484619140625,-2.655029296875
16.7299999,-0.6105214357376099,9.615114212036133,1.8124107122421265,-6.5765380859375,-4.119873046875,-13.0615234375
16.749999900000002,-0.507570743560791,9.682151794433594,1.900996208190918,8.4228515625,-14.2669677734375,-9.3841552734375
16.769999900000002,-0.3495534360408783,10.005369186401367,2.248155355453491,22.796630859375,-18.890380859375,-9.124755859375
16.7899999,-0.15083470940589905,10.558429718017578,2.676717519760132,32.8826904296875,-29.78515625,-4.180908203125
16.8099999,0.06703764945268631,11.209651947021484,3.0621838569641113,32.562255859375,-50.811767578125,14.2822265625
16.8299999,0.181959331035614,12.131420135498047,3.2393548488616943,40.10009765625,-62.957763671875,16.5863037109375
16.8499999,0.12689268589019775,13.148955345153809,2.942473888397217,54.01611328125,-72.57080078125,23.2086181640625
16.8699999,-0.11252748221158981,14.173673629760742,2.22660756111145,55.1605224609375,-68.206787109375,57.5408935546875
16.8899999,-0.5267243981361389,15.10023021697998,1.0342950820922852,56.2591552734375,-60.882568359375,91.033935546875
16.9099999,-1.039083480834961,15.799337387084961,-0.507570743560791,52.642822265625,-57.9071044921875,108.917236328125
16.929999900000002,-1.644816517829895,16.261417388916016,-2.1045033931732178,42.205810546875,-32.012939453125,126.5411376953125
16.9499999,-2.3319525718688965,16.256629943847656,-3.5051112174987793,54.8858642578125,2.166748046875,170.257568359375
16.9699999,-3.00711727142334,15.492878913879395,-4.6734819412231445,90.9576416015625,19.59228515625,219.3756103515625
16.9899999,-3.5649664402008057,13.82172679901123,-5.439626216888428,93.1854248046875,42.266845703125,224.3194580078125
17.0099999,-3.9264907836914062,11.286267280578613,-5.856217384338379,87.7532958984375,89.7674560546875,201.5533447265625
17.0299999,-4.019864559173584,8.090007781982422,-6.110002517700195,110.1226806640625,120.2850341796875,201.0040283203125
17.0499999,-3.804386615753174,4.491522312164307,-6.215347766876221,133.6517333984375,146.4691162109375,195.1446533203125
17.0699999,-3.4165258407592773,0.49559974670410156,-6.0405707359313965,117.61474609375,194.366455078125,141.7694091796875
17.089999900000002,-3.002328872680664,-3.8738183975219727,-5.116408824920654,89.7674560546875,267.364501953125,50.048828125
17.109999900000002,-2.7748796939849854,-8.135497093200684,-2.913743495941162,39.6270751953125,298.6297607421875,-71.59423828125
17.1299999,-2.8850131034851074,-11.547234535217285,0.2849099934101105,6.5155029296875,221.4508056640625,-204.5745849609375
17.1499999,-3.337517261505127,-12.255918502807617,3.8786067962646484,2.716064453125,131.9580078125,-344.024658203125
17.1699999,-4.264073371887207,-9.545681953430176,8.556877136230469,-121.39892578125,179.443359375,-437.225341796875
17.1899999,-4.733336925506592,-4.469974517822266,13.508086204528809,-143.4783935546875,158.75244140625,-333.648681640625
17.2099999,-5.382165431976318,3.19865345954895,17.365144729614258,50.4913330078125,-108.5205078125,-311.70654296875
17.2299999,-5.30076265335083,11.18092155456543,19.965248107910156,189.117431640625,-211.1358642578125,-316.2841796875
17.249999900000002,-5.099649429321289,19.041086196899414,18.70829200744629,174.4537353515625,-225.76904296875,-232.574462890625
17.269999900000002,-4.608838081359863,25.251646041870117,13.7666597366333,117.73681640625,-270.416259765625,-54.9163818359375
17.2899999,-3.9264907836914062,28.716054916381836,6.983886241912842,67.9473876953125,-214.3096923828125,61.21826171875
17.3099999,-3.224989652633667,29.47022819519043,0.33758243918418884,24.017333984375,-121.2921142578125,46.6156005859375
17.3299999,-2.82515811920166,28.040889739990234,-4.376600742340088,11.749267578125,-111.5264892578125,55.8013916015625
17.3499999,-2.8179752826690674,24.949975967407227,-7.441178798675537,99.395751953125,-184.38720703125,179.412841796875
17.3699999,-3.2585084438323975,21.033061981201172,-9.708487510681152,172.4700927734375,-234.9090576171875,233.3984375
17.3899999,-3.794809579849243,15.863980293273926,-11.994950294494629,125.6561279296875,-77.1026611328125,168.0450439453125
17.409999900000003,-3.9432501792907715,10.053253173828125,-13.383587837219238,-33.5693359375,146.1639404296875,91.6290283203125
17.429999900000002,-3.6846764087677,4.568136692047119,-13.467384338378906,-77.545166015625,139.892578125,56.4422607421875
17.4499999,-2.935291290283203,0.42377370595932007,-11.164162635803223,-16.17431640625,94.29931640625,28.2440185546875
17.4699999,-2.1068975925445557,-1.1899182796478271,-6.847416877746582,-67.962646484375,145.721435546875,-64.300537109375
17.4899999,-1.237802267074585,-0.7206547260284424,-2.078166961669922,-73.91357421875,115.2191162109375,-72.1282958984375
17.5099999,-0.5051765441894531,1.5298948287963867,2.0207061767578125,5.2032470703125,8.4991455078125,-12.5885009765625
17.5299999,0.016759412363171577,4.616020679473877,4.776432514190674,33.4930419921875,-23.0255126953125,-6.5765380859375
17.5499999,0.4213795065879822,7.271190643310547,5.509057998657227,30.487060546875,0.1678466796875,-20.8892822265625
17.5699999,0.6344634294509888,9.157821655273438,4.307168960571289,48.9044189453125,-8.0718994140625,-16.326904296875
17.589999900000002,0.7134721279144287,10.180145263671875,2.22660756111145,30.1971435546875,-11.810302734375,-1.2969970703125
17.609999900000002,0.6871358752250671,10.611102104187012,0.42856210470199585,-3.8604736328125,29.4036865234375,-2.9449462890625
17.6299999,0.6248866319656372,10.663774490356445,-0.950498104095459,8.60595703125,16.6015625,-13.2904052734375
17.6499999,0.569819986820221,10.45547866821289,-1.6519991159439087,30.57861328125,-28.3203125,-5.3558349609375
17.6699999,0.5578489899635315,10.17296314239502,-1.922544002532959,21.8963623046875,-19.012451171875,2.044677734375
17.6899999,0.5937620401382446,9.813833236694336,-2.1092917919158936,-2.685546875,8.636474609375,-7.2479248046875
17.7099999,0.6153098344802856,9.519346237182617,-2.1763293743133545,-17.9443359375,12.1307373046875,-26.4892578125
17.7299999,0.608127236366272,9.437943458557129,-1.9512743949890137,-9.1705322265625,-2.9754638671875,-33.3404541015625
17.749999900000002,0.5195417404174805,9.624691009521484,-1.6184803247451782,-2.7008056640625,-13.5345458984375,-17.669677734375
17.769999900000002,0.4213795065879822,9.823410034179688,-1.357512354850769,5.3253173828125,-9.5062255859375,4.1351318359375
17.7899999,0.31124621629714966,9.95748519897461,-1.2090718746185303,4.669189453125,7.568359375,-2.5177001953125
17.8099999,0.23702596127986908,9.9000244140625,-1.2425906658172607,-4.180908203125,3.173828125,-13.18359375
17.8299999,0.19632454216480255,9.708487510681152,-1.3072341680526733,-19.9127197265625,-4.5318603515625,-6.5460205078125
17.8499999,0.17717093229293823,9.528923034667969,-1.3000515699386597,-30.5328369140625,0.42724609375,-2.8228759765625
17.8699999,0.15322890877723694,9.481039047241211,-1.2425906658172607,-42.694091796875,1.3275146484375,-16.876220703125
17.8899999,0.07661445438861847,9.500192642211914,-1.0271124839782715,-29.7088623046875,-7.8582763671875,-5.0048828125
17.909999900000003,0.035913024097681046,9.552865028381348,-0.9552865028381348,-41.68701171875,-0.3662109375,-5.3863525390625
17.929999900000002,0.026336219161748886,9.533711433410645,-0.8643068075180054,-52.520751953125,6.683349609375,-16.2506103515625
17.9499999,0.023942016065120697,9.485827445983887,-0.6847416758537292,-46.112060546875,3.8299560546875,-17.730712890625
17.9699999,-0.047884032130241394,9.543288230895996,-0.3734954595565796,-38.1011962890625,-4.8065185546875,-16.0675048828125
17.9899999,-0.1149216815829277,9.576807022094727,-0.11013327538967133,-20.08056640625,-8.4075927734375,-5.2337646484375
18.0099999,-0.17956513166427612,9.569623947143555,0.038307227194309235,-6.4849853515625,-3.692626953125,-2.25830078125
18.0299999,-0.23702596127986908,9.619902610778809,0.12449848651885986,-8.36181640625,4.82177734375,-16.754150390625
18.0499999,-0.2777273952960968,9.643844604492188,0.2082955539226532,-10.009765625,2.7923583984375,-14.5111083984375
18.0699999,-0.33039984107017517,9.674968719482422,0.14604631066322327,1.861572265625,-15.1824951171875,-0.640869140625
18.089999900000002,-0.3687070608139038,9.636661529541016,0.0071826050989329815,6.561279296875,-10.345458984375,-1.5411376953125
18.109999900000002,-0.40222588181495667,9.516951560974121,-0.05027823522686958,1.52587890625,18.8446044921875,-14.9383544921875
18.1299999,-0.4213795065879822,9.418789863586426,-0.06703764945268631,5.950927734375,11.505126953125,-21.66748046875
18.1499999,-0.4596867263317108,9.41400146484375,-0.0071826050989329815,16.510009765625,-16.41845703125,-11.0015869140625
18.1699999,-0.507570743560791,9.390059471130371,0.033518824726343155,12.9547119140625,-13.6871337890625,0.8544921875
18.1899999,-0.5554547905921936,9.311050415039062,-0.038307227194309235,2.44140625,8.575439453125,-9.857177734375
18.2099999,-0.6129156351089478,9.17697525024414,-0.047884032130241394,-0.9002685546875,13.97705078125,-27.9388427734375
18.2299999,-0.6631938815116882,9.030928611755371,0.014365210197865963,6.988525390625,-8.4381103515625,-25.9857177734375
18.249999900000002,-0.689530074596405,8.87051773071289,0.035913024097681046,9.8876953125,-22.613525390625,-13.36669921875
18.269999900000002,-0.6655880808830261,8.643068313598633,0.09816227108240128,-10.4217529296875,-1.3580322265625,-23.895263671875
18.2899999,-0.5937620401382446,8.439560890197754,0.3016694188117981,-28.4271240234375,14.7552490234375,-57.1136474609375
18.3099999,-0.524330198764801,8.283937454223633,0.7924807667732239,-25.726318359375,-14.2974853515625,-74.615478515625
18.3299999,-0.507570743560791,8.276755332946777,1.4101848602294922,2.74658203125,-53.28369140625,-65.97900390625
18.3499999,-0.6320692300796509,8.520963668823242,1.6903064250946045,15.9912109375,-64.7735595703125,-74.7833251953125
18.3699999,-0.9409212470054626,9.002198219299316,1.2737152576446533,-5.523681640625,-50.537109375,-85.845947265625
18.3899999,-1.4101848602294922,9.701305389404297,0.4357447028160095,-33.50830078125,-22.5677490234375,-67.535400390625
18.409999900000003,-1.9536685943603516,10.402806282043457,-0.2944868206977844,-39.1693115234375,-1.1444091796875,-30.7769775390625
18.429999900000002,-2.497152328491211,11.039664268493652,-0.667982280254364,-19.8211669921875,-10.6658935546875,-22.64404296875
18.4499999,-2.9328970909118652,11.446678161621094,-0.5985504388809204,-11.3677978515625,-20.263671875,-26.4739990234375
18.4699999,-3.203441858291626,11.41555404663086,-0.40940847992897034,-9.979248046875,-19.073486328125,-1.556396484375
18.4899999,-3.315969467163086,11.12106704711914,-0.24660277366638184,-4.150390625,-7.6446533203125,13.7481689453125
18.5099999,-3.315969467163086,10.687716484069824,-0.1867477297782898,-5.584716796875,-3.7384033203125,-4.2724609375
18.5299999,-3.1938650608062744,10.125079154968262,-0.17717093229293823,-8.1787109375,-5.79833984375,-7.3089599609375
18.5499999,-3.043030261993408,9.708487510681152,-0.1149216815829277,-7.6141357421875,0.701904296875,2.4261474609375
18.5699999,-2.896984100341797,9.476250648498535,0.019153613597154617,-7.1868896484375,5.096435546875,5.5084228515625
18.589999900000002,-2.7461493015289307,9.332598686218262,0.272938996553421,-1.617431640625,2.3651123046875,2.5482177734375
18.609999900000002,-2.6192567348480225,9.232041358947754,0.5770025849342346,10.7269287109375,-4.45556640625,-0.06103515625
18.6299999,-2.518700122833252,9.14585018157959,0.6847416758537292,14.8468017578125,-13.1378173828125,1.6326904296875
18.6499999,-2.4372973442077637,9.035717010498047,0.6512228846549988,1.922607421875,-3.7078857421875,3.5858154296875
18.6699999,-2.38462495803833,8.913613319396973,0.6200982332229614,-5.706787109375,12.3443603515625,-3.3416748046875
18.6899999,-2.363077163696289,8.932766914367676,0.608127236366272,5.9051513671875,0.152587890625,-13.9923095703125
18.7099999,-2.3511061668395996,9.083600997924805,0.6248866319656372,12.6800537109375,-18.9666748046875,-10.07080078125
18.7299999,-2.315192937850952,9.248801231384277,0.6991068720817566,2.7618408203125,-6.866455078125,5.9661865234375
18.749999900000002,-2.276885747909546,9.569623947143555,0.8619126081466675,-5.218505859375,10.101318359375,-4.7760009765625
18.769999900000002,-2.2242133617401123,9.952696800231934,1.070208191871643,8.575439453125,-10.25390625,-16.448974609375
18.7899999,-2.164358377456665,10.467450141906738,1.3623007535934448,23.0560302734375,-35.125732421875,-2.3040771484375
18.8099999,-2.1715409755706787,11.216835021972656,1.723825216293335,11.9781494140625,-30.33447265625,16.5863037109375
18.8299999,-2.298433542251587,12.181697845458984,1.922544002532959,11.0931396484375,-32.470703125,22.5372314453125
18.8499999,-2.43011474609375,13.074735641479492,1.8267759084701538,41.6259765625,-54.901123046875,36.43798828125
18.8699999,-2.6360161304473877,13.943830490112305,1.4628572463989258,33.75244140625,-65.00244140625,58.624267578125
18.8899999,-2.7892448902130127,14.611812591552734,0.8930372595787048,13.4124755859375,-42.7093505859375,75.25634765625
18.909999900000003,-2.7892448902130127,14.568717002868652,0.10534487664699554,16.632080078125,-33.6151123046875,110.2447509765625
18.929999900000002,-2.6575639247894287,14.032416343688965,-0.5027823448181152,23.9105224609375,-38.543701171875,111.2823486328125
18.9499999,-2.346317768096924,12.904747009277344,-0.9600749015808105,37.628173828125,-35.888671875,92.254638671875
18.9699999,-1.9393033981323242,11.674127578735352,-1.0749965906143188,41.0614013671875,-19.927978515625,88.623046875
18.9899999,-1.534683346748352,10.687716484069824,-1.0079588890075684,28.3203125,-16.998291015625,95.39794921875
19.0099999,-1.2090718746185303,9.928754806518555,-1.0965443849563599,41.4581298828125,-44.830322265625,112.0758056640625
19.0299999,-1.0031704902648926,9.41639518737793,-1.381454348564148,50.7049560546875,-37.8875732421875,108.2000732421875
19.0499999,-0.9816226959228516,9.315838813781738,-1.9991583824157715,46.051025390625,-0.1220703125,86.578369140625
19.0699999,-1.1228805780410767,9.394847869873047,-3.0861260890960693,60.97412109375,12.237548828125,106.475830078125
19.089999900000002,-1.4915876388549805,9.495404243469238,-4.1395745277404785,65.2618408203125,32.4554443359375,152.52685546875
19.109999900000002,-1.8531121015548706,8.734047889709473,-4.941632270812988,36.9415283203125,75.6988525390625,177.9937744140625
19.1299999,-2.2002713680267334,7.072471618652344,-5.6910176277160645,14.2669677734375,85.0830078125,139.4195556640625
19.1499999,-2.425326347351074,4.201824188232422,-6.110002517700195,34.3780517578125,105.1483154296875,85.1898193359375
19.1699999,-2.4875755310058594,0.5291185975074768,-6.069301128387451,27.069091796875,170.3338623046875,76.8280029296875
19.1899999,-2.537853717803955,-3.6128504276275635,-5.4444146156311035,-17.9290771484375,218.1243896484375,28.1524658203125
19.2099999,-2.7006595134735107,-8.01339340209961,-3.9887399673461914,-62.652587890625,231.231689453125,-82.061767578125
19.2299999,-3.287238836288452,-12.107478141784668,-2.2888567447662354,11.29150390625,211.1053466796875,-237.1673583984375
19.249999900000002,-4.786009311676025,-13.91510009765625,-0.2992752194404602,75.68359375,234.1461181640625,-411.163330078125
19.269999900000002,-7.1490864753723145,-11.353304862976074,3.0550012588500977,-63.0340576171875,328.369140625,-500
19.2899999,-9.782708168029785,-4.228160381317139,8.858546257019043,-328.1707763671875,331.1614990234375,-500
19.3099999,-11.892000198364258,6.555324077606201,16.479290008544922,-236.1602783203125,68.634033203125,-295.8221435546875
19.3299999,-12.710816383361816,17.269376754760742,22.59647560119629,216.9647216796875,-254.364013671875,-105.926513671875
19.3499999,-11.973402976989746,24.832660675048828,23.611618041992188,361.6790771484375,-395.01953125,4.9591064453125
19.3699999,-10.460267066955566,29.34333610534668,18.04988670349121,89.0960693359375,-320.343017578125,-25.1617431640625
19.3899999,-8.707711219787598,30.68887710571289,9.196128845214844,-111.297607421875,-75.927734375,20.01953125
19.409999900000003,-7.086836814880371,29.678524017333984,0.8571242094039917,-60.9283447265625,-23.1781005859375,198.66943359375
19.429999900000002,-6.0621185302734375,27.28911018371582,-4.881777286529541,69.3359375,-158.538818359375,227.72216796875
19.4499999,-5.082890033721924,22.316354751586914,-7.599195957183838,139.6026611328125,-140.3350830078125,210.5255126953125
19.4699999,-4.323928356170654,16.225505828857422,-8.96149730682373,72.5555419921875,1.15966796875,161.407470703125
19.4899999,-3.4787750244140625,10.18493366241455,-9.44752025604248,7.171630859375,67.8253173828125,91.4306640625
19.5099999,-2.6384103298187256,5.360617637634277,-8.315062522888184,-19.989013671875,104.0191650390625,56.9915771484375
19.5299999,-1.7980455160140991,2.4803929328918457,-5.47075080871582,-19.561767578125,123.7335205078125,26.9775390625
19.5499999,-1.0007762908935547,1.4173674583435059,-1.4173674583435059,-22.4761962890625,78.9642333984375,6.6070556640625
19.5699999,-0.3687070608139038,1.7836803197860718,2.3487119674682617,10.7879638671875,-17.730712890625,0.4730224609375
19.589999900000002,0.10773907601833344,2.7700912952423096,4.752490520477295,54.0618896484375,-50.6134033203125,0.091552734375
19.609999900000002,0.2944868206977844,4.108449935913086,4.989516258239746,31.097412109375,-15.1214599609375,-21.942138671875
19.6299999,0.24181437492370605,5.583278179168701,3.7900211811065674,-3.021240234375,30.5328369140625,-53.7261962890625
19.6499999,0.038307227194309235,6.9910688400268555,2.3918075561523438,-5.6304931640625,44.1436767578125,-42.2821044921875
19.6699999,-0.21547815203666687,8.4108304977417,1.4460978507995605,-0.9765625,-0.3204345703125,-15.7623291015625
19.6899999,-0.45010992884635925,9.500192642211914,1.0606313943862915,14.7247314453125,-33.7066650390625,-16.54052734375
19.7099999,-0.5985504388809204,10.15141487121582,0.7374141216278076,43.2586669921875,-18.9971923828125,-20.782470703125
19.7299999,-0.7422025203704834,10.577583312988281,0.4644751250743866,25.8331298828125,7.3699951171875,-29.693603515625
19.749999900000002,-0.8259995579719543,10.788272857666016,-0.026336219161748886,7.904052734375,-7.3699951171875,-11.2762451171875
19.769999900000002,-0.9002198576927185,10.862493515014648,-0.4644751250743866,5.18798828125,-22.186279296875,4.8980712890625
19.7899999,-0.8738836050033569,10.666168212890625,-0.6488286852836609,7.2479248046875,12.9852294921875,3.814697265625
19.8099999,-0.828393816947937,10.36449909210205,-0.6368576288223267,4.4403076171875,24.7344970703125,-13.18359375
19.8299999,-0.7733271718025208,9.976638793945312,-0.31842881441116333,18.9971923828125,-4.730224609375,-12.5885009765625
19.8499999,-0.7781155705451965,9.799467086791992,0.17717093229293823,34.7442626953125,-20.751953125,-3.9215087890625
19.8699999,-0.8355764150619507,9.744400978088379,0.3471592366695404,23.9410400390625,-22.5830078125,-1.40380859375
19.8899999,-0.9145850539207458,9.718064308166504,0.08379705995321274,10.55908203125,-9.82666015625,-1.068115234375
19.909999900000003,-0.9816226959228516,9.68933391571045,-0.22266076505184174,-5.5389404296875,12.3138427734375,-5.6915283203125
19.929999900000002,-1.0127472877502441,9.696516990661621,-0.5051765441894531,-9.552001953125,3.3721923828125,-6.2255859375
19.9499999,-1.01753568649292,9.763554573059082,-0.4429273009300232,-2.3956298828125,-10.2691650390625,-2.4566650390625
19.9699999,-0.993593692779541,9.84256362915039,-0.2801215946674347,3.936767578125,-9.979248046875,2.8839111328125
19.9899999,-0.9768342971801758,9.923966407775879,-0.2992752194404602,2.3345947265625,-9.552001953125,2.3956298828125
20.0099999,-0.9648633003234863,9.895236015319824,-0.4189853072166443,-6.7901611328125,2.1514892578125,-0.0457763671875
20.0299999,-0.9361328482627869,9.749189376831055,-0.4836287498474121,-12.847900390625,13.214111328125,1.0833740234375
20.0499999,-0.9241618514060974,9.619902610778809,-0.38546648621559143,-11.9781494140625,4.5318603515625,-1.495361328125
20.0699999,-0.8930372595787048,9.485827445983887,-0.05267243832349777,-2.01416015625,-7.14111328125,-1.922607421875
20.089999900000002,-0.8667010068893433,9.38048267364502,0.2537853717803955,8.148193359375,-12.237548828125,1.7242431640625
20.109999900000002,-0.8523358106613159,9.306262016296387,0.2298433631658554,16.5863037109375,-12.664794921875,-0.7476806640625
20.1299999,-0.8595184087753296,9.251194953918457,0.028730420395731926,4.3487548828125,3.5858154296875,-8.514404296875
20.1499999,-0.8834604024887085,9.349357604980469,-0.10534487664699554,-17.1966552734375,18.890380859375,-12.87841796875
20.1699999,-0.9145850539207458,9.459490776062012,-0.0933738648891449,-4.0435791015625,2.532958984375,-0.1983642578125
