# Time (seconds),Accel_X,Accel_Y,Accel_Z,Gyro_X,Gyro_Y,Gyro_Z
0.0099999,0.6967126727104187,0.667982280254364,9.830592155456543,1.007080078125,1.4190673828125,-0.79345703125
0.029999900000000003,0.6799532771110535,0.6919242739677429,9.821015357971191,0.30517578125,0.762939453125,-0.3662109375
0.0499999,0.6560112833976746,0.7350199222564697,9.801861763000488,-1.190185546875,1.3427734375,-0.18310546875
0.0699999,0.6344634294509888,0.7733271718025208,9.785101890563965,-0.946044921875,0.732421875,1.40380859375
0.08999990000000001,0.6248866319656372,0.7852981686592102,9.77791976928711,-1.5716552734375,0.885009765625,3.1585693359375
0.10999990000000001,0.629675030708313,0.768538773059845,9.792284965515137,-0.885009765625,0.518798828125,2.044677734375
0.1299999,0.6536170840263367,0.7086837291717529,9.787496566772461,-0.4425048828125,-0.0457763671875,1.220703125
0.14999990000000002,0.6847416758537292,0.6344634294509888,9.782708168029785,-0.1220703125,0.42724609375,1.129150390625
0.1699999,0.7134721279144287,0.569819986820221,9.751583099365234,-0.5035400390625,1.2664794921875,0.30517578125
0.1899999,0.7326257228851318,0.5363011956214905,9.718064308166504,-0.3509521484375,1.922607421875,-0.885009765625
0.20999990000000002,0.7398083209991455,0.524330198764801,9.708487510681152,-0.2593994140625,2.6397705078125,-1.1138916015625
0.2299999,0.7350199222564697,0.5410895943641663,9.710882186889648,-0.457763671875,1.556396484375,-0.396728515625
0.2499999,0.7158663272857666,0.5889736413955688,9.749189376831055,-0.9918212890625,1.40380859375,-1.03759765625
0.2699999,0.6991068720817566,0.6224924325942993,9.765948295593262,-0.9307861328125,0.5645751953125,-0.1068115234375
0.28999990000000003,0.6799532771110535,0.6488286852836609,9.792284965515137,-0.152587890625,1.556396484375,0.67138671875
0.3099999,0.6584054827690125,0.6799532771110535,9.770736694335938,0.48828125,1.251220703125,-1.0528564453125
0.3299999,0.6512228846549988,0.6871358752250671,9.782708168029785,0.030517578125,2.960205078125,-0.67138671875
0.34999990000000003,0.6536170840263367,0.689530074596405,9.770736694335938,0.6866455078125,2.25830078125,0.7171630859375
0.3699999,0.6536170840263367,0.7086837291717529,9.780313491821289,1.251220703125,1.0528564453125,-0.79345703125
0.3899999,0.6631938815116882,0.706289529800415,9.806650161743164,0.3662109375,2.227783203125,-0.2593994140625
0.40999990000000003,0.6703764796257019,0.706289529800415,9.823410034179688,0.67138671875,1.5411376953125,0.79345703125
0.4299999,0.6703764796257019,0.7134721279144287,9.830592155456543,0.6866455078125,0.4730224609375,0.335693359375
0.4499999,0.6751648783683777,0.7110779285430908,9.84256362915039,-0.1068115234375,1.1749267578125,0.67138671875
0.4699999,0.6775590777397156,0.6991068720817566,9.823410034179688,0,1.251220703125,0.91552734375
0.4899999,0.6799532771110535,0.6775590777397156,9.81143856048584,-0.54931640625,0.6256103515625,1.0528564453125
0.5099999,0.6775590777397156,0.6560112833976746,9.782708168029785,0.457763671875,0.7171630859375,-0.18310546875
0.5299999,0.6703764796257019,0.6368576288223267,9.761159896850586,0.640869140625,1.40380859375,-0.2288818359375
0.5499999,0.6607996821403503,0.6272808313369751,9.734824180603027,-0.2593994140625,1.28173828125,0.6256103515625
0.5699999,0.6488286852836609,0.629675030708313,9.734824180603027,-0.6866455078125,1.6326904296875,0.3509521484375
0.5899998999999999,0.646434485912323,0.6224924325942993,9.737217903137207,0.1983642578125,1.2969970703125,0.030517578125
0.6099998999999999,0.646434485912323,0.6153098344802856,9.768342971801758,0.2288818359375,1.2359619140625,-0.1983642578125
0.6299999,0.6584054827690125,0.5985504388809204,9.77791976928711,-0.2899169921875,0.8697509765625,-0.3814697265625
0.6499999,0.667982280254364,0.5913678407669067,9.80904483795166,-0.274658203125,1.3427734375,-0.8392333984375
0.6699999,0.6775590777397156,0.586579442024231,9.828198432922363,0.2288818359375,1.4495849609375,-0.701904296875
0.6899999,0.6799532771110535,0.5961562395095825,9.832986831665039,0.518798828125,-0.9918212890625,-0.5950927734375
0.7099999,0.6871358752250671,0.5841852426528931,9.80904483795166,-0.9307861328125,-1.2054443359375,0.244140625
0.7299998999999999,0.6943184733390808,0.5602431893348694,9.744400978088379,-1.708984375,0.06103515625,-1.0528564453125
0.7499998999999999,0.6991068720817566,0.5339069962501526,9.660603523254395,-3.0975341796875,1.5716552734375,-3.509521484375
0.7699999,0.689530074596405,0.5482721924781799,9.610325813293457,-2.74658203125,2.7008056640625,-4.4708251953125
0.7899999,0.6799532771110535,0.5770025849342346,9.610325813293457,-0.823974609375,3.204345703125,-1.983642578125
0.8099999,0.6607996821403503,0.6416460275650024,9.651026725769043,-0.3509521484375,1.953125,-0.946044921875
0.8299999,0.6488286852836609,0.6991068720817566,9.715670585632324,-1.15966796875,1.8768310546875,-2.685546875
0.8499998999999999,0.646434485912323,0.7206547260284424,9.758766174316406,-0.5950927734375,1.9683837890625,-1.6326904296875
0.8699998999999999,0.6416460275650024,0.7398083209991455,9.787496566772461,-0.54931640625,2.838134765625,-1.5411376953125
0.8899999,0.6368576288223267,0.7565677165985107,9.799467086791992,-0.3662109375,2.7313232421875,-1.1138916015625
0.9099999,0.6368576288223267,0.7422025203704834,9.816226959228516,-0.3509521484375,2.593994140625,-0.0762939453125
0.9299999,0.6392518281936646,0.7350199222564697,9.830592155456543,-0.0152587890625,2.0904541015625,-0.48828125
0.9499999,0.6416460275650024,0.7254431247711182,9.835380554199219,0,1.2664794921875,-1.0833740234375
0.9699998999999999,0.6368576288223267,0.7254431247711182,9.840168952941895,-0.457763671875,2.0599365234375,-0.30517578125
0.9899998999999999,0.6320692300796509,0.7230489253997803,9.859322547912598,-0.8087158203125,2.777099609375,1.434326171875
1.0099999,0.6224924325942993,0.7374141216278076,9.864110946655273,0.2288818359375,0.5950927734375,0.732421875
1.0299999,0.6224924325942993,0.7254431247711182,9.86889934539795,0.4730224609375,-0.3662109375,1.2359619140625
1.0499999,0.629675030708313,0.7086837291717529,9.859322547912598,-0.2593994140625,1.129150390625,1.4495849609375
1.0699999,0.6392518281936646,0.6799532771110535,9.816226959228516,0.1220703125,0.885009765625,1.46484375
1.0899999,0.6536170840263367,0.646434485912323,9.780313491821289,-0.2288818359375,1.52587890625,0.6866455078125
1.1099999,0.6631938815116882,0.6272808313369751,9.763554573059082,-1.03759765625,1.617431640625,0.0762939453125
1.1299999,0.6703764796257019,0.6009446382522583,9.765948295593262,-0.8697509765625,1.1138916015625,1.3885498046875
1.1499999,0.6703764796257019,0.5937620401382446,9.773131370544434,-0.2899169921875,0.396728515625,1.1749267578125
1.1699998999999999,0.6703764796257019,0.5770025849342346,9.792284965515137,-0.9307861328125,1.312255859375,0.274658203125
1.1899998999999999,0.6703764796257019,0.5482721924781799,9.792284965515137,-0.7781982421875,0.885009765625,0.5645751953125
1.2099999,0.6631938815116882,0.5410895943641663,9.797073364257812,-0.701904296875,1.28173828125,-0.42724609375
1.2299999,0.6607996821403503,0.5195417404174805,9.792284965515137,-0.3204345703125,0.6103515625,0.640869140625
1.2499999,0.6631938815116882,0.49799394607543945,9.80904483795166,-1.2969970703125,1.89208984375,0.54931640625
1.2699999,0.667982280254364,0.4596867263317108,9.801861763000488,-0.3204345703125,0.1678466796875,-0.732421875
1.2899999,0.6847416758537292,0.38546648621559143,9.835380554199219,-0.4119873046875,1.0528564453125,-0.9765625
1.3099999,0.7015010714530945,0.2992752194404602,9.852140426635742,-0.6103515625,1.1138916015625,-2.0904541015625
1.3299999,0.7206547260284424,0.20350714027881622,9.8784761428833,0.7781982421875,0.030517578125,-3.1585693359375
1.3499999,0.7398083209991455,0.11252748221158981,9.909601211547852,-0.1678466796875,0.396728515625,-4.5013427734375
1.3699999,0.7805097699165344,-0.014365210197865963,9.931148529052734,-0.6256103515625,-0.1068115234375,-4.2877197265625
1.3899999,0.8307880163192749,-0.16759411990642548,9.96945571899414,-0.1068115234375,-0.4730224609375,-6.0577392578125
1.4099999,0.9002198576927185,-0.3734954595565796,10.036493301391602,-0.6256103515625,-0.885009765625,-9.796142578125
1.4299998999999999,0.9840168952941895,-0.6488286852836609,10.141838073730469,1.4495849609375,-1.800537109375,-11.4593505859375
1.4499999,1.0678139925003052,-0.9959878921508789,10.235212326049805,4.2572021484375,-4.608154296875,-13.36669921875
1.4699999,1.1276689767837524,-1.3527239561080933,10.321403503417969,4.5928955078125,-5.218505859375,-21.1334228515625
1.4899999,1.1468225717544556,-1.6759412288665771,10.311826705932617,2.3040771484375,-6.317138671875,-28.6712646484375
1.5099999,1.1061211824417114,-1.9105730056762695,10.232817649841309,-2.0294189453125,-8.1939697265625,-31.6009521484375
1.5299999,1.015141487121582,-2.070984363555908,10.113107681274414,-7.659912109375,-7.568359375,-33.050537109375
1.5499999,0.8954314589500427,-2.190694570541382,10.017339706420898,-9.1094970703125,-6.9122314453125,-38.26904296875
1.5699999,0.7829039692878723,-2.360682964324951,9.919178009033203,-2.74658203125,-8.758544921875,-45.3948974609375
1.5899999,0.6871358752250671,-2.5498247146606445,9.890447616577148,2.38037109375,-6.8511962890625,-53.3294677734375
1.6099999,0.5889736413955688,-2.671929121017456,9.859322547912598,3.0975341796875,-5.9051513671875,-63.8885498046875
1.6299999,0.4908113479614258,-2.7269957065582275,9.890447616577148,3.0975341796875,-6.0272216796875,-69.976806640625
1.6499999,0.4141969084739685,-2.7676970958709717,10.000580787658691,9.33837890625,-6.40869140625,-70.8160400390625
1.6699999,0.31124621629714966,-2.7078421115875244,10.170568466186523,16.3726806640625,-7.843017578125,-83.5723876953125
1.6899998999999999,0.2298433631658554,-2.698265314102173,10.285490036010742,25.57373046875,-14.312744140625,-91.4154052734375
1.7099999,0.14365209639072418,-2.669534921646118,10.426748275756836,26.4434814453125,-10.284423828125,-97.869873046875
1.7299999,0.05506663769483566,-2.7078421115875244,10.517727851867676,29.35791015625,-9.7808837890625,-105.4534912109375
1.7499999,-0.07900865375995636,-2.695871114730835,10.505757331848145,42.5872802734375,-20.2484130859375,-122.4822998046875
1.7699999,-0.3232172429561615,-2.427720546722412,10.357316970825195,44.5709228515625,-26.947021484375,-144.5465087890625
1.7899999,-0.6775590777397156,-1.8195933103561401,10.046070098876953,32.8521728515625,-22.8118896484375,-145.538330078125
1.8099999,-1.0869675874710083,-0.8930372595787048,9.68933391571045,13.7786865234375,-9.70458984375,-133.1787109375
1.8299999,-1.4700398445129395,0.1604115068912506,9.473855972290039,2.1514892578125,-12.5885009765625,-129.364013671875
1.8499999,-1.7381904125213623,0.9768342971801758,9.35893440246582,0.6866455078125,-26.5960693359375,-130.889892578125
1.8699999,-1.9393033981323242,1.6543933153152466,9.421183586120605,-0.0457763671875,-22.7203369140625,-139.0228271484375
1.8899999,-2.075772762298584,2.1475989818573,9.490615844726562,-0.335693359375,-13.1988525390625,-140.7318115234375
1.9099999,-2.169146776199341,2.6024973392486572,9.531316757202148,5.2642822265625,-19.04296875,-133.4991455078125
1.9299998999999999,-2.1978771686553955,3.0166940689086914,9.703699111938477,0.9002685546875,-17.974853515625,-131.072998046875
1.9499999,-2.1547815799713135,3.3279404640197754,9.694122314453125,-1.190185546875,-28.6712646484375,-127.7618408203125
1.9699999,-2.075772762298584,3.584120035171509,9.691728591918945,-7.5225830078125,-30.7464599609375,-128.2196044921875
1.9899999,-1.9608511924743652,3.7421371936798096,9.519346237182617,-7.01904296875,-31.3262939453125,-121.124267578125
2.0099999,-1.8291701078414917,3.869029998779297,9.442731857299805,-2.0904541015625,-33.1573486328125,-111.87744140625
2.0299999,-1.5825673341751099,3.7852327823638916,9.421183586120605,13.519287109375,-42.1600341796875,-98.297119140625
2.0499999,-1.2186486721038818,3.3877954483032227,9.459490776062012,24.505615234375,-47.6531982421875,-97.442626953125
2.0699999,-0.8331822156906128,2.827552318572998,9.433155059814453,22.27783203125,-40.9393310546875,-126.46484375
2.0899999,-0.5913678407669067,2.4013843536376953,9.083600997924805,27.923583984375,-38.02490234375,-158.477783203125
2.1099999,-0.5530605912208557,2.4133553504943848,8.724471092224121,19.6075439453125,-18.157958984375,-158.905029296875
2.1299999,-0.7565677165985107,3.004723072052002,8.396465301513672,0.244140625,-8.880615234375,-139.190673828125
2.1499999,-0.9528923034667969,3.7181951999664307,8.252813339233398,-2.2735595703125,-23.8037109375,-107.0404052734375
2.1699999,-1.0606313943862915,4.23773717880249,8.372523307800293,-14.2364501953125,-30.5633544921875,-99.212646484375
2.1899999,-1.094150185585022,4.458003520965576,8.391676902770996,-29.2510986328125,-33.7371826171875,-115.3717041015625
2.2099999,-1.0773907899856567,4.513070106506348,8.439560890197754,-39.3524169921875,-14.0228271484375,-116.424560546875
2.2299999,-1.1444283723831177,4.620809078216553,8.288725852966309,-32.745361328125,-4.425048828125,-89.1876220703125
2.2499999,-1.2210428714752197,4.797980308532715,8.195352554321289,-23.4375,-2.288818359375,-65.582275390625
2.2699999,-1.2713210582733154,4.8482584953308105,8.197746276855469,-28.106689453125,9.1400146484375,-56.4117431640625
2.2899999,-1.290474772453308,4.776432514190674,8.389283180236816,-26.0162353515625,3.3721923828125,-67.1539306640625
2.3099999,-1.314416766166687,4.685452938079834,8.777143478393555,-21.7132568359375,-0.9918212890625,-74.5697021484375
2.3299999,-1.381454348564148,4.742913722991943,9.251194953918457,-8.148193359375,-2.38037109375,-64.910888671875
2.3499999,-1.4293384552001953,4.879383087158203,9.768342971801758,4.82177734375,10.25390625,-39.4439697265625
2.3699999,-1.4077905416488647,4.972756862640381,10.108319282531738,13.946533203125,10.040283203125,-18.1121826171875
2.3899999,-1.2856862545013428,4.941632270812988,10.304644584655762,9.6588134765625,2.86865234375,-16.876220703125
2.4099999,-1.1061211824417114,4.7620673179626465,10.307038307189941,-1.8157958984375,2.0599365234375,-12.939453125
2.4299999,-0.8930372595787048,4.455609321594238,10.201693534851074,-5.6915283203125,4.7454833984375,-0.0457763671875
2.4499999,-0.7038952708244324,4.1156325340271,9.988609313964844,1.3885498046875,1.068115234375,7.659912109375
2.4699999,-0.49799394607543945,3.670311212539673,9.847352027893066,2.86865234375,1.8463134765625,7.01904296875
2.4899999,-0.3519476354122162,3.315969467163086,9.653421401977539,0.0762939453125,-5.6915283203125,-1.2664794921875
2.5099999,-0.21308395266532898,2.983175277709961,9.560047149658203,-3.0517578125,-6.561279296875,-1.8310546875
2.5299999,-0.1173158809542656,2.7533318996429443,9.433155059814453,6.28662109375,-5.79833984375,2.50244140625
2.5499999,-0.06703764945268631,2.6408045291900635,9.318233489990234,14.5721435546875,-6.7291259765625,-4.791259765625
2.5699999,-0.021547814831137657,2.5474305152893066,9.248801231384277,11.383056640625,-0.213623046875,-8.1634521484375
2.5899999,-0.0071826050989329815,2.5330653190612793,9.14585018157959,9.5062255859375,1.5716552734375,-1.1749267578125
2.6099999,0.011971008032560349,2.542642116546631,9.165003776550293,3.2196044921875,3.936767578125,3.3416748046875
2.6299999,0.031124621629714966,2.5546131134033203,9.150638580322266,1.0833740234375,1.708984375,4.0740966796875
2.6499999,0.06464344263076782,2.5498247146606445,9.208099365234375,-1.9683837890625,2.2430419921875,3.509521484375
2.6699999,0.0694318488240242,2.5665841102600098,9.210494041442871,-7.1258544921875,3.2806396484375,6.9580078125
2.6899999,0.12210428714752197,2.4468741416931152,9.301473617553711,-9.4451904296875,6.6375732421875,15.380859375
2.7099999,0.17956513166427612,2.2888567447662354,9.30386734008789,-3.3721923828125,-0.244140625,12.420654296875
2.7299999,0.26096799969673157,2.075772762298584,9.366117477416992,-0.6103515625,-1.8310546875,-4.33349609375
2.7499999,0.31124621629714966,1.922544002532959,9.404424667358398,-0.0457763671875,5.645751953125,-10.833740234375
2.7699999,0.30885201692581177,1.8914192914962769,9.41639518737793,7.415771484375,3.96728515625,-5.4931640625
2.7899999,0.2513911724090576,1.987187385559082,9.464279174804688,9.1400146484375,3.0059814453125,-4.3182373046875
2.8099999,0.16519992053508759,2.1499931812286377,9.473855972290039,6.34765625,2.74658203125,-7.080078125
2.8299999,0.08858546614646912,2.3104045391082764,9.485827445983887,0.7171630859375,4.608154296875,-1.6632080078125
2.8499999,0.033518824726343155,2.4612393379211426,9.476250648498535,-2.685546875,5.43212890625,5.5999755859375
2.8699999,0.028730420395731926,2.497152328491211,9.50498104095459,-1.8310546875,6.40869140625,7.171630859375
2.8899999,0.05746084079146385,2.473210334777832,9.548076629638672,-0.0457763671875,5.340576171875,2.62451171875
2.9099999,0.11252748221158981,2.3798365592956543,9.591172218322754,-1.0833740234375,3.4637451171875,1.2359619140625
2.9299999,0.14365209639072418,2.322375535964966,9.627084732055664,-2.9449462890625,1.0986328125,3.082275390625
2.9499999,0.1604115068912506,2.3032219409942627,9.660603523254395,-1.922607421875,0.152587890625,1.220703125
2.9699999,0.181959331035614,2.248155355453491,9.670180320739746,5.0201416015625,0.1983642578125,-0.7781982421875
2.9899999,0.1867477297782898,2.2218191623687744,9.639056205749512,8.7890625,-0.213623046875,-6.8359375
3.0099999,0.181959331035614,2.2218191623687744,9.581595420837402,5.37109375,3.387451171875,-9.5672607421875
3.0299999,0.1604115068912506,2.2625205516815186,9.502586364746094,2.593994140625,3.326416015625,-3.6468505859375
3.0499999,0.12689268589019775,2.3535003662109375,9.437943458557129,1.6937255859375,1.2969970703125,-0.5035400390625
3.0699999,0.08619125932455063,2.4396915435791016,9.411606788635254,0.640869140625,2.8533935546875,-1.1138916015625
3.0899999,0.043095629662275314,2.518700122833252,9.406818389892578,-1.1749267578125,4.2877197265625,-1.5716552734375
3.1099999,0.009576806798577309,2.5665841102600098,9.421183586120605,-2.685546875,3.7994384765625,2.86865234375
3.1299999,-0.004788403399288654,2.5785553455352783,9.454702377319336,-3.387451171875,1.434326171875,5.2032470703125
3.1499999,0.011971008032560349,2.5258827209472656,9.488221168518066,-0.396728515625,-0.274658203125,2.532958984375
3.1699999,0.05267243832349777,2.4396915435791016,9.493009567260742,1.739501953125,-0.1068115234375,-2.655029296875
3.1899999,0.090979665517807,2.3535003662109375,9.481039047241211,3.997802734375,2.8533935546875,-5.18798828125
3.2099999,0.090979665517807,2.3535003662109375,9.430760383605957,5.06591796875,2.9449462890625,-5.859375
3.2299999,0.07661445438861847,2.3965959548950195,9.423578262329102,3.4332275390625,3.7078857421875,-4.5013427734375
3.2499999,0.047884032130241394,2.4612393379211426,9.423578262329102,2.838134765625,3.326416015625,-1.5411376953125
3.2699999,0,2.5689783096313477,9.430760383605957,0.9002685546875,0.396728515625,-3.3111572265625
3.2899999,-0.040701430290937424,2.647987127304077,9.457097053527832,-2.2125244140625,2.8533935546875,-0.8392333984375
3.3099999,-0.09576806426048279,2.7317841053009033,9.464279174804688,-2.44140625,2.5177001953125,2.716064453125
3.3299999000000002,-0.1412578970193863,2.7916390895843506,9.488221168518066,-3.4027099609375,1.3427734375,4.1656494140625
3.3499999,-0.15083470940589905,2.7892448902130127,9.536105155944824,-3.021240234375,0.823974609375,4.7149658203125
3.3699999,-0.12689268589019775,2.7030537128448486,9.57201862335205,1.373291015625,0.3662109375,4.9285888671875
3.3899999,-0.090979665517807,2.6216509342193604,9.600749015808105,4.94384765625,0.213623046875,0.8544921875
3.4099999,-0.05746084079146385,2.5665841102600098,9.593565940856934,5.7525634765625,0.9765625,-2.2125244140625
3.4299999,-0.023942016065120697,2.5306711196899414,9.548076629638672,6.5765380859375,2.1514892578125,2.716064453125
3.4499999,-0.0071826050989329815,2.542642116546631,9.500192642211914,3.6468505859375,3.7841796875,2.9754638671875
3.4699999,0.021547814831137657,2.5258827209472656,9.433155059814453,3.9825439453125,3.4332275390625,1.129150390625
3.4899999,0.05746084079146385,2.4899697303771973,9.406818389892578,2.0294189453125,4.33349609375,1.2054443359375
3.5099999,0.0694318488240242,2.4684219360351562,9.373299598693848,1.129150390625,4.2724609375,0.3814697265625
3.5299999,0.040701430290937424,2.5091233253479004,9.361329078674316,0.3662109375,4.1961669921875,1.129150390625
3.5499999,-0.014365210197865963,2.5905263423919678,9.390059471130371,-2.4871826171875,3.997802734375,3.4942626953125
3.5699999,-0.07900865375995636,2.647987127304077,9.423578262329102,-0.4119873046875,0.67138671875,6.3629150390625
3.5899999,-0.13168109953403473,2.695871114730835,9.497797966003418,2.13623046875,-0.18310546875,4.45556640625
3.6099999,-0.16519992053508759,2.7102363109588623,9.550470352172852,3.0364990234375,-0.0457763671875,1.9989013671875
3.6299999,-0.17717093229293823,2.717418909072876,9.612719535827637,4.8980712890625,1.007080078125,4.8675537109375
3.6499999,-0.20111294090747833,2.760514497756958,9.615114212036133,7.0953369140625,1.2359619140625,6.927490234375
3.6699999,-0.2537853717803955,2.849100112915039,9.581595420837402,7.62939453125,0.9002685546875,7.99560546875
3.6899999,-0.3208230137825012,2.96162748336792,9.528923034667969,5.9051513671875,9.9029541015625,11.627197265625
3.7099999,-0.38546648621559143,3.071760892868042,9.502586364746094,5.9356689453125,18.1427001953125,17.4713134765625
3.7299999,-0.4213795065879822,3.141192674636841,9.466673851013184,9.1705322265625,15.31982421875,21.026611328125
3.7499999,-0.44771572947502136,3.2130186557769775,9.478644371032715,7.2174072265625,15.533447265625,18.6309814453125
3.7699999,-0.4429273009300232,3.2297780513763428,9.57201862335205,2.4261474609375,20.0653076171875,19.9127197265625
3.7899999,-0.45489832758903503,3.2632968425750732,9.576807022094727,12.6953125,7.3089599609375,25.848388671875
3.8099999,-0.4405331015586853,3.2321722507476807,9.706093788146973,11.5509033203125,9.796142578125,28.74755859375
3.8299999000000002,-0.43095630407333374,3.201047658920288,9.751583099365234,11.3677978515625,5.0811767578125,25.2532958984375
3.8499999,-0.45250412821769714,3.227383852005005,9.746794700622559,13.580322265625,-3.60107421875,21.6522216796875
3.8699999,-0.5099649429321289,3.354276657104492,9.677363395690918,11.962890625,-5.4931640625,28.289794921875
3.8899999,-0.586579442024231,3.4955344200134277,9.591172218322754,8.7127685546875,-3.4332275390625,40.496826171875
3.9099999,-0.6751648783683777,3.6750996112823486,9.490615844726562,9.58251953125,-6.561279296875,41.656494140625
3.9299999,-0.7326257228851318,3.794809579849243,9.385271072387695,11.810302734375,-11.5814208984375,39.9322509765625
3.9499999,-0.7924807667732239,3.9264907836914062,9.272743225097656,9.8724365234375,-10.2691650390625,44.769287109375
3.9699999,-0.8595184087753296,4.165910720825195,9.102754592895508,8.148193359375,-10.4827880859375,52.7191162109375
3.9899999,-0.8978256583213806,4.398148536682129,9.064447402954102,5.096435546875,-2.4566650390625,64.117431640625
4.0099999,-0.8738836050033569,4.537012100219727,9.097966194152832,12.63427734375,-4.547119140625,73.91357421875
4.029999900000001,-0.7829039692878723,4.587290287017822,9.222464561462402,22.186279296875,-13.36669921875,75.653076171875
4.0499999,-0.6368576288223267,4.5394062995910645,9.349357604980469,24.1241455078125,-12.176513671875,75.6072998046875
4.069999900000001,-0.4884171485900879,4.548983097076416,9.344569206237793,24.810791015625,-9.5977783203125,79.0863037109375
4.0899999000000005,-0.33758243918418884,4.5609540939331055,9.378087997436523,17.7764892578125,-1.4495849609375,87.9364013671875
4.1099999,-0.19393034279346466,4.527435302734375,9.363722801208496,16.845703125,-7.049560546875,97.2137451171875
4.1299999000000005,-0.019153613597154617,4.402936935424805,9.41400146484375,17.242431640625,-13.458251953125,99.2584228515625
4.1499999,0.1604115068912506,4.247313976287842,9.404424667358398,12.7105712890625,-13.092041015625,89.935302734375
4.1699999000000005,0.33518823981285095,4.043806552886963,9.32541561126709,9.1552734375,-11.65771484375,95.27587890625
4.1899999,0.4668693244457245,3.9480385780334473,9.196128845214844,18.5394287109375,-6.744384765625,98.4344482421875
4.209999900000001,0.5410895943641663,3.883395195007324,9.107542991638184,27.34375,-0.9918212890625,97.381591796875
4.2299999,0.6057330369949341,3.8810009956359863,8.999804496765137,23.4222412109375,-6.1492919921875,99.151611328125
4.249999900000001,0.6991068720817566,3.8307228088378906,8.932766914367676,11.8560791015625,-12.847900390625,105.3466796875
4.2699999,0.8834604024887085,3.773261785507202,8.757989883422852,10.986328125,-13.9923095703125,105.316162109375
4.289999900000001,1.194706678390503,3.603273630142212,8.47547435760498,17.63916015625,-11.7950439453125,100.341796875
4.3099999,1.6328455209732056,3.332728862762451,8.212111473083496,12.5732421875,-1.7242431640625,97.137451171875
4.329999900000001,2.1140801906585693,3.043030261993408,7.8745293617248535,6.7596435546875,-3.6468505859375,92.041015625
4.3499999,2.5713725090026855,2.741360902786255,7.654263019561768,0.2593994140625,-3.753662109375,84.808349609375
4.369999900000001,2.87064790725708,2.609679937362671,7.532158374786377,0.1678466796875,3.7078857421875,71.9757080078125
4.3899999,3.0166940689086914,2.5977089405059814,7.580042362213135,-0.579833984375,11.23046875,72.69287109375
4.409999900000001,3.050212860107422,2.6384103298187256,7.723694801330566,-5.340576171875,7.4615478515625,82.1533203125
4.4299999,3.026270866394043,2.698265314102173,7.953537940979004,-8.4381103515625,5.5389404296875,79.7576904296875
4.449999900000001,3.021482467651367,2.604891538619995,8.164227485656738,-9.490966796875,10.9405517578125,74.676513671875
4.4699999,3.023876667022705,2.473210334777832,8.31985092163086,-6.8511962890625,15.899658203125,71.8841552734375
4.489999900000001,3.043030261993408,2.2601263523101807,8.516175270080566,-5.7525634765625,19.805908203125,72.2808837890625
4.5099999,3.064578056335449,2.0231003761291504,8.710105895996094,-3.3416748046875,16.7083740234375,71.990966796875
4.529999900000001,3.098097085952759,1.7573440074920654,8.927978515625,-0.2899169921875,14.16015625,65.49072265625
4.5499999,3.1459810733795166,1.50355863571167,9.141061782836914,-3.7689208984375,17.1966552734375,60.0433349609375
4.569999900000001,3.2154128551483154,1.237802267074585,9.253589630126953,-5.06591796875,13.7786865234375,59.4329833984375
4.5899999000000005,3.2800562381744385,1.0271124839782715,9.354146003723145,-2.5482177734375,13.5345458984375,54.2449951171875
4.609999900000001,3.3255462646484375,0.8786720037460327,9.385271072387695,1.6326904296875,14.251708984375,45.0592041015625
4.6299999000000005,3.3255462646484375,0.8068459630012512,9.346963882446289,6.103515625,14.007568359375,41.3970947265625
4.6499999,3.246537446975708,0.9002198576927185,9.301473617553711,4.39453125,15.533447265625,39.825439453125
4.6699999000000005,3.1316158771514893,1.05105459690094,9.227252960205078,3.814697265625,14.2059326171875,42.6788330078125
4.6899999,3.002328872680664,1.2114660739898682,9.205705642700195,4.9285888671875,14.678955078125,43.1671142578125
4.709999900000001,2.889801502227783,1.3311761617660522,9.20091724395752,8.209228515625,14.5111083984375,38.63525390625
4.7299999,2.8227639198303223,1.3766659498214722,9.229647636413574,10.6964111328125,15.8233642578125,36.9110107421875
4.749999900000001,2.7772738933563232,1.4077905416488647,9.220070838928223,13.4735107421875,14.892578125,36.834716796875
4.7699999,2.7437551021575928,1.455674648284912,9.196128845214844,6.4544677734375,15.9759521484375,34.2864990234375
4.789999900000001,2.715024709701538,1.5155296325683594,9.141061782836914,1.953125,12.5885009765625,33.721923828125
4.8099999,2.693476915359497,1.5418659448623657,9.095572471618652,-1.5411376953125,15.19775390625,35.430908203125
4.829999900000001,2.671929121017456,1.5538369417190552,9.074024200439453,-3.3111572265625,13.48876953125,34.7900390625
4.8499999,2.674323320388794,1.5059528350830078,9.0859956741333,-7.720947265625,13.00048828125,32.8521728515625
4.869999900000001,2.7006595134735107,1.4053963422775269,9.126696586608887,-7.0343017578125,11.90185546875,32.9132080078125
4.8899999,2.736572504043579,1.3024457693099976,9.169792175292969,-6.8817138671875,13.275146484375,31.6162109375
4.909999900000001,2.784456491470337,1.1683704853057861,9.220070838928223,-8.1024169921875,12.3443603515625,31.25
4.9299999,2.82515811920166,1.039083480834961,9.253589630126953,-6.8206787109375,11.993408203125,30.487060546875
4.949999900000001,2.846705913543701,0.933738648891449,9.299078941345215,-4.119873046875,14.190673828125,27.7099609375
4.9699999,2.8419175148010254,0.8451532125473022,9.315838813781738,-1.4801025390625,13.9312744140625,26.0009765625
4.989999900000001,2.786850690841675,0.8571242094039917,9.368511199951172,-0.335693359375,16.05224609375,23.834228515625
5.0099999,2.7102363109588623,0.912190854549408,9.418789863586426,0.1373291015625,14.4805908203125,24.71923828125
5.029999900000001,2.626439332962036,0.9888052940368652,9.493009567260742,0.2288818359375,13.1683349609375,27.435302734375
5.0499999,2.5689783096313477,1.0414776802062988,9.53849983215332,-0.579833984375,10.7421875,27.6336669921875
5.069999900000001,2.5546131134033203,1.0247182846069336,9.579200744628906,-1.251220703125,11.7950439453125,25.5126953125
5.0899999000000005,2.564189910888672,0.9792284965515137,9.579200744628906,0.5340576171875,11.0015869140625,23.49853515625
5.109999900000001,2.5905263423919678,0.8954314589500427,9.59596061706543,-0.79345703125,11.6424560546875,23.5443115234375
5.1299999000000005,2.5929205417633057,0.8475474119186401,9.593565940856934,-0.3509521484375,9.2010498046875,22.430419921875
5.1499999,2.5929205417633057,0.8044517636299133,9.612719535827637,-1.1749267578125,9.70458984375,20.9503173828125
5.1699999000000005,2.564189910888672,0.8092401623725891,9.607931137084961,0.1678466796875,9.246826171875,20.6298828125
5.1899999,2.5258827209472656,0.828393816947937,9.610325813293457,-0.6866455078125,9.1400146484375,21.66748046875
5.209999900000001,2.492363929748535,0.8307880163192749,9.600749015808105,-1.89208984375,6.53076171875,22.6898193359375
5.2299999,2.4588451385498047,0.8307880163192749,9.600749015808105,-1.068115234375,6.927490234375,20.7061767578125
5.249999900000001,2.449268341064453,0.7805097699165344,9.612719535827637,-0.79345703125,7.7972412109375,19.561767578125
5.2699999,2.449268341064453,0.7182605266571045,9.612719535827637,0.67138671875,5.2642822265625,19.9127197265625
5.289999900000001,2.4636335372924805,0.6392518281936646,9.643844604492188,2.25830078125,6.2255859375,18.4783935546875
5.3099999,2.4827871322631836,0.5506663918495178,9.639056205749512,3.997802734375,4.241943359375,16.7388916015625
5.329999900000001,2.492363929748535,0.5219359993934631,9.605537414550781,4.638671875,3.96728515625,13.0615234375
5.3499999,2.5019407272338867,0.5099649429321289,9.557653427124023,2.716064453125,5.462646484375,14.0380859375
5.369999900000001,2.4899697303771973,0.5817909836769104,9.469067573547363,2.3956298828125,4.638671875,14.5416259765625
5.3899999,2.4851813316345215,0.6320692300796509,9.387664794921875,1.4190673828125,4.119873046875,14.9688720703125
5.409999900000001,2.477998733520508,0.6703764796257019,9.339780807495117,-0.152587890625,5.523681640625,13.885498046875
5.4299999,2.477998733520508,0.6871358752250671,9.318233489990234,0.762939453125,5.9661865234375,12.7410888671875
5.449999900000001,2.477998733520508,0.6775590777397156,9.318233489990234,2.9144287109375,5.4473876953125,14.007568359375
5.4699999,2.4875755310058594,0.6488286852836609,9.32541561126709,2.38037109375,4.8980712890625,14.0228271484375
5.489999900000001,2.4875755310058594,0.6224924325942993,9.337387084960938,1.922607421875,6.9427490234375,10.406494140625
5.5099999,2.492363929748535,0.5985504388809204,9.354146003723145,2.2735595703125,8.4075927734375,8.7432861328125
5.529999900000001,2.497152328491211,0.5746083855628967,9.354146003723145,3.021240234375,5.5999755859375,9.9639892578125
5.5499999,2.492363929748535,0.586579442024231,9.35893440246582,1.7242431640625,5.55419921875,8.8653564453125
5.569999900000001,2.473210334777832,0.6248866319656372,9.351752281188965,0.6866455078125,8.544921875,6.317138671875
5.5899999000000005,2.4612393379211426,0.6320692300796509,9.330204010009766,-1.1444091796875,9.3841552734375,8.4228515625
5.609999900000001,2.427720546722412,0.6703764796257019,9.337387084960938,-5.7220458984375,6.1187744140625,6.5155029296875
5.6299999000000005,2.410961151123047,0.6703764796257019,9.315838813781738,-5.4473876953125,5.218505859375,5.1422119140625
5.6499999,2.3989901542663574,0.6871358752250671,9.32541561126709,-5.615234375,9.21630859375,4.39453125
5.6699999000000005,2.3702597618103027,0.7206547260284424,9.332598686218262,-6.805419921875,11.566162109375,4.638671875
5.6899999,2.341529369354248,0.7469909191131592,9.375694274902344,-5.06591796875,11.41357421875,7.4615478515625
5.709999900000001,2.300827741622925,0.7589619159698486,9.461885452270508,-5.31005859375,9.4451904296875,7.32421875
5.7299999,2.2577321529388428,0.7613561153411865,9.552865028381348,-5.615234375,9.6893310546875,3.936767578125
5.749999900000001,2.2218191623687744,0.730231523513794,9.622296333312988,-5.8746337890625,9.4451904296875,4.2266845703125
5.7699999,2.190694570541382,0.6991068720817566,9.677363395690918,-9.2315673828125,8.23974609375,5.3253173828125
5.789999900000001,2.166752576828003,0.667982280254364,9.691728591918945,-9.4451904296875,6.4239501953125,4.39453125
5.8099999,2.145204782485962,0.6368576288223267,9.68933391571045,-11.16943359375,5.9051513671875,3.90625
5.829999900000001,2.1356279850006104,0.586579442024231,9.6989107131958,-13.641357421875,5.7830810546875,4.9285888671875
5.8499999,2.123656988143921,0.5410895943641663,9.667786598205566,-11.6119384765625,5.126953125,5.2490234375
5.869999900000001,2.126051187515259,0.4836287498474121,9.696516990661621,-11.0931396484375,6.4697265625,4.150390625
5.8899999,2.123656988143921,0.42377370595932007,9.670180320739746,-10.7269287109375,4.608154296875,3.7841796875
5.909999900000001,2.123656988143921,0.3758896589279175,9.6989107131958,-10.7269287109375,5.5084228515625,3.9215087890625
5.9299999,2.1116859912872314,0.3447650372982025,9.706093788146973,-10.9405517578125,5.6915283203125,4.2572021484375
5.949999900000001,2.1045033931732178,0.2992752194404602,9.708487510681152,-7.568359375,3.570556640625,5.0201416015625
5.9699999,2.0877439975738525,0.272938996553421,9.727641105651855,-6.5155029296875,5.035400390625,3.0670166015625
5.989999900000001,2.0685901641845703,0.24181437492370605,9.718064308166504,-5.462646484375,4.6844482421875,1.6326904296875
6.0099999,2.051830768585205,0.2322375625371933,9.713275909423828,-4.6844482421875,3.7689208984375,1.3580322265625
6.029999900000001,2.0422539710998535,0.21787235140800476,9.708487510681152,-1.739501953125,3.90625,2.1820068359375
6.0499999,2.032677173614502,0.21787235140800476,9.691728591918945,0.1678466796875,3.5552978515625,0.701904296875
6.069999900000001,2.030282974243164,0.21308395266532898,9.66539192199707,0.3814697265625,3.448486328125,-0.42724609375
6.0899999000000005,2.0207061767578125,0.23942017555236816,9.653421401977539,1.068115234375,4.6539306640625,-0.640869140625
6.109999900000001,2.0207061767578125,0.24420857429504395,9.603142738342285,2.4261474609375,3.23486328125,1.0528564453125
6.1299999000000005,2.008735179901123,0.2944868206977844,9.588777542114258,1.5106201171875,4.0740966796875,-0.5950927734375
6.149999900000001,2.0039467811584473,0.3232172429561615,9.5408935546875,0.732421875,4.3792724609375,-0.4425048828125
6.1699999000000005,2.0015525817871094,0.35673606395721436,9.548076629638672,0.8392333984375,6.16455078125,1.2359619140625
6.1899999,1.9823989868164062,0.40462008118629456,9.552865028381348,1.800537109375,5.401611328125,1.312255859375
6.209999900000001,1.965639591217041,0.4405331015586853,9.603142738342285,1.983642578125,4.7149658203125,1.495361328125
6.2299999,1.9512743949890137,0.45489832758903503,9.651026725769043,2.3040771484375,3.6163330078125,2.5482177734375
6.249999900000001,1.9393033981323242,0.45010992884635925,9.670180320739746,2.2735595703125,3.1890869140625,2.5787353515625
6.2699999,1.941697597503662,0.4165911078453064,9.694122314453125,3.173828125,4.974365234375,1.52587890625
6.289999900000001,1.941697597503662,0.3758896589279175,9.691728591918945,3.3416748046875,4.669189453125,0.2899169921875
6.3099999,1.9321208000183105,0.3423708379268646,9.713275909423828,2.4261474609375,3.326416015625,0.8544921875
6.329999900000001,1.9081788063049316,0.3447650372982025,9.727641105651855,3.4637451171875,2.4566650390625,0.6103515625
6.3499999,1.8770540952682495,0.35673606395721436,9.749189376831055,4.7454833984375,3.5400390625,1.556396484375
6.369999900000001,1.845929503440857,0.38307225704193115,9.732429504394531,5.5694580078125,1.9378662109375,1.6632080078125
6.3899999,1.8339585065841675,0.40462008118629456,9.643844604492188,2.5482177734375,1.2969970703125,1.800537109375
6.409999900000001,1.8411411046981812,0.4118026793003082,9.593565940856934,2.99072265625,3.9520263671875,1.068115234375
6.4299999,1.8531121015548706,0.4141969084739685,9.543288230895996,3.0975341796875,4.8065185546875,0.274658203125
6.449999900000001,1.8602946996688843,0.4165911078453064,9.524134635925293,2.410888671875,3.90625,1.312255859375
6.4699999,1.8626888990402222,0.43095630407333374,9.543288230895996,2.1820068359375,3.5247802734375,1.251220703125
6.489999900000001,1.8626888990402222,0.42856210470199585,9.593565940856934,1.8768310546875,4.0130615234375,1.190185546875
6.5099999,1.8579005002975464,0.42377370595932007,9.643844604492188,2.9144287109375,3.35693359375,0.3204345703125
6.529999900000001,1.8507179021835327,0.43095630407333374,9.694122314453125,2.593994140625,2.7313232421875,-0.518798828125
6.5499999,1.8363527059555054,0.44771572947502136,9.725247383117676,1.8157958984375,2.8076171875,0.18310546875
6.569999900000001,1.8267759084701538,0.47884035110473633,9.742006301879883,1.8157958984375,3.2958984375,0.4119873046875
6.5899999000000005,1.821987509727478,0.5123591423034668,9.744400978088379,0.823974609375,2.4261474609375,0.5950927734375
6.609999900000001,1.824381709098816,0.5267243981361389,9.749189376831055,0.518798828125,1.922607421875,0.7781982421875
6.6299999000000005,1.821987509727478,0.5386953949928284,9.758766174316406,0.6256103515625,2.197265625,0.732421875
6.649999900000001,1.8195933103561401,0.5363011956214905,9.75637149810791,1.251220703125,1.03759765625,1.312255859375
6.6699999000000005,1.8076223134994507,0.5530605912208557,9.734824180603027,0.8087158203125,-0.091552734375,0.823974609375
6.6899999,1.800439715385437,0.5554547905921936,9.696516990661621,0.335693359375,1.251220703125,1.0833740234375
6.709999900000001,1.7980455160140991,0.5674257874488831,9.66299819946289,-0.18310546875,2.899169921875,1.1749267578125
6.7299999,1.7836803197860718,0.6224924325942993,9.622296333312988,-0.213623046875,0.885009765625,0.3662109375
6.749999900000001,1.7908629179000854,0.6105214357376099,9.62947940826416,-0.5035400390625,1.739501953125,2.960205078125
6.7699999,1.7860745191574097,0.6368576288223267,9.636661529541016,-1.0528564453125,0.79345703125,2.2735595703125
6.789999900000001,1.7956513166427612,0.6177040338516235,9.646238327026367,-1.220703125,0.18310546875,0.4730224609375
6.8099999,1.800439715385437,0.6057330369949341,9.655815124511719,-0.48828125,2.166748046875,-0.0457763671875
6.829999900000001,1.8124107122421265,0.5770025849342346,9.646238327026367,-0.3204345703125,1.46484375,1.9989013671875
6.8499999,1.8124107122421265,0.5793967843055725,9.651026725769043,-0.335693359375,0.396728515625,1.434326171875
6.869999900000001,1.8171991109848022,0.5602431893348694,9.648633003234863,0,0.091552734375,2.01416015625
6.8899999,1.8148049116134644,0.569819986820221,9.660603523254395,0.213623046875,0.7171630859375,2.197265625
6.909999900000001,1.8148049116134644,0.5650315880775452,9.639056205749512,0.5035400390625,-0.946044921875,3.84521484375
6.9299999,1.8148049116134644,0.5722141861915588,9.634267807006836,-0.4425048828125,0.701904296875,3.570556640625
6.949999900000001,1.8315643072128296,0.545877993106842,9.619902610778809,-1.40380859375,1.64794921875,2.685546875
6.9699999,1.8363527059555054,0.5267243981361389,9.624691009521484,-0.946044921875,1.0833740234375,1.373291015625
6.989999900000001,1.8483237028121948,0.5027823448181152,9.648633003234863,-0.091552734375,0.823974609375,1.03759765625
7.0099999,1.8483237028121948,0.4908113479614258,9.66539192199707,0.274658203125,0.1373291015625,1.64794921875
7.029999900000001,1.843535304069519,0.4836287498474121,9.667786598205566,-0.3509521484375,0.42724609375,1.0986328125
7.0499999,1.8363527059555054,0.47165772318840027,9.648633003234863,-0.7781982421875,0.5645751953125,0.885009765625
7.069999900000001,1.8267759084701538,0.47165772318840027,9.622296333312988,-0.8544921875,-0.274658203125,1.4495849609375
7.0899999000000005,1.821987509727478,0.4692635238170624,9.59596061706543,-0.5645751953125,-0.0762939453125,2.8839111328125
7.109999900000001,1.8195933103561401,0.4692635238170624,9.603142738342285,-0.5645751953125,0.518798828125,1.6632080078125
7.1299999000000005,1.8171991109848022,0.4692635238170624,9.607931137084961,-0.396728515625,0.4425048828125,0.3814697265625
7.149999900000001,1.8195933103561401,0.45489832758903503,9.646238327026367,0.1220703125,0.274658203125,0.06103515625
7.1699999000000005,1.8148049116134644,0.47644615173339844,9.66539192199707,0.732421875,0.732421875,-0.7476806640625
7.1899999,1.8171991109848022,0.4812345504760742,9.677363395690918,0.1373291015625,0.7781982421875,-0.0152587890625
7.209999900000001,1.8148049116134644,0.5051765441894531,9.679757118225098,-1.2664794921875,1.3275146484375,0
7.2299999,1.8195933103561401,0.5147533416748047,9.677363395690918,-0.885009765625,0.30517578125,-0.6103515625
7.249999900000001,1.8363527059555054,0.5003881454467773,9.653421401977539,0.2899169921875,-0.5340576171875,0.2899169921875
7.2699999,1.8507179021835327,0.4884171485900879,9.624691009521484,-0.030517578125,0.640869140625,-1.3885498046875
7.289999900000001,1.8602946996688843,0.4884171485900879,9.576807022094727,-0.54931640625,2.593994140625,-2.3956298828125
7.3099999,1.8626888990402222,0.5051765441894531,9.543288230895996,0.18310546875,2.3345947265625,-1.6632080078125
7.329999900000001,1.8579005002975464,0.5386953949928284,9.545681953430176,-0.1220703125,2.8228759765625,-0.54931640625
7.3499999,1.845929503440857,0.5841852426528931,9.583989143371582,-0.9307861328125,1.6326904296875,-0.518798828125
7.369999900000001,1.843535304069519,0.6009446382522583,9.634267807006836,-0.9307861328125,0.91552734375,0.4730224609375
7.3899999,1.843535304069519,0.6009446382522583,9.68933391571045,-0.518798828125,0.9002685546875,0.396728515625
7.409999900000001,1.8483237028121948,0.5841852426528931,9.720458984375,-0.244140625,1.1444091796875,-0.18310546875
7.4299999,1.8483237028121948,0.5817909836769104,9.72285270690918,-0.3509521484375,0.7171630859375,-0.457763671875
7.449999900000001,1.8507179021835327,0.5674257874488831,9.713275909423828,-0.6866455078125,1.0528564453125,1.0223388671875
7.4699999,1.845929503440857,0.5722141861915588,9.691728591918945,-0.8087158203125,0.8392333984375,1.4801025390625
7.489999900000001,1.8507179021835327,0.5530605912208557,9.660603523254395,-0.79345703125,0.48828125,1.1749267578125
7.5099999,1.8507179021835327,0.5363011956214905,9.651026725769043,-0.9613037109375,1.0833740234375,0.2899169921875
7.529999900000001,1.8507179021835327,0.5171475410461426,9.639056205749512,-0.30517578125,0.6256103515625,0.2593994140625
7.5499999,1.8483237028121948,0.5027823448181152,9.624691009521484,0.06103515625,-0.18310546875,0.8392333984375
7.569999900000001,1.8363527059555054,0.49559974670410156,9.59835433959961,0.762939453125,-0.0762939453125,0.48828125
7.5899999000000005,1.8267759084701538,0.49320554733276367,9.543288230895996,0.67138671875,1.28173828125,-0.1983642578125
7.609999900000001,1.8195933103561401,0.49799394607543945,9.493009567260742,0.0762939453125,2.6092529296875,0.1068115234375
7.6299999000000005,1.8148049116134644,0.5195417404174805,9.469067573547363,0.1373291015625,3.11279296875,0.518798828125
7.649999900000001,1.8171991109848022,0.5363011956214905,9.490615844726562,0.42724609375,2.838134765625,0.8544921875
7.6699999000000005,1.8315643072128296,0.5315127968788147,9.550470352172852,0.732421875,1.983642578125,1.4801025390625
7.6899999,1.8483237028121948,0.5195417404174805,9.617507934570312,0.1983642578125,1.7242431640625,0.274658203125
7.709999900000001,1.86508309841156,0.5051765441894531,9.655815124511719,0.6256103515625,1.3275146484375,0.0762939453125
7.7299999,1.8770540952682495,0.5003881454467773,9.674968719482422,0.2288818359375,2.197265625,0.946044921875
7.749999900000001,1.8770540952682495,0.5171475410461426,9.677363395690918,-0.640869140625,2.471923828125,0.9918212890625
7.7699999,1.8722656965255737,0.524330198764801,9.679757118225098,-0.6561279296875,1.861572265625,1.6326904296875
7.789999900000001,1.86508309841156,0.5291185975074768,9.6989107131958,-1.1444091796875,1.434326171875,1.678466796875
7.8099999,1.8579005002975464,0.507570743560791,9.706093788146973,-1.3427734375,0.518798828125,2.3345947265625
7.829999900000001,1.8483237028121948,0.5027823448181152,9.710882186889648,-2.3040771484375,0.6561279296875,2.4261474609375
7.8499999,1.8315643072128296,0.5027823448181152,9.660603523254395,-3.9825439453125,0.030517578125,4.1046142578125
7.869999900000001,1.824381709098816,0.4668693244457245,9.639056205749512,-6.134033203125,1.46484375,8.4991455078125
7.8899999,1.8267759084701538,0.3878606855869293,9.569623947143555,-9.8876953125,0.54931640625,11.688232421875
7.909999900000001,1.886630892753601,0.16998831927776337,9.610325813293457,-16.6168212890625,0.67138671875,15.0146484375
7.9299999,2.013523578643799,-0.2322375625371933,9.770736694335938,-23.681640625,0.7781982421875,20.0653076171875
7.949999900000001,2.183511972427368,-0.8044517636299133,10.043676376342773,-25.69580078125,-5.9967041015625,26.67236328125
7.9699999,2.3726539611816406,-1.6065093278884888,10.407594680786133,-26.9927978515625,-11.1846923828125,34.1033935546875
7.989999900000001,2.5737667083740234,-2.7293899059295654,10.699687004089355,-28.3050537109375,-17.242431640625,39.794921875
8.0099999,2.7676970958709717,-4.101267337799072,10.6925048828125,-25.787353515625,-22.8271484375,27.40478515625
8.0299999,2.896984100341797,-5.453991413116455,10.433931350708008,-28.4271240234375,-16.9219970703125,-5.0811767578125
8.049999900000001,2.913743495941162,-6.564900875091553,9.93354320526123,-28.8238525390625,-2.044677734375,-22.674560546875
8.069999900000001,2.7700912952423096,-7.194576263427734,9.418789863586426,-14.6026611328125,10.528564453125,-32.04345703125
8.0899999,2.5498247146606445,-7.659051418304443,9.090784072875977,-3.6163330078125,20.4925537109375,-35.980224609375
8.1099999,2.164358377456665,-7.805097579956055,8.920795440673828,-4.0283203125,14.6026611328125,-81.8328857421875
8.129999900000001,1.702277421951294,-7.864952564239502,9.050082206726074,-2.44140625,27.3590087890625,-126.0528564453125
8.149999900000001,1.0606313943862915,-7.47230339050293,9.346963882446289,13.0157470703125,38.360595703125,-153.533935546875
8.1699999,0.26096799969673157,-6.502651691436768,9.780313491821289,23.651123046875,34.9273681640625,-170.135498046875
8.1899999,-0.586579442024231,-5.044582843780518,10.278307914733887,11.4288330078125,21.05712890625,-180.755615234375
8.2099999,-1.3215993642807007,-3.5194764137268066,10.613495826721191,-5.0506591796875,7.32421875,-177.6580810546875
8.229999900000001,-1.8770540952682495,-2.1140801906585693,10.685321807861328,-19.53125,-5.1727294921875,-182.952880859375
8.2499999,-2.1930887699127197,-1.170764684677124,10.508151054382324,-23.5748291015625,-3.448486328125,-191.22314453125
8.2699999,-2.3582887649536133,-0.629675030708313,10.113107681274414,-11.810302734375,4.3792724609375,-198.6236572265625
8.2899999,-2.4851813316345215,-0.2322375625371933,9.641449928283691,2.1514892578125,4.8980712890625,-213.4246826171875
8.309999900000001,-2.6168625354766846,0.2059013396501541,9.344569206237793,0.2593994140625,11.65771484375,-213.1500244140625
8.3299999,-2.7724854946136475,0.6991068720817566,9.208099365234375,1.129150390625,9.0179443359375,-197.540283203125
8.3499999,-2.9472622871398926,1.3072341680526733,9.141061782836914,16.6473388671875,-0.701904296875,-192.9931640625
8.3699999,-3.071760892868042,1.9033904075622559,9.299078941345215,6.7291259765625,9.2620849609375,-201.0345458984375
8.389999900000001,-3.184288263320923,2.52109432220459,9.354146003723145,-9.002685546875,10.3759765625,-199.676513671875
8.4099999,-3.2178070545196533,3.0765492916107178,9.41400146484375,-19.073486328125,-1.6632080078125,-184.051513671875
8.4299999,-3.1196448802948,3.428496837615967,9.607931137084961,-33.172607421875,0.6561279296875,-165.9088134765625
8.4499999,-2.9520506858825684,3.5745432376861572,9.564835548400879,-18.341064453125,-6.805419921875,-167.236328125
8.469999900000001,-2.6671407222747803,3.4165258407592773,9.5408935546875,-11.90185546875,-1.8310546875,-166.9769287109375
8.4899999,-2.3942017555236816,3.224989652633667,9.354146003723145,-28.3203125,-1.922607421875,-162.139892578125
8.5099999,-2.1164743900299072,2.896984100341797,9.102754592895508,-41.351318359375,-6.2255859375,-147.5372314453125
8.5299999,-1.9297266006469727,2.82515811920166,8.971074104309082,-47.7142333984375,0.8392333984375,-155.7464599609375
8.549999900000001,-1.8171991109848022,2.8610711097717285,8.880094528198242,-27.2369384765625,16.6015625,-147.0184326171875
8.569999900000001,-1.8124107122421265,3.1292216777801514,8.925583839416504,2.5787353515625,27.2369384765625,-116.180419921875
8.5899999,-1.886630892753601,3.490746021270752,8.923190116882324,8.758544921875,25.2685546875,-96.74072265625
8.6099999,-2.054224967956543,3.976768970489502,9.097966194152832,-15.228271484375,34.5611572265625,-103.4393310546875
8.629999900000001,-2.2457611560821533,4.378994941711426,9.275136947631836,-39.0167236328125,26.947021484375,-88.348388671875
8.649999900000001,-2.4684219360351562,4.910507678985596,9.720458984375,-42.41943359375,17.547607421875,-57.952880859375
8.6699999,-2.585737943649292,5.252878665924072,10.204087257385254,-28.411865234375,7.4920654296875,-28.25927734375
8.6899999,-2.449268341064453,5.207388877868652,10.776301383972168,-22.918701171875,4.21142578125,-0.42724609375
8.709999900000001,-2.1356279850006104,4.807557106018066,11.046846389770508,1.5869140625,-3.7841796875,-3.5247802734375
8.729999900000001,-1.6543933153152466,4.132391929626465,11.245565414428711,5.584716796875,3.173828125,-6.65283203125
8.7499999,-1.1204863786697388,3.268085241317749,11.168951034545898,-5.401611328125,0.2899169921875,15.0604248046875
8.7699999,-0.6488286852836609,2.5043349266052246,10.960655212402344,-1.77001953125,-12.3291015625,20.3857421875
8.7899999,-0.23702596127986908,1.8076223134994507,10.733205795288086,-5.767822265625,-10.0555419921875,10.6964111328125
8.809999900000001,0.10773907601833344,1.1348515748977661,10.405200958251953,2.3040771484375,-5.2337646484375,14.0533447265625
8.8299999,0.31603461503982544,0.7158663272857666,10.125079154968262,10.0555419921875,-2.105712890625,13.641357421875
8.8499999,0.4189853072166443,0.44771572947502136,9.928754806518555,3.96728515625,-0.9765625,11.2762451171875
8.8699999,0.45250412821769714,0.2992752194404602,9.876082420349121,0.7476806640625,-3.6773681640625,11.4288330078125
8.889999900000001,0.44532153010368347,0.19632454216480255,9.926360130310059,3.5247802734375,-5.0811767578125,11.260986328125
8.9099999,0.40462008118629456,0.181959331035614,9.938331604003906,7.5836181640625,-7.3089599609375,8.72802734375
8.9299999,0.363918662071228,0.19153612852096558,9.945513725280762,3.1585693359375,-3.875732421875,8.48388671875
8.9499999,0.33758243918418884,0.2082955539226532,9.837775230407715,4.2572021484375,-3.082275390625,12.7716064453125
8.969999900000001,0.3495534360408783,0.19153612852096558,9.742006301879883,6.1187744140625,-4.39453125,11.962890625
8.9899999,0.40462008118629456,0.1149216815829277,9.627084732055664,2.349853515625,-6.5155029296875,6.8817138671875
9.0099999,0.4836287498474121,0.016759412363171577,9.50737476348877,0.9765625,-6.3629150390625,3.3721923828125
9.0299999,0.5554547905921936,-0.043095629662275314,9.430760383605957,-0.6866455078125,0.518798828125,3.2958984375
9.049999900000001,0.5937620401382446,-0.06224924325942993,9.35893440246582,-0.701904296875,-1.7852783203125,4.0130615234375
9.069999900000001,0.6200982332229614,-0.07422025501728058,9.368511199951172,-0.18310546875,-1.15966796875,3.5247802734375
9.0899999,0.608127236366272,-0.028730420395731926,9.399636268615723,1.5411376953125,0.48828125,-1.8768310546875
9.1099999,0.586579442024231,0.011971008032560349,9.428366661071777,3.0975341796875,2.471923828125,-1.3580322265625
9.129999900000001,0.545877993106842,0.10295066982507706,9.461885452270508,1.678466796875,3.0059814453125,0
9.149999900000001,0.49559974670410156,0.2106897532939911,9.497797966003418,0.1220703125,3.35693359375,-1.6937255859375
9.1699999,0.4405331015586853,0.3208230137825012,9.567230224609375,-1.220703125,2.288818359375,-2.9296875
9.1899999,0.40222588181495667,0.3758896589279175,9.648633003234863,0.9613037109375,2.166748046875,-0.3204345703125
9.209999900000001,0.3663128614425659,0.42856210470199585,9.718064308166504,3.2806396484375,2.655029296875,0.06103515625
9.229999900000001,0.3423708379268646,0.47405192255973816,9.792284965515137,1.77001953125,4.364013671875,-3.387451171875
9.2499999,0.3280056416988373,0.5123591423034668,9.830592155456543,1.3885498046875,3.082275390625,-2.01416015625
9.2699999,0.3232172429561615,0.5530605912208557,9.8784761428833,1.8157958984375,0.8544921875,0.6561279296875
9.2899999,0.3064578175544739,0.6129156351089478,9.890447616577148,2.1209716796875,-0.396728515625,-0.48828125
9.309999900000001,0.29209262132644653,0.6560112833976746,9.911994934082031,0.7781982421875,0.5950927734375,-0.67138671875
9.3299999,0.2777273952960968,0.706289529800415,9.93593692779541,-0.0762939453125,2.4871826171875,1.7242431640625
9.3499999,0.272938996553421,0.7326257228851318,9.971850395202637,2.288818359375,-0.42724609375,4.39453125
9.3699999,0.26575639843940735,0.7781155705451965,10.02452278137207,0.9613037109375,-1.708984375,3.41796875
9.389999900000001,0.2849099934101105,0.7733271718025208,10.062829971313477,1.0833740234375,-3.509521484375,4.82177734375
9.4099999,0.3208230137825012,0.7398083209991455,10.053253173828125,2.777099609375,-3.265380859375,7.5531005859375
9.4299999,0.35913026332855225,0.7038952708244324,10.014945983886719,1.9378662109375,-4.0130615234375,5.6610107421875
9.4499999,0.4189853072166443,0.608127236366272,9.955090522766113,2.3956298828125,-1.7852783203125,5.8135986328125
9.469999900000001,0.4429273009300232,0.5817909836769104,9.861717224121094,3.8909912109375,-2.593994140625,3.60107421875
9.4899999,0.45489832758903503,0.5674257874488831,9.785101890563965,1.64794921875,-2.960205078125,4.3182373046875
9.5099999,0.45010992884635925,0.5770025849342346,9.6989107131958,1.1138916015625,-1.7852783203125,6.9580078125
9.5299999,0.42856210470199585,0.6248866319656372,9.639056205749512,2.105712890625,-1.739501953125,4.08935546875
9.549999900000001,0.42856210470199585,0.6177040338516235,9.576807022094727,4.2877197265625,-0.1373291015625,3.814697265625
9.569999900000001,0.42377370595932007,0.6392518281936646,9.526528358459473,4.730224609375,0.9613037109375,4.119873046875
9.5899999,0.4141969084739685,0.6703764796257019,9.481039047241211,1.007080078125,2.197265625,2.716064453125
9.6099999,0.4189853072166443,0.6560112833976746,9.44752025604248,0.0457763671875,2.899169921875,6.072998046875
9.629999900000001,0.4118026793003082,0.6584054827690125,9.445125579833984,0.6866455078125,4.57763671875,3.753662109375
9.649999900000001,0.4118026793003082,0.6224924325942993,9.476250648498535,1.1444091796875,5.7830810546875,2.105712890625
9.6699999,0.4118026793003082,0.6009446382522583,9.53849983215332,-0.457763671875,5.4473876953125,2.8839111328125
9.6899999,0.4118026793003082,0.569819986820221,9.619902610778809,-0.91552734375,3.936767578125,4.0130615234375
9.709999900000001,0.40701428055763245,0.569819986820221,9.672574996948242,0.06103515625,2.777099609375,2.9754638671875
9.729999900000001,0.4118026793003082,0.5602431893348694,9.765948295593262,-3.23486328125,6.683349609375,2.5482177734375
9.7499999,0.4381389021873474,0.5099649429321289,9.821015357971191,-0.48828125,4.8980712890625,4.33349609375
9.7699999,0.4572925269603729,0.47644615173339844,9.885659217834473,0.8392333984375,3.265380859375,2.4261474609375
9.7899999,0.47405192255973816,0.45489832758903503,9.931148529052734,-0.3204345703125,2.62451171875,-1.434326171875
9.809999900000001,0.47644615173339844,0.4596867263317108,9.959878921508789,-0.518798828125,3.5247802734375,0.7171630859375
9.8299999,0.4644751250743866,0.5051765441894531,9.959878921508789,-0.396728515625,1.8463134765625,2.8839111328125
9.8499999,0.44771572947502136,0.5626373887062073,9.95748519897461,-1.89208984375,-0.5950927734375,2.38037109375
9.8699999,0.44771572947502136,0.5841852426528931,9.971850395202637,-2.4566650390625,0.213623046875,1.129150390625
9.889999900000001,0.4668693244457245,0.5674257874488831,9.967061996459961,1.068115234375,0.3814697265625,1.5716552734375
9.9099999,0.47884035110473633,0.5722141861915588,9.962273597717285,1.708984375,-0.18310546875,-0.6866455078125
9.9299999,0.4836287498474121,0.5841852426528931,9.938331604003906,0.8392333984375,0.274658203125,-0.54931640625
9.9499999,0.4596867263317108,0.6536170840263367,9.895236015319824,-0.1373291015625,0.18310546875,0.335693359375
9.969999900000001,0.4165911078453064,0.7374141216278076,9.871294021606445,-0.9613037109375,-0.457763671875,1.5411376953125
9.9899999,0.3758896589279175,0.7829039692878723,9.86889934539795,-0.0457763671875,-0.396728515625,3.3416748046875
10.0099999,0.33997663855552673,0.8140285611152649,9.883264541625977,1.1138916015625,-1.7852783203125,0.9613037109375
10.0299999,0.3208230137825012,0.8092401623725891,9.86889934539795,1.129150390625,-2.288818359375,0.152587890625
10.049999900000001,0.31364041566848755,0.790086567401886,9.86650562286377,-0.8392333984375,0.946044921875,2.410888671875
10.069999900000001,0.3232172429561615,0.7613561153411865,9.837775230407715,0.91552734375,0.885009765625,3.0670166015625
10.0899999,0.33279404044151306,0.7589619159698486,9.816226959228516,1.9683837890625,-0.6256103515625,0.9002685546875
10.1099999,0.35673606395721436,0.7422025203704834,9.816226959228516,-0.48828125,-0.6866455078125,1.28173828125
10.129999900000001,0.38067805767059326,0.7350199222564697,9.828198432922363,-2.0294189453125,-0.5950927734375,4.21142578125
10.149999900000001,0.4165911078453064,0.6871358752250671,9.830592155456543,0.4730224609375,-1.434326171875,4.791259765625
10.1699999,0.4405331015586853,0.6584054827690125,9.840168952941895,0.91552734375,-2.0599365234375,0.732421875
10.1899999,0.4644751250743866,0.6224924325942993,9.840168952941895,-0.54931640625,-1.220703125,0.5950927734375
10.209999900000001,0.47165772318840027,0.6105214357376099,9.806650161743164,-0.152587890625,-2.105712890625,4.364013671875
10.229999900000001,0.48602294921875,0.586579442024231,9.794678688049316,0.0152587890625,0.5035400390625,4.69970703125
10.2499999,0.49799394607543945,0.5746083855628967,9.749189376831055,1.708984375,-0.152587890625,0.79345703125
10.2699999,0.5219359993934631,0.5291185975074768,9.72285270690918,1.312255859375,-0.457763671875,0.1678466796875
10.2899999,0.5386953949928284,0.5099649429321289,9.691728591918945,-0.2593994140625,0.518798828125,2.2125244140625
10.309999900000001,0.5315127968788147,0.5363011956214905,9.684545516967773,-2.410888671875,0.1220703125,0.91552734375
10.3299999,0.5410895943641663,0.5219359993934631,9.684545516967773,-1.129150390625,-0.640869140625,1.9989013671875
10.3499999,0.545877993106842,0.5195417404174805,9.72285270690918,-0.1678466796875,0.0152587890625,1.220703125
10.3699999,0.5578489899635315,0.5051765441894531,9.744400978088379,-0.79345703125,0.2288818359375,-0.5950927734375
10.389999900000001,0.5626373887062073,0.5267243981361389,9.768342971801758,-0.6561279296875,-0.518798828125,-1.2664794921875
10.4099999,0.569819986820221,0.5482721924781799,9.787496566772461,-0.1678466796875,-0.2899169921875,0.9002685546875
10.4299999,0.5602431893348694,0.5913678407669067,9.773131370544434,0.3814697265625,-1.28173828125,0.885009765625
10.4499999,0.5674257874488831,0.6057330369949341,9.785101890563965,-0.6866455078125,-0.1373291015625,-0.48828125
10.469999900000001,0.5674257874488831,0.6129156351089478,9.749189376831055,-1.0528564453125,0.1220703125,-0.8697509765625
10.4899999,0.569819986820221,0.6200982332229614,9.746794700622559,-0.885009765625,-0.0762939453125,-0.4425048828125
10.5099999,0.5674257874488831,0.6224924325942993,9.727641105651855,-0.518798828125,0.1983642578125,0.762939453125
10.5299999,0.5626373887062073,0.6200982332229614,9.725247383117676,-0.67138671875,0.7781982421875,0.5340576171875
10.549999900000001,0.5650315880775452,0.6009446382522583,9.718064308166504,0.4730224609375,1.0833740234375,-0.518798828125
10.569999900000001,0.5602431893348694,0.5985504388809204,9.696516990661621,1.0223388671875,1.800537109375,-1.6021728515625
10.5899999,0.5554547905921936,0.608127236366272,9.68933391571045,-0.335693359375,2.288818359375,-0.457763671875
10.6099999,0.5386953949928284,0.6416460275650024,9.653421401977539,-0.579833984375,1.739501953125,0.701904296875
10.629999900000001,0.5386953949928284,0.6488286852836609,9.655815124511719,-1.220703125,2.6397705078125,1.708984375
10.649999900000001,0.5363011956214905,0.6560112833976746,9.63187313079834,-2.5482177734375,1.922607421875,0
10.6699999,0.5578489899635315,0.6177040338516235,9.660603523254395,-1.434326171875,2.4871826171875,0.1068115234375
10.6899999,0.5722141861915588,0.5937620401382446,9.667786598205566,-0.213623046875,2.3040771484375,-0.0762939453125
10.709999900000001,0.5722141861915588,0.5841852426528931,9.696516990661621,0.2288818359375,1.983642578125,-0.8697509765625
10.729999900000001,0.5746083855628967,0.5770025849342346,9.739612579345703,-0.4730224609375,2.3193359375,-0.7476806640625
10.7499999,0.524330198764801,0.6129156351089478,9.737217903137207,-0.030517578125,0.6103515625,-1.89208984375
10.7699999,0.5051765441894531,0.6536170840263367,9.816226959228516,0.0762939453125,4.4097900390625,1.4495849609375
10.7899999,0.4644751250743866,0.7134721279144287,9.787496566772461,5.615234375,-1.6632080078125,-0.9307861328125
10.809999900000001,0.45250412821769714,0.7589619159698486,9.821015357971191,5.9051513671875,2.0294189453125,1.6632080078125
10.8299999,0.4405331015586853,0.8044517636299133,9.782708168029785,-2.13623046875,3.509521484375,1.739501953125
10.8499999,0.4189853072166443,0.8355764150619507,9.765948295593262,-8.0718994140625,1.89208984375,2.3345947265625
10.8699999,0.38546648621559143,0.8762778043746948,9.758766174316406,-4.364013671875,0.30517578125,3.6468505859375
10.889999900000001,0.3495534360408783,0.9097966551780701,9.785101890563965,0.2899169921875,0,5.31005859375
10.9099999,0.33039984107017517,0.9385270476341248,9.823410034179688,-0.1068115234375,0.640869140625,7.0343017578125
10.9299999,0.33758243918418884,0.933738648891449,9.837775230407715,3.0975341796875,-0.4425048828125,7.8582763671875
10.9499999,0.38067805767059326,0.8954314589500427,9.847352027893066,7.8582763671875,3.143310546875,8.60595703125
10.969999900000001,0.42856210470199585,0.8762778043746948,9.818621635437012,5.5084228515625,0.9613037109375,5.4473876953125
10.9899999,0.49559974670410156,0.8164227604866028,9.782708168029785,-1.1444091796875,0.732421875,7.7056884765625
11.0099999,0.5410895943641663,0.7709329724311829,9.782708168029785,-4.8675537109375,1.678466796875,7.6904296875
11.0299999,0.5937620401382446,0.6919242739677429,9.792284965515137,-2.227783203125,2.166748046875,6.40869140625
11.049999900000001,0.6057330369949341,0.629675030708313,9.830592155456543,0.244140625,2.4261474609375,4.8980712890625
11.069999900000001,0.5961562395095825,0.629675030708313,9.90241813659668,-1.46484375,2.8228759765625,3.7078857421875
11.0899999,0.5746083855628967,0.6033388376235962,9.93593692779541,1.28173828125,0.48828125,8.6669921875
11.1099999,0.5339069962501526,0.6560112833976746,10.02452278137207,1.3275146484375,1.8768310546875,7.62939453125
11.129999900000001,0.5267243981361389,0.6200982332229614,10.072406768798828,3.875732421875,-0.6103515625,7.0343017578125
11.149999900000001,0.5291185975074768,0.5961562395095825,10.08437728881836,6.1492919921875,-2.50244140625,5.828857421875
11.1699999,0.5482721924781799,0.5626373887062073,10.065223693847656,3.2196044921875,-0.701904296875,5.8441162109375
11.1899999,0.5650315880775452,0.5578489899635315,9.979032516479492,-0.0762939453125,-1.28173828125,6.8206787109375
11.209999900000001,0.5913678407669067,0.5410895943641663,9.8784761428833,-1.46484375,-1.7547607421875,8.3160400390625
11.229999900000001,0.6129156351089478,0.524330198764801,9.768342971801758,-2.8228759765625,-1.8157958984375,7.3089599609375
11.2499999,0.6344634294509888,0.49799394607543945,9.667786598205566,-2.01416015625,-1.861572265625,5.157470703125
11.2699999,0.6536170840263367,0.4572925269603729,9.59596061706543,-1.068115234375,0.2899169921875,4.8675537109375
11.2899999,0.6607996821403503,0.4429273009300232,9.550470352172852,0.8392333984375,-0.67138671875,3.7078857421875
11.309999900000001,0.6488286852836609,0.4572925269603729,9.550470352172852,3.173828125,0.4730224609375,2.6092529296875
11.3299999,0.6368576288223267,0.49559974670410156,9.569623947143555,3.2958984375,0.2899169921875,2.7923583984375
11.3499999,0.6248866319656372,0.5195417404174805,9.615114212036133,1.617431640625,0.2899169921875,4.6844482421875
11.3699999,0.6153098344802856,0.5650315880775452,9.639056205749512,1.220703125,0.2288818359375,3.1890869140625
11.389999900000001,0.6200982332229614,0.5650315880775452,9.715670585632324,-1.4495849609375,2.716064453125,2.99072265625
11.4099999,0.6224924325942993,0.5746083855628967,9.730035781860352,2.4566650390625,-0.244140625,2.2430419921875
11.4299999,0.629675030708313,0.5770025849342346,9.818621635437012,3.2501220703125,2.3040771484375,3.173828125
11.4499999,0.629675030708313,0.6033388376235962,9.823410034179688,2.532958984375,-0.213623046875,0.7171630859375
11.469999900000001,0.6248866319656372,0.6344634294509888,9.847352027893066,2.13623046875,-1.007080078125,2.1820068359375
11.4899999,0.6057330369949341,0.7134721279144287,9.830592155456543,1.8310546875,-0.335693359375,1.9683837890625
11.5099999,0.5985504388809204,0.7541735172271729,9.80904483795166,2.960205078125,0.2899169921875,4.45556640625
11.5299999,0.5961562395095825,0.8068459630012512,9.81143856048584,4.4097900390625,1.8310546875,5.2642822265625
11.549999900000001,0.6177040338516235,0.8092401623725891,9.801861763000488,5.584716796875,0.79345703125,3.570556640625
11.569999900000001,0.6416460275650024,0.7924807667732239,9.801861763000488,3.72314453125,0.518798828125,4.5166015625
11.5899999,0.6631938815116882,0.7876923680305481,9.787496566772461,-0.6561279296875,0.335693359375,2.7618408203125
11.6099999,0.6871358752250671,0.7541735172271729,9.768342971801758,-0.8087158203125,-0.0152587890625,4.608154296875
11.629999900000001,0.7015010714530945,0.7374141216278076,9.75397777557373,0.6103515625,0.457763671875,4.21142578125
11.649999900000001,0.7206547260284424,0.6943184733390808,9.749189376831055,0.4119873046875,0.823974609375,2.99072265625
11.6699999,0.727837324142456,0.6631938815116882,9.742006301879883,1.0223388671875,1.3275146484375,2.99072265625
11.6899999,0.7326257228851318,0.646434485912323,9.75637149810791,2.0751953125,2.7008056640625,2.5787353515625
11.709999900000001,0.7182605266571045,0.6512228846549988,9.744400978088379,3.509521484375,1.4190673828125,2.44140625
11.729999900000001,0.6919242739677429,0.6847416758537292,9.765948295593262,3.0517578125,1.3427734375,1.2664794921875
11.7499999,0.6584054827690125,0.7374141216278076,9.744400978088379,3.6773681640625,1.03759765625,1.1444091796875
11.7699999,0.6320692300796509,0.768538773059845,9.742006301879883,0.640869140625,1.03759765625,3.387451171875
11.7899999,0.5985504388809204,0.8307880163192749,9.708487510681152,-2.105712890625,0.1678466796875,1.2664794921875
11.809999900000001,0.5985504388809204,0.8259995579719543,9.68933391571045,0.0762939453125,2.5787353515625,3.1280517578125
11.8299999,0.5889736413955688,0.8331822156906128,9.672574996948242,-1.2359619140625,2.899169921875,2.471923828125
11.8499999,0.5793967843055725,0.828393816947937,9.677363395690918,-4.2724609375,1.8157958984375,1.2664794921875
11.8699999,0.586579442024231,0.8140285611152649,9.674968719482422,-4.21142578125,0.213623046875,2.685546875
11.889999900000001,0.5889736413955688,0.7996633648872375,9.701305389404297,-3.7689208984375,2.5482177734375,3.8604736328125
11.9099999,0.5961562395095825,0.7924807667732239,9.727641105651855,-2.0751953125,4.913330078125,2.532958984375
11.9299999,0.6057330369949341,0.7948749661445618,9.761159896850586,-0.091552734375,3.4027099609375,2.2735595703125
11.9499999,0.6200982332229614,0.7852981686592102,9.84256362915039,-1.983642578125,3.7994384765625,3.3416748046875
11.969999900000001,0.6105214357376099,0.8212111592292786,9.880870819091797,-0.6561279296875,0.4730224609375,2.7923583984375
11.9899999,0.6009446382522583,0.871489405632019,9.907206535339355,-0.7476806640625,1.068115234375,2.8533935546875
12.0099999,0.5817909836769104,0.9265560507774353,9.892841339111328,-0.1068115234375,3.326416015625,6.103515625
12.0299999,0.5674257874488831,0.9648633003234863,9.854534149169922,-0.8087158203125,4.2572021484375,7.5836181640625
12.049999900000001,0.5410895943641663,1.0127472877502441,9.825803756713867,-5.1727294921875,1.8463134765625,4.33349609375
12.069999900000001,0.5171475410461426,1.036689281463623,9.80904483795166,-5.889892578125,0.701904296875,4.5928955078125
12.0899999,0.4908113479614258,1.0462661981582642,9.801861763000488,-6.1492919921875,1.739501953125,9.6435546875
12.1099999,0.44771572947502136,1.0821791887283325,9.81143856048584,-5.92041015625,0.823974609375,9.1094970703125
12.129999900000001,0.43095630407333374,1.039083480834961,9.837775230407715,-4.5928955078125,0.946044921875,11.0015869140625
12.149999900000001,0.4118026793003082,0.9983820915222168,9.84256362915039,2.2735595703125,-0.3509521484375,12.054443359375
12.1699999,0.395043283700943,0.9720458984375,9.888052940368652,3.6773681640625,3.11279296875,11.16943359375
12.1899999,0.3711012601852417,0.9624691009521484,9.861717224121094,4.7607421875,0.91552734375,15.2587890625
12.209999900000001,0.36152446269989014,0.9624691009521484,9.847352027893066,3.143310546875,-0.579833984375,18.3258056640625
12.229999900000001,0.36152446269989014,0.9696516990661621,9.818621635437012,3.11279296875,1.8157958984375,16.265869140625
12.2499999,0.3926490843296051,0.9193734526634216,9.770736694335938,3.936767578125,-1.0528564453125,17.3797607421875
12.2699999,0.4189853072166443,0.9050082564353943,9.761159896850586,2.8076171875,-0.67138671875,17.51708984375
12.289999900000002,0.4620809257030487,0.871489405632019,9.773131370544434,3.814697265625,1.1749267578125,20.2178955078125
12.309999900000001,0.4812345504760742,0.8690952062606812,9.77791976928711,6.0577392578125,-1.0986328125,23.895263671875
12.3299999,0.5027823448181152,0.8643068075180054,9.816226959228516,3.2196044921875,-0.5035400390625,24.35302734375
12.3499999,0.524330198764801,0.849941611289978,9.825803756713867,2.1209716796875,-0.8087158203125,24.3988037109375
12.3699999,0.545877993106842,0.8212111592292786,9.86650562286377,2.0599365234375,0.2899169921875,26.91650390625
12.389999900000001,0.5506663918495178,0.811634361743927,9.909601211547852,3.47900390625,-2.62451171875,27.5726318359375
12.4099999,0.5267243981361389,0.8834604024887085,9.986215591430664,5.1116943359375,-4.364013671875,31.6009521484375
12.4299999,0.48602294921875,0.9959878921508789,10.06043529510498,8.60595703125,-6.40869140625,44.37255859375
12.4499999,0.4572925269603729,1.094150185585022,10.110713958740234,8.8958740234375,-14.5263671875,58.2733154296875
12.469999900000001,0.4836287498474121,1.1085153818130493,10.034099578857422,7.8277587890625,-17.76123046875,57.12890625
12.4899999,0.569819986820221,1.0342950820922852,9.945513725280762,4.08935546875,-0.9002685546875,47.576904296875
12.5099999,0.6607996821403503,0.9600749015808105,9.780313491821289,3.5247802734375,6.378173828125,43.5638427734375
12.5299999,0.7398083209991455,0.9289502501487732,9.619902610778809,5.2947998046875,6.7596435546875,49.4232177734375
12.549999900000001,0.7757213711738586,0.9648633003234863,9.617507934570312,2.8839111328125,11.71875,55.6640625
12.569999900000001,0.7972691655158997,0.9552865028381348,9.591172218322754,3.387451171875,9.70458984375,54.3365478515625
12.5899999,0.8068459630012512,0.8954314589500427,9.708487510681152,0.640869140625,7.99560546875,48.2635498046875
12.6099999,0.8020575642585754,0.811634361743927,9.761159896850586,2.8076171875,2.62451171875,42.96875
12.629999900000001,0.7565677165985107,0.7829039692878723,9.837775230407715,-1.3427734375,0.9613037109375,42.5262451171875
12.649999900000001,0.7038952708244324,0.7996633648872375,9.775525093078613,-5.0048828125,-6.0272216796875,47.332763671875
12.6699999,0.7038952708244324,0.7972691655158997,9.703699111938477,-10.009765625,-5.615234375,51.4678955078125
12.6899999,0.7757213711738586,0.7326257228851318,9.639056205749512,-11.77978515625,-3.1280517578125,44.525146484375
12.709999900000001,0.8978256583213806,0.5961562395095825,9.586383819580078,-5.645751953125,-9.6282958984375,33.447265625
12.729999900000001,1.0223240852355957,0.4596867263317108,9.646238327026367,-3.387451171875,-8.8348388671875,28.4881591796875
12.7499999,1.0869675874710083,0.3902548849582672,9.6989107131958,-2.0904541015625,-5.31005859375,30.4107666015625
12.7699999,1.1109095811843872,0.3926490843296051,9.730035781860352,-0.1220703125,-5.6915283203125,33.935546875
12.789999900000002,1.1013327836990356,0.44532153010368347,9.720458984375,-1.5869140625,-6.4697265625,32.5469970703125
12.809999900000001,1.0845733880996704,0.5003881454467773,9.674968719482422,-2.3651123046875,-5.31005859375,30.731201171875
12.8299999,1.0749965906143188,0.545877993106842,9.603142738342285,-0.9918212890625,-5.1422119140625,32.806396484375
12.8499999,1.0678139925003052,0.5554547905921936,9.5408935546875,-2.4566650390625,-3.4027099609375,35.15625
12.8699999,1.072602391242981,0.5506663918495178,9.516951560974121,-5.889892578125,-1.373291015625,33.0963134765625
12.889999900000001,1.1037269830703735,0.47405192255973816,9.521739959716797,-8.453369140625,-2.9296875,33.6151123046875
12.9099999,1.1324573755264282,0.38067805767059326,9.555258750915527,-8.575439453125,-4.5013427734375,32.9742431640625
12.9299999,1.161187767982483,0.28969839215278625,9.62947940826416,-8.36181640625,-2.86865234375,29.083251953125
12.9499999,1.161187767982483,0.2298433631658554,9.677363395690918,-6.866455078125,-3.173828125,28.5797119140625
12.969999900000001,1.1516109704971313,0.22505496442317963,9.768342971801758,-5.0506591796875,-1.922607421875,29.7088623046875
12.9899999,1.115697979927063,0.2825157940387726,9.81143856048584,-3.173828125,-4.2572021484375,31.6314697265625
13.0099999,1.094150185585022,0.36152446269989014,9.828198432922363,-5.6610107421875,-6.8359375,33.0657958984375
13.0299999,1.0893617868423462,0.42856210470199585,9.797073364257812,-7.6141357421875,-5.767822265625,40.5731201171875
13.049999900000001,1.139639973640442,0.4165911078453064,9.734824180603027,-5.889892578125,-2.5482177734375,43.9605712890625
13.069999900000001,1.2186486721038818,0.3471592366695404,9.672574996948242,-7.7362060546875,-2.38037109375,39.9322509765625
13.0899999,1.3311761617660522,0.1867477297782898,9.660603523254395,-7.2784423828125,-2.471923828125,38.330078125
13.1099999,1.4293384552001953,0.002394201699644327,9.603142738342285,-5.584716796875,-3.4332275390625,36.6668701171875
13.129999900000001,1.5083470344543457,-0.16519992053508759,9.57201862335205,-5.06591796875,-0.9307861328125,34.7442626953125
13.149999900000001,1.5634137392044067,-0.2992752194404602,9.509769439697266,-4.2877197265625,4.0435791015625,33.8287353515625
13.1699999,1.6041151285171509,-0.3998316824436188,9.44752025604248,-3.6773681640625,1.739501953125,31.158447265625
13.1899999,1.6136919260025024,-0.42856210470199585,9.366117477416992,-5.1422119140625,0.8697509765625,28.0914306640625
13.209999900000001,1.6112977266311646,-0.4381389021873474,9.311050415039062,-7.1868896484375,5.7220458984375,28.656005859375
13.229999900000001,1.580173134803772,-0.42377370595932007,9.224859237670898,-10.1470947265625,5.06591796875,28.8238525390625
13.2499999,1.5322890281677246,-0.3998316824436188,9.210494041442871,-12.0849609375,6.6070556640625,27.191162109375
13.2699999,1.479616641998291,-0.40462008118629456,9.253589630126953,-12.3748779296875,6.4239501953125,25.9857177734375
13.289999900000002,1.4221558570861816,-0.44532153010368347,9.366117477416992,-11.627197265625,6.7138671875,27.435302734375
13.309999900000001,1.3646949529647827,-0.49320554733276367,9.53849983215332,-8.5296630859375,8.3160400390625,26.3214111328125
13.3299999,1.3072341680526733,-0.545877993106842,9.6989107131958,-4.974365234375,7.6141357421875,24.2767333984375
13.3499999,1.2497732639312744,-0.5506663918495178,9.823410034179688,-2.960205078125,4.9285888671875,23.4222412109375
13.3699999,1.2090718746185303,-0.5674257874488831,9.909601211547852,-3.3111572265625,5.6304931640625,26.2298583984375
13.389999900000001,1.1803414821624756,-0.5817909836769104,9.931148529052734,-1.8768310546875,4.1656494140625,25.6195068359375
13.4099999,1.1683704853057861,-0.6272808313369751,9.955090522766113,0.06103515625,3.0975341796875,22.0184326171875
13.4299999,1.170764684677124,-0.7015010714530945,9.95748519897461,0.823974609375,2.6092529296875,21.484375
13.4499999,1.1827356815338135,-0.7709329724311829,9.964667320251465,1.0223388671875,1.28173828125,22.1099853515625
13.469999900000001,1.1899182796478271,-0.8379706144332886,9.926360130310059,1.3275146484375,0.6256103515625,22.0489501953125
13.4899999,1.192312479019165,-0.8834604024887085,9.916783332824707,1.2664794921875,1.9073486328125,19.7296142578125
13.5099999,1.1994950771331787,-0.9385270476341248,9.854534149169922,1.953125,0.9918212890625,19.0277099609375
13.5299999,1.2066776752471924,-0.9840168952941895,9.821015357971191,3.4332275390625,1.3275146484375,19.9127197265625
13.549999900000001,1.2090718746185303,-0.9983820915222168,9.761159896850586,2.74658203125,1.8463134765625,17.3797607421875
13.569999900000001,1.2210428714752197,-1.0127472877502441,9.734824180603027,2.3193359375,2.9754638671875,17.08984375
13.5899999,1.2234370708465576,-1.0247182846069336,9.6989107131958,1.7852783203125,1.678466796875,16.998291015625
13.6099999,1.2114660739898682,-1.0079588890075684,9.696516990661621,3.2806396484375,1.0986328125,14.7857666015625
13.629999900000001,1.2018892765045166,-0.9792284965515137,9.68694019317627,5.7373046875,2.288818359375,13.8702392578125
13.649999900000001,1.1971008777618408,-0.9481038451194763,9.674968719482422,5.9051513671875,2.9296875,14.8162841796875
13.6699999,1.1875240802764893,-0.8834604024887085,9.66299819946289,3.3416748046875,2.4871826171875,14.34326171875
13.6899999,1.1899182796478271,-0.8379706144332886,9.66299819946289,1.708984375,2.044677734375,13.7176513671875
13.709999900000001,1.1875240802764893,-0.8164227604866028,9.672574996948242,2.44140625,1.1444091796875,14.862060546875
13.729999900000001,1.1779472827911377,-0.7876923680305481,9.710882186889648,2.3651123046875,2.7008056640625,13.61083984375
13.7499999,1.170764684677124,-0.7805097699165344,9.725247383117676,2.410888671875,1.251220703125,13.702392578125
13.7699999,1.1683704853057861,-0.7733271718025208,9.765948295593262,0.518798828125,1.2664794921875,14.6484375
13.789999900000002,1.1635819673538208,-0.7757213711738586,9.785101890563965,-0.091552734375,1.40380859375,15.0299072265625
13.809999900000001,1.158793568611145,-0.7924807667732239,9.821015357971191,2.5787353515625,0.823974609375,15.2130126953125
13.8299999,1.1324573755264282,-0.7829039692878723,9.813833236694336,6.9427490234375,-0.244140625,15.07568359375
13.8499999,1.1228805780410767,-0.7924807667732239,9.825803756713867,8.0718994140625,2.960205078125,16.8609619140625
13.8699999,1.0989385843276978,-0.7565677165985107,9.77791976928711,6.7138671875,2.6397705078125,15.655517578125
13.889999900000001,1.1013327836990356,-0.7469909191131592,9.744400978088379,3.2196044921875,1.190185546875,15.167236328125
13.9099999,1.0965443849563599,-0.730231523513794,9.694122314453125,1.251220703125,2.13623046875,13.946533203125
13.9299999,1.1037269830703735,-0.727837324142456,9.670180320739746,4.6234130859375,6.7596435546875,14.1754150390625
13.9499999,1.1109095811843872,-0.7422025203704834,9.684545516967773,4.8370361328125,8.5296630859375,14.892578125
13.969999900000001,1.113303780555725,-0.7374141216278076,9.670180320739746,4.8065185546875,-1.2664794921875,12.0086669921875
13.9899999,1.115697979927063,-0.7493851184844971,9.727641105651855,3.1890869140625,3.0517578125,11.3983154296875
14.0099999,1.1013327836990356,-0.7254431247711182,9.701305389404297,5.8441162109375,1.0833740234375,11.8408203125
14.0299999,1.0749965906143188,-0.7038952708244324,9.653421401977539,4.3182373046875,5.2947998046875,11.0015869140625
14.049999900000001,1.0438719987869263,-0.6560112833976746,9.694122314453125,-1.15966796875,18.280029296875,10.80322265625
14.069999900000001,0.9983820915222168,-0.6200982332229614,9.641449928283691,-1.2359619140625,5.8135986328125,11.4593505859375
14.0899999,0.9648633003234863,-0.5722141861915588,9.715670585632324,1.8310546875,-0.30517578125,11.0321044921875
14.1099999,0.9361328482627869,-0.5554547905921936,9.725247383117676,2.44140625,5.859375,12.176513671875
14.129999900000001,0.9193734526634216,-0.5530605912208557,9.773131370544434,1.739501953125,4.5013427734375,10.894775390625
14.149999900000001,0.912190854549408,-0.5722141861915588,9.765948295593262,-0.6256103515625,2.2735595703125,9.918212890625
14.1699999,0.9026140570640564,-0.5770025849342346,9.818621635437012,-1.7852783203125,4.8370361328125,9.8419189453125
14.1899999,0.8978256583213806,-0.5937620401382446,9.813833236694336,1.46484375,3.3416748046875,11.2152099609375
14.209999900000001,0.8810662031173706,-0.5770025849342346,9.84256362915039,1.3275146484375,3.662109375,10.55908203125
14.229999900000001,0.8667010068893433,-0.5626373887062073,9.847352027893066,0.2899169921875,3.5247802734375,9.765625
14.2499999,0.8571242094039917,-0.5410895943641663,9.86650562286377,-0.06103515625,3.204345703125,10.43701171875
14.2699999,0.8403648138046265,-0.5027823448181152,9.86889934539795,-0.1678466796875,1.861572265625,10.7269287109375
14.289999900000002,0.8331822156906128,-0.4812345504760742,9.885659217834473,-0.2593994140625,1.8463134765625,11.1846923828125
14.309999900000001,0.8236053586006165,-0.4692635238170624,9.883264541625977,0.5340576171875,1.068115234375,11.4593505859375
14.3299999,0.8188169598579407,-0.4668693244457245,9.883264541625977,0.3662109375,0.579833984375,11.2762451171875
14.3499999,0.8188169598579407,-0.4908113479614258,9.861717224121094,1.922607421875,-0.152587890625,11.90185546875
14.3699999,0.8140285611152649,-0.4836287498474121,9.816226959228516,2.3651123046875,0.2288818359375,11.016845703125
14.389999900000001,0.8212111592292786,-0.507570743560791,9.763554573059082,1.28173828125,1.8157958984375,12.1612548828125
14.4099999,0.8307880163192749,-0.5123591423034668,9.691728591918945,1.1138916015625,1.739501953125,12.298583984375
14.4299999,0.8523358106613159,-0.5171475410461426,9.651026725769043,1.678466796875,3.265380859375,10.55908203125
14.4499999,0.8762778043746948,-0.5363011956214905,9.612719535827637,1.708984375,3.0975341796875,11.627197265625
14.469999900000001,0.8954314589500427,-0.5363011956214905,9.62947940826416,-0.0762939453125,4.6844482421875,11.474609375
14.4899999,0.9026140570640564,-0.5506663918495178,9.66539192199707,-1.220703125,3.47900390625,11.3677978515625
14.5099999,0.8906430602073669,-0.5578489899635315,9.725247383117676,-1.373291015625,2.4566650390625,10.4522705078125
14.5299999,0.8619126081466675,-0.5602431893348694,9.785101890563965,-0.4730224609375,2.38037109375,10.2996826171875
14.549999900000001,0.828393816947937,-0.5363011956214905,9.825803756713867,1.373291015625,3.692626953125,10.4217529296875
14.569999900000001,0.7996633648872375,-0.5051765441894531,9.847352027893066,1.5411376953125,4.241943359375,11.8408203125
14.5899999,0.7829039692878723,-0.47405192255973816,9.864110946655273,0.396728515625,2.99072265625,11.9171142578125
14.6099999,0.7757213711738586,-0.4620809257030487,9.885659217834473,0.3204345703125,2.1209716796875,11.04736328125
14.629999900000001,0.7757213711738586,-0.4644751250743866,9.904812812805176,0.823974609375,1.434326171875,11.0626220703125
14.649999900000001,0.7709329724311829,-0.4692635238170624,9.90241813659668,2.62451171875,0.5340576171875,11.260986328125
14.6699999,0.7565677165985107,-0.44771572947502136,9.897629737854004,4.2266845703125,1.3885498046875,11.4288330078125
14.6899999,0.7398083209991455,-0.4213795065879822,9.864110946655273,4.241943359375,1.5106201171875,12.1917724609375
14.709999900000001,0.7206547260284424,-0.395043283700943,9.830592155456543,2.7618408203125,1.1444091796875,13.73291015625
14.729999900000001,0.7038952708244324,-0.3663128614425659,9.801861763000488,2.655029296875,1.2054443359375,13.153076171875
14.7499999,0.7038952708244324,-0.3734954595565796,9.794678688049316,1.4190673828125,1.0986328125,13.7786865234375
14.7699999,0.7134721279144287,-0.40940847992897034,9.801861763000488,0.6866455078125,-0.6103515625,14.5416259765625
14.789999900000002,0.730231523513794,-0.4596867263317108,9.799467086791992,1.739501953125,-1.0223388671875,13.7481689453125
14.809999900000001,0.7565677165985107,-0.5339069962501526,9.813833236694336,1.7547607421875,0.6866455078125,12.4969482421875
14.8299999,0.7709329724311829,-0.5817909836769104,9.792284965515137,2.44140625,0.7476806640625,11.474609375
14.8499999,0.7829039692878723,-0.6153098344802856,9.773131370544434,2.7313232421875,0.640869140625,11.749267578125
14.8699999,0.7829039692878723,-0.608127236366272,9.768342971801758,1.983642578125,0.8392333984375,11.1541748046875
14.889999900000001,0.7781155705451965,-0.5961562395095825,9.761159896850586,1.3580322265625,1.0833740234375,11.932373046875
14.9099999,0.7709329724311829,-0.5913678407669067,9.775525093078613,1.2969970703125,0.48828125,12.4053955078125
14.9299999,0.7565677165985107,-0.5817909836769104,9.804255485534668,2.44140625,0.8697509765625,11.5203857421875
14.9499999,0.7469909191131592,-0.5937620401382446,9.840168952941895,3.4027099609375,0.885009765625,11.90185546875
14.969999900000001,0.7422025203704834,-0.6177040338516235,9.86650562286377,3.96728515625,-0.0152587890625,12.847900390625
14.9899999,0.7422025203704834,-0.629675030708313,9.861717224121094,4.82177734375,-0.2593994140625,11.0321044921875
15.0099999,0.7541735172271729,-0.6440402865409851,9.825803756713867,4.791259765625,0.5645751953125,9.8419189453125
15.0299999,0.768538773059845,-0.629675030708313,9.770736694335938,4.5623779296875,1.3427734375,10.07080078125
15.049999900000001,0.7781155705451965,-0.6129156351089478,9.6989107131958,4.547119140625,1.89208984375,10.986328125
15.069999900000001,0.7781155705451965,-0.5578489899635315,9.679757118225098,3.3416748046875,3.5858154296875,9.6588134765625
15.0899999,0.7661445140838623,-0.49559974670410156,9.636661529541016,1.9378662109375,2.166748046875,9.735107421875
15.1099999,0.7565677165985107,-0.43095630407333374,9.646238327026367,0.0152587890625,2.532958984375,12.176513671875
15.129999900000001,0.7469909191131592,-0.3687070608139038,9.643844604492188,-3.4942626953125,2.6702880859375,11.8560791015625
15.149999900000001,0.7445967197418213,-0.33518823981285095,9.655815124511719,-4.669189453125,2.0599365234375,11.322021484375
15.1699999,0.7565677165985107,-0.33758243918418884,9.691728591918945,-1.52587890625,3.3416748046875,11.6119384765625
15.1899999,0.768538773059845,-0.36152446269989014,9.710882186889648,0.3509521484375,4.08935546875,11.7645263671875
15.209999900000001,0.790086567401886,-0.40701428055763245,9.761159896850586,0.4730224609375,4.425048828125,10.68115234375
15.229999900000001,0.8044517636299133,-0.42616790533065796,9.763554573059082,1.28173828125,3.5400390625,8.5296630859375
15.2499999,0.811634361743927,-0.42616790533065796,9.775525093078613,-0.030517578125,3.265380859375,8.0718994140625
15.2699999,0.8044517636299133,-0.40462008118629456,9.761159896850586,-1.9073486328125,4.0130615234375,9.8419189453125
15.289999900000002,0.7852981686592102,-0.3711012601852417,9.77791976928711,-2.01416015625,5.096435546875,9.7808837890625
15.309999900000001,0.7565677165985107,-0.35673606395721436,9.775525093078613,-1.2664794921875,2.6702880859375,8.8348388671875
15.3299999,0.7254431247711182,-0.3471592366695404,9.830592155456543,-2.6092529296875,3.875732421875,8.4686279296875
15.3499999,0.689530074596405,-0.3471592366695404,9.854534149169922,-2.8076171875,2.38037109375,10.101318359375
15.3699999,0.6584054827690125,-0.35673606395721436,9.892841339111328,-2.3651123046875,1.556396484375,11.7034912109375
15.389999900000001,0.6368576288223267,-0.3902548849582672,9.895236015319824,-2.716064453125,1.4495849609375,11.7034912109375
15.4099999,0.6272808313369751,-0.4429273009300232,9.8784761428833,-3.662109375,1.9378662109375,11.16943359375
15.4299999,0.6344634294509888,-0.5171475410461426,9.84256362915039,-4.21142578125,2.4261474609375,11.41357421875
15.4499999,0.6440402865409851,-0.5722141861915588,9.78989028930664,-5.6304931640625,1.8157958984375,11.474609375
15.469999900000001,0.646434485912323,-0.608127236366272,9.758766174316406,-8.636474609375,2.5787353515625,10.6658935546875
15.4899999,0.6440402865409851,-0.646434485912323,9.727641105651855,-9.735107421875,3.0059814453125,12.1917724609375
15.5099999,0.6272808313369751,-0.6488286852836609,9.734824180603027,-10.8795166015625,2.9754638671875,11.2457275390625
15.5299999,0.6057330369949341,-0.6775590777397156,9.751583099365234,-12.0697021484375,1.5106201171875,11.260986328125
15.549999900000001,0.5793967843055725,-0.6967126727104187,9.787496566772461,-11.322021484375,1.9073486328125,11.29150390625
15.569999900000001,0.5650315880775452,-0.7350199222564697,9.832986831665039,-10.650634765625,2.1820068359375,11.077880859375
15.5899999,0.5626373887062073,-0.7805097699165344,9.84256362915039,-8.1939697265625,0.6866455078125,11.29150390625
15.6099999,0.5770025849342346,-0.8571242094039917,9.864110946655273,-6.622314453125,1.4801025390625,10.345458984375
15.629999900000001,0.5937620401382446,-0.9026140570640564,9.852140426635742,-3.753662109375,1.7242431640625,7.4615478515625
15.649999900000001,0.6129156351089478,-0.950498104095459,9.830592155456543,-0.7476806640625,1.6021728515625,7.7972412109375
15.6699999,0.6200982332229614,-0.950498104095459,9.799467086791992,1.0528564453125,2.0599365234375,8.1329345703125
15.6899999,0.6272808313369751,-0.9313444495201111,9.744400978088379,2.410888671875,1.800537109375,7.6141357421875
15.709999900000001,0.629675030708313,-0.8906430602073669,9.701305389404297,2.5482177734375,3.35693359375,6.866455078125
15.729999900000001,0.6248866319656372,-0.8523358106613159,9.66539192199707,1.7547607421875,3.5858154296875,6.6375732421875
15.7499999,0.6105214357376099,-0.8140285611152649,9.679757118225098,1.556396484375,4.0130615234375,6.622314453125
15.7699999,0.5961562395095825,-0.7948749661445618,9.708487510681152,4.4708251953125,3.082275390625,6.6680908203125
15.789999900000002,0.5841852426528931,-0.7972691655158997,9.751583099365234,5.889892578125,3.0670166015625,6.195068359375
15.809999900000001,0.5722141861915588,-0.8092401623725891,9.78989028930664,4.33349609375,3.692626953125,5.0201416015625
15.8299999,0.5602431893348694,-0.8092401623725891,9.81143856048584,4.608154296875,2.86865234375,4.4097900390625
15.8499999,0.5482721924781799,-0.8020575642585754,9.787496566772461,5.79833984375,1.434326171875,4.791259765625
15.869999900000002,0.5339069962501526,-0.7805097699165344,9.773131370544434,5.79833984375,4.21142578125,4.3487548828125
15.889999900000001,0.5219359993934631,-0.7541735172271729,9.732429504394531,5.035400390625,5.37109375,4.0435791015625
15.9099999,0.507570743560791,-0.7134721279144287,9.720458984375,5.4931640625,4.302978515625,4.82177734375
15.9299999,0.5003881454467773,-0.706289529800415,9.744400978088379,4.0283203125,3.7841796875,6.561279296875
15.9499999,0.4908113479614258,-0.6991068720817566,9.763554573059082,3.6163330078125,2.5177001953125,6.5460205078125
15.969999900000001,0.49559974670410156,-0.730231523513794,9.792284965515137,3.173828125,3.4332275390625,5.2642822265625
15.9899999,0.49559974670410156,-0.7637503147125244,9.801861763000488,2.410888671875,3.631591796875,5.584716796875
16.0099999,0.507570743560791,-0.8307880163192749,9.825803756713867,1.7852783203125,3.3111572265625,5.157470703125
16.0299999,0.49559974670410156,-0.8355764150619507,9.830592155456543,1.2359619140625,1.52587890625,1.3427734375
16.0499999,0.4908113479614258,-0.8475474119186401,9.835380554199219,1.40380859375,0.6256103515625,0.9765625
16.0699999,0.4644751250743866,-0.7924807667732239,9.797073364257812,1.495361328125,1.251220703125,2.593994140625
16.089999900000002,0.4429273009300232,-0.7469909191131592,9.770736694335938,0.518798828125,2.9296875,3.082275390625
16.109999900000002,0.4165911078453064,-0.689530074596405,9.742006301879883,0.5950927734375,2.655029296875,2.0751953125
16.1299999,0.4118026793003082,-0.6751648783683777,9.765948295593262,0.3662109375,2.7008056640625,1.5716552734375
16.1499999,0.4118026793003082,-0.667982280254364,9.785101890563965,2.4871826171875,2.0751953125,2.2735595703125
16.1699999,0.42377370595932007,-0.6847416758537292,9.830592155456543,2.4871826171875,3.204345703125,2.01416015625
16.1899999,0.4405331015586853,-0.7134721279144287,9.871294021606445,0.8697509765625,3.5400390625,0.9613037109375
16.2099999,0.45010992884635925,-0.730231523513794,9.921571731567383,0.5950927734375,2.777099609375,-0.5950927734375
16.2299999,0.45010992884635925,-0.7230489253997803,9.964667320251465,1.983642578125,2.166748046875,-0.244140625
16.249999900000002,0.4357447028160095,-0.6991068720817566,10.017339706420898,1.3885498046875,2.471923828125,1.983642578125
16.269999900000002,0.4165911078453064,-0.667982280254364,10.041281700134277,0.6103515625,1.1444091796875,2.349853515625
16.2899999,0.3974374830722809,-0.6344634294509888,10.067618370056152,1.4495849609375,0.823974609375,0.4730224609375
16.3099999,0.3878606855869293,-0.6224924325942993,10.06043529510498,3.4637451171875,0.0457763671875,1.15966796875
16.3299999,0.38067805767059326,-0.6057330369949341,10.038887977600098,2.25830078125,0.1068115234375,2.1209716796875
16.3499999,0.3758896589279175,-0.5770025849342346,9.99339771270752,1.77001953125,-0.335693359375,1.6632080078125
16.3699999,0.38067805767059326,-0.5578489899635315,9.921571731567383,2.227783203125,-0.5340576171875,2.0904541015625
16.3899999,0.38546648621559143,-0.5410895943641663,9.861717224121094,2.410888671875,-0.457763671875,2.716064453125
16.4099999,0.3902548849582672,-0.5195417404174805,9.78989028930664,1.1444091796875,0.6103515625,2.4871826171875
16.429999900000002,0.40462008118629456,-0.5267243981361389,9.765948295593262,0.030517578125,1.0528564453125,2.471923828125
16.4499999,0.40940847992897034,-0.524330198764801,9.734824180603027,0.7476806640625,0.030517578125,1.9378662109375
16.4699999,0.4213795065879822,-0.5434837937355042,9.751583099365234,0.7476806640625,0.2899169921875,1.739501953125
16.4899999,0.42377370595932007,-0.5386953949928284,9.75637149810791,0.4119873046875,0.732421875,1.7547607421875
16.5099999,0.43335050344467163,-0.545877993106842,9.763554573059082,-0.0152587890625,0.79345703125,2.3956298828125
16.5299999,0.4405331015586853,-0.5506663918495178,9.773131370544434,-0.335693359375,0.6256103515625,2.410888671875
16.5499999,0.45010992884635925,-0.5650315880775452,9.785101890563965,-0.885009765625,0.762939453125,1.4190673828125
16.5699999,0.4572925269603729,-0.586579442024231,9.794678688049316,-0.0457763671875,0.5035400390625,0.9613037109375
16.589999900000002,0.4596867263317108,-0.6009446382522583,9.799467086791992,0.6866455078125,0.3814697265625,0.762939453125
16.609999900000002,0.4572925269603729,-0.5985504388809204,9.785101890563965,0.3662109375,0.54931640625,1.0986328125
16.6299999,0.45489832758903503,-0.5985504388809204,9.758766174316406,-0.152587890625,1.3580322265625,1.1444091796875
16.6499999,0.45010992884635925,-0.5770025849342346,9.732429504394531,-0.30517578125,1.800537109375,0.6561279296875
16.6699999,0.4572925269603729,-0.5793967843055725,9.718064308166504,-0.6561279296875,2.1820068359375,1.1444091796875
16.6899999,0.4620809257030487,-0.5770025849342346,9.732429504394531,-0.640869140625,1.52587890625,0.4425048828125
16.7099999,0.4572925269603729,-0.5746083855628967,9.75637149810791,0.3204345703125,1.8157958984375,-0.518798828125
16.7299999,0.45010992884635925,-0.5650315880775452,9.792284965515137,0.3509521484375,1.5411376953125,0.030517578125
16.749999900000002,0.42856210470199585,-0.5219359993934631,9.80904483795166,0.4730224609375,1.4190673828125,-0.18310546875
16.769999900000002,0.40940847992897034,-0.47884035110473633,9.81143856048584,0.3509521484375,1.800537109375,0.9765625
16.7899999,0.40222588181495667,-0.4644751250743866,9.81143856048584,0.030517578125,1.8157958984375,2.7923583984375
16.8099999,0.3998316824436188,-0.47165772318840027,9.797073364257812,-0.9002685546875,1.6326904296875,2.3193359375
16.8299999,0.4118026793003082,-0.5434837937355042,9.773131370544434,-3.47900390625,-0.213623046875,3.2806396484375
16.8499999,0.4381389021873474,-0.7182605266571045,9.75397777557373,-7.476806640625,0.946044921875,5.7220458984375
16.8699999,0.47405192255973816,-0.9648633003234863,9.768342971801758,-11.0015869140625,2.13623046875,5.584716796875
16.8899999,0.5674257874488831,-1.455674648284912,9.864110946655273,-12.3443603515625,5.0506591796875,6.8359375
16.9099999,0.706289529800415,-2.121262788772583,10.02452278137207,-10.4522705078125,5.3253173828125,3.662109375
16.929999900000002,0.8906430602073669,-2.9520506858825684,10.182539939880371,-9.3994140625,-1.373291015625,-5.4473876953125
16.9499999,1.070208191871643,-3.799597978591919,10.261548042297363,-7.38525390625,-1.9073486328125,-16.5557861328125
16.9699999,1.1899182796478271,-4.479551315307617,10.249577522277832,-9.5977783203125,2.8076171875,-28.2135009765625
16.9899999,1.2186486721038818,-4.960785865783691,10.098742485046387,-11.1541748046875,0.518798828125,-36.224365234375
17.0099999,1.1252747774124146,-5.169081687927246,9.940725326538086,-12.26806640625,4.5013427734375,-46.9207763671875
17.0299999,0.950498104095459,-5.250484466552734,9.804255485534668,-9.3231201171875,13.18359375,-56.6253662109375
17.0499999,0.7158663272857666,-5.245696067810059,9.72285270690918,1.4801025390625,13.885498046875,-63.9801025390625
17.0699999,0.4405331015586853,-5.171475887298584,9.691728591918945,7.4005126953125,11.016845703125,-77.5604248046875
17.089999900000002,0.1412578970193863,-5.078101634979248,9.734824180603027,7.2174072265625,13.97705078125,-89.8284912109375
17.109999900000002,-0.17477671802043915,-4.884171485900879,9.782708168029785,8.8348388671875,13.18359375,-101.6693115234375
17.1299999,-0.5051765441894531,-4.6471452713012695,9.806650161743164,13.9312744140625,4.9591064453125,-110.260009765625
17.1499999,-0.8188169598579407,-4.323928356170654,9.897629737854004,8.6212158203125,8.3160400390625,-118.011474609375
17.1699999,-1.1037269830703735,-3.936067581176758,9.847352027893066,9.429931640625,0.4425048828125,-129.4708251953125
17.1899999,-1.3407529592514038,-3.5482068061828613,9.849745750427246,13.519287109375,4.39453125,-134.063720703125
17.2099999,-1.558625340461731,-3.095702886581421,9.847352027893066,16.7388916015625,7.9345703125,-141.4794921875
17.2299999,-1.7477672100067139,-2.612074136734009,9.892841339111328,23.2086181640625,2.50244140625,-149.871826171875
17.249999900000002,-1.8938134908676147,-2.207453966140747,10.074800491333008,24.3072509765625,-5.1422119140625,-149.566650390625
17.269999900000002,-2.0183119773864746,-1.7884687185287476,10.237606048583984,21.1029052734375,-16.693115234375,-153.6865234375
17.2899999,-2.094926595687866,-1.4269442558288574,10.29746150970459,23.956298828125,-28.228759765625,-163.421630859375
17.3099999,-2.1499931812286377,-1.0558429956436157,10.24239444732666,26.641845703125,-32.65380859375,-166.900634765625
17.3299999,-2.209848165512085,-0.5770025849342346,9.883264541625977,24.9176025390625,-29.6478271484375,-166.2445068359375
17.3499999,-2.1954829692840576,-0.14604631066322327,9.701305389404297,6.866455078125,2.6397705078125,-156.463623046875
17.3699999,-2.207453966140747,0.3471592366695404,9.23443603515625,13.3209228515625,-9.7808837890625,-158.8592529296875
17.3899999,-2.190694570541382,0.8068459630012512,9.095572471618652,13.336181640625,1.0528564453125,-172.8515625
17.409999900000003,-2.166752576828003,1.2186486721038818,9.002198219299316,-1.5716552734375,13.1378173828125,-165.95458984375
17.429999900000002,-2.145204782485962,1.5682021379470825,8.918401718139648,-5.7830810546875,-2.86865234375,-145.20263671875
17.4499999,-2.0614075660705566,1.7525556087493896,8.937555313110352,-5.7220458984375,7.50732421875,-131.40869140625
17.4699999,-1.9800047874450684,1.8267759084701538,8.975862503051758,-7.7056884765625,25.2532958984375,-129.547119140625
17.4899999,-1.8531121015548706,1.802833914756775,9.07641887664795,3.4637451171875,6.7901611328125,-126.6937255859375
17.5099999,-1.7381904125213623,1.766920804977417,9.217676162719727,21.4080810546875,-32.65380859375,-130.340576171875
17.5299999,-1.6759412288665771,1.8626888990402222,9.133879661560059,30.70068359375,-43.548583984375,-140.2587890625
17.5499999,-1.6304513216018677,2.03507137298584,8.78432559967041,14.0380859375,-16.1590576171875,-140.7012939453125
17.5699999,-1.678335428237915,2.4157495498657227,8.286332130432129,4.791259765625,21.4080810546875,-128.9215087890625
17.589999900000002,-1.7597382068634033,2.7964274883270264,7.800309181213379,-0.0152587890625,39.9627685546875,-110.7177734375
17.609999900000002,-1.9105730056762695,3.2848446369171143,7.726089000701904,-9.33837890625,34.5458984375,-104.2022705078125
17.6299999,-2.0159177780151367,3.6080620288848877,8.04691219329834,-16.9525146484375,37.353515625,-87.860107421875
17.6499999,-2.073378562927246,3.7277719974517822,8.516175270080566,-10.43701171875,24.658203125,-69.854736328125
17.6699999,-2.1475989818573,3.8762125968933105,8.959102630615234,-11.3677978515625,22.186279296875,-75.1190185546875
17.6899999,-2.0901381969451904,3.7493197917938232,9.476250648498535,-29.8614501953125,36.19384765625,-59.112548828125
17.7099999,-2.0590133666992188,3.6846764087677,9.694122314453125,-29.693603515625,22.4456787109375,-50.6134033203125
17.7299999,-1.9991583824157715,3.5625722408294678,9.919178009033203,-20.965576171875,13.61083984375,-47.30224609375
17.749999900000002,-1.920149803161621,3.399766445159912,10.103530883789062,-33.75244140625,23.4222412109375,-31.1126708984375
17.769999900000002,-1.824381709098816,3.1675288677215576,10.216058731079102,-26.18408203125,20.4925537109375,-17.7764892578125
17.7899999,-1.7621324062347412,2.980781078338623,10.390835762023926,-10.9405517578125,20.4010009765625,-16.387939453125
17.8099999,-1.659181833267212,2.7461493015289307,10.6709566116333,-7.99560546875,20.1263427734375,-12.0086669921875
17.8299999,-1.5514427423477173,2.497152328491211,10.90798282623291,-2.86865234375,9.8724365234375,-0.42724609375
17.8499999,-1.4460978507995605,2.2888567447662354,11.05642318725586,-1.434326171875,-2.960205078125,0.2593994140625
17.8699999,-1.2832920551300049,1.9632453918457031,11.075576782226562,-6.7596435546875,-0.762939453125,7.38525390625
17.8899999,-1.1061211824417114,1.5514427423477173,10.915165901184082,-0.2593994140625,2.9144287109375,14.007568359375
17.909999900000003,-0.9241618514060974,1.1300631761550903,10.697293281555176,5.2947998046875,5.4168701171875,8.97216796875
17.929999900000002,-0.7613561153411865,0.7086837291717529,10.486603736877441,5.035400390625,4.21142578125,6.927490234375
17.9499999,-0.6416460275650024,0.38067805767059326,10.316615104675293,3.143310546875,-1.9378662109375,6.6375732421875
17.9699999,-0.5602431893348694,0.15083470940589905,10.170568466186523,4.1046142578125,-4.5166015625,6.7291259765625
17.9899999,-0.5363011956214905,0.06224924325942993,10.031704902648926,2.716064453125,-4.0283203125,3.0517578125
18.0099999,-0.5339069962501526,0.033518824726343155,9.938331604003906,-2.6702880859375,-0.640869140625,3.204345703125
18.0299999,-0.5530605912208557,0.05506663769483566,9.813833236694336,0.4119873046875,-1.678466796875,6.134033203125
18.0499999,-0.5913678407669067,0.12449848651885986,9.75637149810791,0.213623046875,-0.7781982421875,5.035400390625
18.0699999,-0.6153098344802856,0.1628057211637497,9.720458984375,-2.3956298828125,-1.190185546875,4.7607421875
18.089999900000002,-0.608127236366272,0.15562310814857483,9.68694019317627,1.0223388671875,-3.082275390625,4.94384765625
18.109999900000002,-0.5793967843055725,0.12689268589019775,9.677363395690918,5.0048828125,-1.8768310546875,1.5411376953125
18.1299999,-0.5482721924781799,0.0933738648891449,9.651026725769043,4.2877197265625,0.701904296875,-0.9002685546875
18.1499999,-0.5363011956214905,0.1173158809542656,9.607931137084961,-1.8310546875,-1.617431640625,-0.42724609375
18.1699999,-0.5219359993934631,0.13168109953403473,9.591172218322754,-3.4637451171875,-0.9765625,3.5858154296875
18.1899999,-0.5147533416748047,0.1604115068912506,9.569623947143555,0.518798828125,1.6021728515625,3.1890869140625
18.2099999,-0.5219359993934631,0.19632454216480255,9.588777542114258,-0.42724609375,1.068115234375,-2.74658203125
18.2299999,-0.507570743560791,0.17238251864910126,9.612719535827637,-0.06103515625,2.1209716796875,-1.3275146484375
18.249999900000002,-0.5434837937355042,0.22266076505184174,9.617507934570312,2.288818359375,2.13623046875,-2.01416015625
18.269999900000002,-0.6033388376235962,0.31603461503982544,9.658209800720215,0.3814697265625,3.265380859375,-4.4403076171875
18.2899999,-0.6631938815116882,0.4118026793003082,9.66539192199707,0.1678466796875,2.5787353515625,-0.7171630859375
18.3099999,-0.7206547260284424,0.5123591423034668,9.677363395690918,1.64794921875,2.7313232421875,1.4801025390625
18.3299999,-0.7565677165985107,0.5841852426528931,9.68933391571045,-0.4730224609375,3.7841796875,-0.244140625
18.3499999,-0.7661445140838623,0.6057330369949341,9.703699111938477,-0.4730224609375,3.60107421875,-0.42724609375
18.3699999,-0.7637503147125244,0.6033388376235962,9.715670585632324,-0.3204345703125,1.9683837890625,1.0833740234375
18.3899999,-0.7565677165985107,0.586579442024231,9.737217903137207,-0.701904296875,2.044677734375,1.5106201171875
18.409999900000003,-0.7374141216278076,0.5410895943641663,9.75397777557373,-0.7171630859375,5.0201416015625,1.800537109375
18.429999900000002,-0.730231523513794,0.49559974670410156,9.742006301879883,-0.4730224609375,4.058837890625,1.46484375
18.4499999,-0.7182605266571045,0.4620809257030487,9.782708168029785,-4.21142578125,5.6915283203125,0.7171630859375
18.4699999,-0.7158663272857666,0.42856210470199585,9.804255485534668,-1.983642578125,3.0364990234375,2.3651123046875
18.4899999,-0.7134721279144287,0.4165911078453064,9.861717224121094,0.0152587890625,3.3721923828125,3.021240234375
18.5099999,-0.7158663272857666,0.40940847992897034,9.897629737854004,0.244140625,2.5634765625,1.0986328125
18.5299999,-0.7038952708244324,0.37828385829925537,9.931148529052734,-0.4730224609375,2.5177001953125,2.25830078125
18.5499999,-0.7015010714530945,0.3663128614425659,9.926360130310059,-0.54931640625,2.1209716796875,2.2735595703125
18.5699999,-0.689530074596405,0.3256114423274994,9.945513725280762,0.1678466796875,3.4637451171875,2.655029296875
18.589999900000002,-0.6991068720817566,0.31603461503982544,9.909601211547852,1.068115234375,1.556396484375,1.190185546875
18.609999900000002,-0.7015010714530945,0.2992752194404602,9.907206535339355,0.30517578125,2.7618408203125,1.40380859375
18.6299999,-0.7326257228851318,0.33039984107017517,9.90241813659668,1.03759765625,3.753662109375,2.532958984375
18.6499999,-0.7829039692878723,0.4165911078453064,9.950302124023438,2.25830078125,2.74658203125,2.0294189453125
18.6699999,-0.828393816947937,0.49559974670410156,10.007762908935547,5.2337646484375,-0.4119873046875,5.218505859375
18.6899999,-0.871489405632019,0.5889736413955688,10.086771965026855,4.6844482421875,-1.9378662109375,6.866455078125
18.7099999,-0.8858546018600464,0.6272808313369751,10.108319282531738,5.1422119140625,-2.471923828125,7.62939453125
18.7299999,-0.8810662031173706,0.6224924325942993,10.065223693847656,6.134033203125,-3.814697265625,8.4991455078125
18.749999900000002,-0.8595184087753296,0.5985504388809204,9.981427192687988,4.974365234375,-4.425048828125,8.3770751953125
18.769999900000002,-0.8331822156906128,0.5770025849342346,9.876082420349121,4.45556640625,-2.99072265625,8.7432861328125
18.7899999,-0.7829039692878723,0.5219359993934631,9.794678688049316,6.6070556640625,-2.9449462890625,11.3525390625
18.8099999,-0.730231523513794,0.49559974670410156,9.768342971801758,6.40869140625,-3.1585693359375,9.307861328125
18.8299999,-0.6775590777397156,0.4884171485900879,9.787496566772461,4.7149658203125,-4.791259765625,6.805419921875
18.8499999,-0.629675030708313,0.49559974670410156,9.830592155456543,4.69970703125,-5.5694580078125,10.1776123046875
18.8699999,-0.6033388376235962,0.5339069962501526,9.871294021606445,5.0048828125,-5.4168701171875,11.688232421875
18.8899999,-0.5770025849342346,0.5674257874488831,9.885659217834473,4.364013671875,-6.8206787109375,9.6435546875
18.909999900000003,-0.5506663918495178,0.5746083855628967,9.854534149169922,3.8909912109375,-7.232666015625,8.453369140625
18.929999900000002,-0.5123591423034668,0.5722141861915588,9.785101890563965,3.662109375,-6.6070556640625,8.4075927734375
18.9499999,-0.47165772318840027,0.569819986820221,9.710882186889648,2.9296875,-4.1656494140625,7.7362060546875
18.9699999,-0.4165911078453064,0.5602431893348694,9.63187313079834,4.1351318359375,-3.3721923828125,6.4239501953125
18.9899999,-0.36152446269989014,0.5530605912208557,9.619902610778809,3.143310546875,-1.03759765625,5.523681640625
19.0099999,-0.30885201692581177,0.5339069962501526,9.603142738342285,3.8299560546875,-2.1514892578125,4.6539306640625
19.0299999,-0.2753331959247589,0.5386953949928284,9.646238327026367,2.8839111328125,-0.91552734375,3.47900390625
19.0499999,-0.26575639843940735,0.5554547905921936,9.667786598205566,1.617431640625,-1.9989013671875,2.197265625
19.0699999,-0.27054479718208313,0.5961562395095825,9.710882186889648,0.6256103515625,-1.4801025390625,2.44140625
19.089999900000002,-0.2944868206977844,0.646434485912323,9.737217903137207,2.227783203125,-1.1138916015625,2.5177001953125
19.109999900000002,-0.31842881441116333,0.6847416758537292,9.773131370544434,3.3721923828125,0.213623046875,1.9989013671875
19.1299999,-0.3495534360408783,0.7374141216278076,9.785101890563965,2.1209716796875,-0.7781982421875,0.5645751953125
19.1499999,-0.37828385829925537,0.7805097699165344,9.780313491821289,1.953125,-0.8087158203125,1.373291015625
19.1699999,-0.40462008118629456,0.8307880163192749,9.75397777557373,1.800537109375,-0.48828125,3.3111572265625
19.1899999,-0.42616790533065796,0.8690952062606812,9.72285270690918,1.4495849609375,-0.3204345703125,2.8076171875
19.2099999,-0.42856210470199585,0.8786720037460327,9.694122314453125,1.434326171875,0.030517578125,2.7923583984375
19.2299999,-0.40701428055763245,0.8619126081466675,9.682151794433594,2.1514892578125,0.8392333984375,2.7313232421875
19.249999900000002,-0.38067805767059326,0.8427590131759644,9.677363395690918,2.410888671875,0.4425048828125,2.3651123046875
19.269999900000002,-0.35913026332855225,0.8307880163192749,9.701305389404297,0.885009765625,0.54931640625,2.3040771484375
19.2899999,-0.33518823981285095,0.8092401623725891,9.746794700622559,0.732421875,1.129150390625,3.11279296875
19.3099999,-0.3256114423274994,0.8020575642585754,9.787496566772461,2.532958984375,0.152587890625,3.0975341796875
19.3299999,-0.33279404044151306,0.8212111592292786,9.830592155456543,1.64794921875,-0.5340576171875,0.9307861328125
19.3499999,-0.3447650372982025,0.8451532125473022,9.828198432922363,1.861572265625,-0.4730224609375,3.021240234375
19.3699999,-0.3663128614425659,0.8882488012313843,9.797073364257812,1.983642578125,0.0762939453125,5.2490234375
19.3899999,-0.3687070608139038,0.912190854549408,9.792284965515137,0.152587890625,1.007080078125,4.8980712890625
19.409999900000003,-0.3495534360408783,0.8954314589500427,9.77791976928711,2.13623046875,-0.4119873046875,3.9825439453125
19.429999900000002,-0.31842881441116333,0.8762778043746948,9.813833236694336,3.4332275390625,-0.885009765625,2.62451171875
19.4499999,-0.2968810200691223,0.8690952062606812,9.847352027893066,3.0670166015625,-0.9307861328125,3.2501220703125
19.4699999,-0.2849099934101105,0.8690952062606812,9.8784761428833,2.7618408203125,-1.8768310546875,5.2032470703125
19.4899999,-0.2849099934101105,0.8978256583213806,9.888052940368652,2.9449462890625,-2.197265625,4.7607421875
19.5099999,-0.2801215946674347,0.9074024558067322,9.8784761428833,3.326416015625,-1.8310546875,5.035400390625
19.5299999,-0.26575639843940735,0.9097966551780701,9.813833236694336,2.8533935546875,-2.3345947265625,5.0201416015625
19.5499999,-0.272938996553421,0.9313444495201111,9.797073364257812,4.058837890625,-1.46484375,3.814697265625
19.5699999,-0.2777273952960968,0.9385270476341248,9.770736694335938,6.561279296875,-2.44140625,5.615234375
19.589999900000002,-0.2968810200691223,0.9911994934082031,9.801861763000488,6.317138671875,-0.2899169921875,6.53076171875
19.609999900000002,-0.3208230137825012,1.0462661981582642,9.768342971801758,6.9732666015625,-2.8839111328125,6.683349609375
19.6299999,-0.3256114423274994,1.091755986213684,9.816226959228516,5.462646484375,-0.54931640625,8.544921875
19.6499999,-0.31603461503982544,1.1037269830703735,9.813833236694336,4.8065185546875,-1.0833740234375,9.27734375
19.6699999,-0.2849099934101105,1.1109095811843872,9.8784761428833,5.9661865234375,-2.9754638671875,6.8206787109375
19.6899999,-0.24420857429504395,1.0989385843276978,9.885659217834473,7.9193115234375,-3.5552978515625,7.7972412109375
19.7099999,-0.19632454216480255,1.0869675874710083,9.921571731567383,7.110595703125,-1.9378662109375,9.796142578125
19.7299999,-0.16759411990642548,1.1109095811843872,9.880870819091797,6.6680908203125,-3.692626953125,8.97216796875
19.749999900000002,-0.12210428714752197,1.0989385843276978,9.837775230407715,5.67626953125,-5.0811767578125,9.70458984375
19.769999900000002,-0.08858546614646912,1.1085153818130493,9.780313491821289,4.39453125,-4.730224609375,9.27734375
19.7899999,-0.05267243832349777,1.0965443849563599,9.6989107131958,3.72314453125,-4.33349609375,8.9263916015625
19.8099999,-0.019153613597154617,1.0989385843276978,9.636661529541016,3.7994384765625,-3.448486328125,7.9498291015625
19.8299999,0.014365210197865963,1.0989385843276978,9.588777542114258,4.2724609375,-1.89208984375,8.1634521484375
19.8499999,0.031124621629714966,1.137245774269104,9.550470352172852,3.997802734375,-3.11279296875,7.26318359375
19.8699999,0.038307227194309235,1.194706678390503,9.560047149658203,2.6397705078125,-1.6632080078125,7.659912109375
19.8899999,0.035913024097681046,1.2521674633026123,9.560047149658203,2.685546875,-1.373291015625,9.918212890625
19.909999900000003,0.021547814831137657,1.3192051649093628,9.579200744628906,2.899169921875,-1.28173828125,10.1470947265625
19.929999900000002,0.033518824726343155,1.3239935636520386,9.658209800720215,2.227783203125,2.410888671875,11.260986328125
19.9499999,0.040701430290937424,1.314416766166687,9.701305389404297,3.9825439453125,-1.0986328125,9.765625
19.9699999,0.043095629662275314,1.3072341680526733,9.806650161743164,5.645751953125,-3.4027099609375,7.781982421875
19.9899999,0.011971008032560349,1.3311761617660522,9.818621635437012,9.0179443359375,-4.4403076171875,10.1470947265625
20.0099999,-0.023942016065120697,1.3838485479354858,9.816226959228516,12.6800537109375,-0.5950927734375,15.1824951171875
20.0299999,-0.06224924325942993,1.460463047027588,9.765948295593262,13.763427734375,2.197265625,17.2576904296875
20.0499999,-0.05985504388809204,1.4915876388549805,9.696516990661621,15.655517578125,2.197265625,17.6849365234375
20.0699999,-0.026336219161748886,1.4987702369689941,9.679757118225098,12.481689453125,2.0599365234375,17.120361328125
20.089999900000002,0.019153613597154617,1.4748282432556152,9.684545516967773,4.4097900390625,-1.0528564453125,16.11328125
20.109999900000002,0.040701430290937424,1.4915876388549805,9.737217903137207,1.6937255859375,-6.561279296875,14.495849609375
20.1299999,0.019153613597154617,1.5634137392044067,9.794678688049316,1.3275146484375,-5.7830810546875,16.632080078125
20.1499999,-0.031124621629714966,1.656787633895874,9.856928825378418,2.105712890625,-4.791259765625,23.7884521484375
20.1699999,-0.08140286058187485,1.7573440074920654,9.885659217834473,1.7242431640625,-5.2337646484375,27.9541015625
20.1899999,-0.10295066982507706,1.8267759084701538,9.943120002746582,-7.4310302734375,-7.01904296875,29.5562744140625
20.2099999,-0.090979665517807,1.8483237028121948,9.885659217834473,-23.345947265625,-16.8609619140625,30.2581787109375
20.2299999,-0.031124621629714966,1.7836803197860718,9.931148529052734,-36.7889404296875,-8.5601806640625,36.285400390625
20.249999900000002,0.05267243832349777,1.6831238269805908,9.792284965515137,-28.5186767578125,-7.598876953125,41.961669921875
20.269999900000002,0.19153612852096558,1.4891934394836426,9.691728591918945,-22.4456787109375,-4.150390625,42.9534912109375
20.2899999,0.3280056416988373,1.2856862545013428,9.593565940856934,-31.73828125,5.6610107421875,37.841796875
20.3099999,0.4620809257030487,1.0965443849563599,9.50737476348877,-33.0657958984375,2.5634765625,32.012939453125
20.3299999,0.5195417404174805,0.9792284965515137,9.528923034667969,-29.11376953125,-2.6092529296875,30.1361083984375
20.3499999,0.5267243981361389,0.9193734526634216,9.57441234588623,-22.1710205078125,-0.4119873046875,30.6396484375
20.3699999,0.5051765441894531,0.8595184087753296,9.622296333312988,-15.533447265625,4.486083984375,39.1082763671875
20.3899999,0.47644615173339844,0.7852981686592102,9.660603523254395,-12.0391845703125,8.48388671875,40.8477783203125
20.409999900000003,0.4596867263317108,0.6775590777397156,9.682151794433594,-9.7808837890625,9.2926025390625,34.1339111328125
20.429999900000002,0.40940847992897034,0.6320692300796509,9.691728591918945,-5.157470703125,8.636474609375,31.5399169921875
20.4499999,0.35673606395721436,0.5793967843055725,9.761159896850586,-8.8348388671875,15.2130126953125,40.252685546875
20.4699999,0.27054479718208313,0.5650315880775452,9.84256362915039,-16.7236328125,11.4593505859375,44.158935546875
20.4899999,0.22266076505184174,0.49320554733276367,9.967061996459961,-15.2587890625,4.8980712890625,37.872314453125
20.5099999,0.19153612852096558,0.3974374830722809,10.077195167541504,-11.0626220703125,-0.6561279296875,31.097412109375
20.5299999,0.14604631066322327,0.3974374830722809,10.08198356628418,-6.9122314453125,1.2359619140625,29.998779296875
20.5499999,0.0933738648891449,0.42616790533065796,10.0580415725708,-2.105712890625,14.0228271484375,40.4815673828125
20.5699999,0.08619125932455063,0.4141969084739685,9.96945571899414,-0.0457763671875,13.824462890625,46.20361328125
20.589999900000002,0.0933738648891449,0.4357447028160095,9.907206535339355,-3.41796875,0.244140625,33.0810546875
20.609999900000002,0.1388636976480484,0.395043283700943,9.883264541625977,-12.5274658203125,-5.9661865234375,24.169921875
