# Time (seconds),Accel_X,Accel_Y,Accel_Z,Gyro_X,Gyro_Y,Gyro_Z
0.0099999,0.15562310814857483,0.29209262132644653,-9.78989028930664,-0.30517578125,-0.4425048828125,2.38037109375
0.029999900000000003,0.15322890877723694,0.272938996553421,-9.797073364257812,0.732421875,-1.5869140625,2.74658203125
0.0499999,0.15801730751991272,0.22266076505184174,-9.794678688049316,0.1983642578125,-1.708984375,1.46484375
0.0699999,0.15322890877723694,0.1867477297782898,-9.821015357971191,-0.5645751953125,-2.0904541015625,-0.6256103515625
0.08999990000000001,0.14844051003456116,0.14365209639072418,-9.840168952941895,-0.2288818359375,-0.732421875,1.0223388671875
0.10999990000000001,0.13407529890537262,0.12449848651885986,-9.880870819091797,-0.0457763671875,-1.129150390625,1.739501953125
0.1299999,0.11971008777618408,0.11013327538967133,-9.914389610290527,-0.0457763671875,-1.678466796875,0.8544921875
0.14999990000000002,0.09816227108240128,0.09576806426048279,-9.938331604003906,0.2288818359375,-0.457763671875,-0.4119873046875
0.1699999,0.07661445438861847,0.07182604819536209,-9.938331604003906,1.068115234375,0.5035400390625,-0.091552734375
0.1899999,0.05506663769483566,0.05027823522686958,-9.90241813659668,1.0528564453125,0.396728515625,0.457763671875
0.20999990000000002,0.031124621629714966,0.009576806798577309,-9.861717224121094,1.708984375,-1.9683837890625,-0.06103515625
0.2299999,0.011971008032560349,-0.038307227194309235,-9.816226959228516,0.6561279296875,-2.01416015625,-1.220703125
0.2499999,0.004788403399288654,-0.07422025501728058,-9.797073364257812,0.396728515625,-1.220703125,-1.983642578125
0.2699999,0.002394201699644327,-0.08140286058187485,-9.806650161743164,1.953125,-1.0528564453125,-1.800537109375
0.28999990000000003,0.009576806798577309,-0.06464344263076782,-9.80904483795166,2.0751953125,-0.732421875,-1.7547607421875
0.3099999,0.021547814831137657,-0.05267243832349777,-9.794678688049316,1.15966796875,0.1220703125,-1.7852783203125
0.3299999,0.031124621629714966,-0.023942016065120697,-9.794678688049316,0.2593994140625,-1.9683837890625,-3.8604736328125
0.34999990000000003,0.043095629662275314,0.035913024097681046,-9.799467086791992,-1.2969970703125,-1.3885498046875,-6.011962890625
0.3699999,0.06224924325942993,0.090979665517807,-9.787496566772461,0.2593994140625,3.326416015625,-2.0751953125
0.3899999,0.07422025501728058,0.20350714027881622,-9.81143856048584,0.2288818359375,-0.9765625,-1.800537109375
0.40999990000000003,0.08619125932455063,0.26336219906806946,-9.794678688049316,-0.823974609375,-1.373291015625,-2.1514892578125
0.4299999,0.08379705995321274,0.304063618183136,-9.804255485534668,-0.9613037109375,-1.3275146484375,-1.6632080078125
0.4499999,0.0694318488240242,0.30885201692581177,-9.835380554199219,-1.6021728515625,-1.2664794921875,-2.2735595703125
0.4699999,0.05027823522686958,0.2944868206977844,-9.8784761428833,-1.15966796875,0.091552734375,-2.44140625
0.4899999,0.023942016065120697,0.2825157940387726,-9.911994934082031,-1.64794921875,0.9765625,-1.5869140625
0.5099999,0.0071826050989329815,0.26336219906806946,-9.919178009033203,-2.01416015625,0.1983642578125,-0.3509521484375
0.5299999,-0.002394201699644327,0.2561795711517334,-9.916783332824707,-1.52587890625,-1.190185546875,0.18310546875
0.5499999,-0.0071826050989329815,0.2346317619085312,-9.914389610290527,-1.2359619140625,-0.7476806640625,0.6256103515625
0.5699999,-0.0071826050989329815,0.19393034279346466,-9.923966407775879,0.3662109375,0.67138671875,0.9765625
0.5899998999999999,-0.011971008032560349,0.1412578970193863,-9.950302124023438,1.129150390625,0.946044921875,-0.5035400390625
0.6099998999999999,-0.023942016065120697,0.1173158809542656,-9.95748519897461,-1.251220703125,1.9073486328125,-2.6397705078125
0.6299999,-0.028730420395731926,0.10534487664699554,-9.952696800231934,-2.410888671875,2.3651123046875,-1.3885498046875
0.6499999,-0.028730420395731926,0.15322890877723694,-9.914389610290527,-1.3580322265625,2.38037109375,-0.9918212890625
0.6699999,-0.016759412363171577,0.22266076505184174,-9.859322547912598,-1.312255859375,1.8463134765625,-1.7242431640625
0.6899999,0.002394201699644327,0.304063618183136,-9.804255485534668,-1.2969970703125,1.03759765625,-1.3580322265625
0.7099999,0.021547814831137657,0.3758896589279175,-9.75637149810791,-1.007080078125,1.2359619140625,-0.3662109375
0.7299998999999999,0.035913024097681046,0.42856210470199585,-9.727641105651855,-0.6561279296875,0.9613037109375,0.579833984375
0.7499998999999999,0.043095629662275314,0.45010992884635925,-9.706093788146973,-2.01416015625,0.946044921875,0.457763671875
0.7699999,0.0454898327589035,0.4596867263317108,-9.703699111938477,-2.2125244140625,0.1068115234375,0.3662109375
0.7899999,0.038307227194309235,0.44771572947502136,-9.701305389404297,-1.15966796875,-0.396728515625,1.5869140625
0.8099999,0.031124621629714966,0.42616790533065796,-9.718064308166504,-1.28173828125,-0.396728515625,2.5177001953125
0.8299999,0.014365210197865963,0.3974374830722809,-9.734824180603027,-1.1444091796875,-0.8544921875,1.953125
0.8499998999999999,-0.0071826050989329815,0.35434186458587646,-9.75397777557373,-1.708984375,-0.6256103515625,2.1514892578125
0.8699998999999999,-0.028730420395731926,0.30885201692581177,-9.75637149810791,-1.3275146484375,-0.5035400390625,2.50244140625
0.8899999,-0.0454898327589035,0.26575639843940735,-9.75637149810791,-1.953125,-1.251220703125,2.6092529296875
0.9099999,-0.05746084079146385,0.23942017555236816,-9.763554573059082,-2.13623046875,-2.5787353515625,1.7547607421875
0.9299999,-0.05746084079146385,0.21308395266532898,-9.782708168029785,-1.220703125,-1.28173828125,1.89208984375
0.9499999,-0.05985504388809204,0.2082955539226532,-9.832986831665039,-0.30517578125,-0.518798828125,2.166748046875
0.9699998999999999,-0.06224924325942993,0.2082955539226532,-9.86650562286377,-1.6021728515625,0.67138671875,1.1444091796875
0.9899998999999999,-0.06464344263076782,0.21547815203666687,-9.890447616577148,-1.8768310546875,-0.0457763671875,0.54931640625
1.0099999,-0.06224924325942993,0.23702596127986908,-9.885659217834473,-1.40380859375,-0.396728515625,0.1220703125
1.0299999,-0.05267243832349777,0.27054479718208313,-9.871294021606445,-1.1444091796875,0.0762939453125,-0.1373291015625
1.0499999,-0.05027823522686958,0.3423708379268646,-9.835380554199219,0.1983642578125,2.8228759765625,-0.152587890625
1.0699999,-0.040701430290937424,0.37828385829925537,-9.823410034179688,1.953125,1.4190673828125,4.0130615234375
1.0899999,-0.040701430290937424,0.40462008118629456,-9.78989028930664,-0.1678466796875,-0.9613037109375,2.349853515625
1.1099999,-0.05027823522686958,0.395043283700943,-9.792284965515137,-1.068115234375,-1.1138916015625,1.5869140625
1.1299999,-0.05985504388809204,0.35434186458587646,-9.80904483795166,-0.1220703125,-1.129150390625,1.0986328125
1.1499999,-0.07422025501728058,0.304063618183136,-9.84495735168457,0.91552734375,0.2288818359375,1.678466796875
1.1699998999999999,-0.090979665517807,0.2585737705230713,-9.8784761428833,0.518798828125,0.885009765625,1.0528564453125
1.1899998999999999,-0.10534487664699554,0.22266076505184174,-9.928754806518555,0.3204345703125,-0.091552734375,0.06103515625
1.2099999,-0.1149216815829277,0.19153612852096558,-9.943120002746582,0.7171630859375,0.823974609375,0.823974609375
1.2299999,-0.1173158809542656,0.17956513166427612,-9.952696800231934,0.3814697265625,1.77001953125,0.8544921875
1.2499999,-0.11252748221158981,0.1843535304069519,-9.93354320526123,1.4190673828125,1.068115234375,-0.152587890625
1.2699999,-0.10295066982507706,0.19153612852096558,-9.880870819091797,0.213623046875,1.861572265625,-0.3509521484375
1.2899999,-0.09816227108240128,0.21547815203666687,-9.837775230407715,0.579833984375,0.4119873046875,0.1678466796875
1.3099999,-0.08858546614646912,0.23942017555236816,-9.794678688049316,-0.3204345703125,0.396728515625,0.701904296875
1.3299999,-0.08619125932455063,0.26096799969673157,-9.785101890563965,-0.7781982421875,0.2593994140625,1.0223388671875
1.3499999,-0.08858546614646912,0.2513911724090576,-9.787496566772461,-0.5645751953125,0.3509521484375,1.0528564453125
1.3699999,-0.0933738648891449,0.2346317619085312,-9.81143856048584,0,0.1983642578125,0.213623046875
1.3899999,-0.10773907601833344,0.21547815203666687,-9.825803756713867,0.2899169921875,0.7781982421875,-1.190185546875
1.4099999,-0.1173158809542656,0.19632454216480255,-9.84256362915039,0.396728515625,1.3580322265625,-0.48828125
1.4299998999999999,-0.12210428714752197,0.19632454216480255,-9.847352027893066,0.3509521484375,1.068115234375,-0.5950927734375
1.4499999,-0.12210428714752197,0.20350714027881622,-9.847352027893066,0.2899169921875,0.79345703125,-0.946044921875
1.4699999,-0.11971008777618408,0.2298433631658554,-9.84256362915039,0.0762939453125,0.6103515625,-1.556396484375
1.4899999,-0.11252748221158981,0.24420857429504395,-9.825803756713867,-0.518798828125,1.800537109375,-0.5035400390625
1.5099999,-0.11013327538967133,0.2801215946674347,-9.828198432922363,-0.5645751953125,1.190185546875,-0.885009765625
1.5299999,-0.10534487664699554,0.2944868206977844,-9.828198432922363,-0.1373291015625,0.7171630859375,-0.7171630859375
1.5499999,-0.10295066982507706,0.304063618183136,-9.821015357971191,-0.701904296875,2.2125244140625,-0.42724609375
1.5699999,-0.10295066982507706,0.3064578175544739,-9.816226959228516,-0.3204345703125,1.4190673828125,-0.823974609375
1.5899999,-0.10055647045373917,0.31603461503982544,-9.797073364257812,-0.6866455078125,0.8697509765625,-1.251220703125
1.6099999,-0.10055647045373917,0.33997663855552673,-9.782708168029785,-0.6256103515625,0.396728515625,-0.7476806640625
1.6299999,-0.10055647045373917,0.3734954595565796,-9.773131370544434,-0.4730224609375,0.6866455078125,0.3814697265625
1.6499999,-0.10295066982507706,0.37828385829925537,-9.782708168029785,-0.0152587890625,0.54931640625,1.5869140625
1.6699999,-0.10295066982507706,0.3495534360408783,-9.797073364257812,-0.18310546875,0.2593994140625,0.701904296875
1.6899998999999999,-0.11013327538967133,0.30885201692581177,-9.823410034179688,-1.2359619140625,0.4730224609375,-1.5411376953125
1.7099999,-0.11013327538967133,0.26575639843940735,-9.837775230407715,-0.48828125,1.3275146484375,-1.15966796875
1.7299999,-0.11013327538967133,0.26096799969673157,-9.84256362915039,-0.1678466796875,1.5869140625,0
1.7499999,-0.10773907601833344,0.2801215946674347,-9.825803756713867,-0.335693359375,0.8087158203125,-0.091552734375
1.7699999,-0.10534487664699554,0.3016694188117981,-9.799467086791992,-0.396728515625,0.18310546875,0.0457763671875
1.7899999,-0.10055647045373917,0.31124621629714966,-9.794678688049316,0.7171630859375,-0.7476806640625,0.3662109375
1.8099999,-0.09816227108240128,0.30885201692581177,-9.801861763000488,0.244140625,0.2288818359375,0.2288818359375
1.8299999,-0.0933738648891449,0.2825157940387726,-9.818621635437012,-0.5950927734375,1.922607421875,0.335693359375
1.8499999,-0.08858546614646912,0.2777273952960968,-9.837775230407715,-0.48828125,0.9918212890625,-0.7781982421875
1.8699999,-0.08379705995321274,0.2801215946674347,-9.821015357971191,-0.518798828125,0.8087158203125,-0.457763671875
1.8899999,-0.08140286058187485,0.28730419278144836,-9.804255485534668,0.54931640625,0.1678466796875,0.9765625
1.9099999,-0.08619125932455063,0.28730419278144836,-9.782708168029785,0.6561279296875,0.0152587890625,0.8544921875
1.9299998999999999,-0.09576806426048279,0.2753331959247589,-9.773131370544434,-0.6256103515625,0.6561279296875,-0.6561279296875
1.9499999,-0.10773907601833344,0.26096799969673157,-9.765948295593262,-0.9002685546875,0.5645751953125,-0.8087158203125
1.9699999,-0.1173158809542656,0.26096799969673157,-9.75397777557373,-0.4730224609375,0.5035400390625,0.3814697265625
1.9899999,-0.12928688526153564,0.26815059781074524,-9.758766174316406,0.5340576171875,-0.9918212890625,0.640869140625
2.0099999,-0.1388636976480484,0.2513911724090576,-9.751583099365234,-0.6866455078125,-0.030517578125,0.30517578125
2.0299999,-0.14844051003456116,0.2346317619085312,-9.75637149810791,-1.1138916015625,0.2899169921875,-1.068115234375
2.0499999,-0.15562310814857483,0.22505496442317963,-9.75637149810791,-0.9613037109375,-0.579833984375,-1.739501953125
2.0699999,-0.15322890877723694,0.21787235140800476,-9.751583099365234,-0.2288818359375,-0.8544921875,-0.2288818359375
2.0899999,-0.15562310814857483,0.24420857429504395,-9.737217903137207,0,-0.640869140625,-0.5035400390625
2.1099999,-0.15322890877723694,0.2513911724090576,-9.725247383117676,-0.5645751953125,-0.9307861328125,-0.7171630859375
2.1299999,-0.15801730751991272,0.26815059781074524,-9.720458984375,-1.2359619140625,-1.5411376953125,-0.7781982421875
2.1499999,-0.16759411990642548,0.2801215946674347,-9.737217903137207,-0.6103515625,-2.3193359375,-1.312255859375
2.1699999,-0.17477671802043915,0.2944868206977844,-9.763554573059082,-1.0223388671875,-0.1220703125,-0.9765625
2.1899999,-0.1867477297782898,0.31124621629714966,-9.77791976928711,2.899169921875,2.7618408203125,-1.0528564453125
2.2099999,-0.19871874153614044,0.3232172429561615,-9.801861763000488,3.082275390625,0.213623046875,1.03759765625
2.2299999,-0.20111294090747833,0.3064578175544739,-9.787496566772461,-0.06103515625,-1.9683837890625,-0.152587890625
2.2499999,-0.2082955539226532,0.304063618183136,-9.81143856048584,-1.03759765625,-2.8228759765625,-1.251220703125
2.2699999,-0.2059013396501541,0.2944868206977844,-9.840168952941895,-0.885009765625,-1.708984375,-1.40380859375
2.2899999,-0.2082955539226532,0.29209262132644653,-9.883264541625977,-1.64794921875,-0.5950927734375,-0.91552734375
2.3099999,-0.21547815203666687,0.29209262132644653,-9.909601211547852,-1.03759765625,-0.3509521484375,-0.640869140625
2.3299999,-0.22744916379451752,0.2825157940387726,-9.919178009033203,-0.5645751953125,-1.1444091796875,-1.068115234375
2.3499999,-0.24181437492370605,0.26336219906806946,-9.890447616577148,-1.220703125,-0.7781982421875,-1.52587890625
2.3699999,-0.2537853717803955,0.2585737705230713,-9.854534149169922,-1.9378662109375,-0.8392333984375,-1.9683837890625
2.3899999,-0.26575639843940735,0.2753331959247589,-9.835380554199219,-0.7781982421875,-2.6092529296875,-1.9989013671875
2.4099999,-0.272938996553421,0.2992752194404602,-9.787496566772461,-0.48828125,0.1983642578125,-0.7781982421875
2.4299999,-0.272938996553421,0.31842881441116333,-9.768342971801758,-0.3204345703125,-0.1068115234375,-0.9613037109375
2.4499999,-0.2801215946674347,0.3711012601852417,-9.739612579345703,1.4190673828125,-0.579833984375,-2.655029296875
2.4699999,-0.2801215946674347,0.3758896589279175,-9.715670585632324,2.197265625,-0.244140625,1.0833740234375
2.4899999,-0.2825157940387726,0.38067805767059326,-9.68933391571045,0.4119873046875,-1.251220703125,1.190185546875
2.5099999,-0.2801215946674347,0.363918662071228,-9.679757118225098,-1.40380859375,-2.410888671875,-0.1983642578125
2.5299999,-0.2825157940387726,0.3471592366695404,-9.679757118225098,-1.64794921875,-4.119873046875,-2.3956298828125
2.5499999,-0.2777273952960968,0.33758243918418884,-9.670180320739746,-0.8392333984375,-1.800537109375,0.152587890625
2.5699999,-0.2849099934101105,0.3758896589279175,-9.674968719482422,-1.77001953125,-2.288818359375,0.6561279296875
2.5899999,-0.28730419278144836,0.40701428055763245,-9.682151794433594,-1.1138916015625,-4.638671875,1.2359619140625
2.6099999,-0.2992752194404602,0.42377370595932007,-9.6989107131958,-1.4801025390625,-4.4708251953125,0.7171630859375
2.6299999,-0.31603461503982544,0.42377370595932007,-9.713275909423828,1.312255859375,-1.4495849609375,1.3885498046875
2.6499999,-0.33518823981285095,0.38307225704193115,-9.761159896850586,1.617431640625,-2.7618408203125,3.2196044921875
2.6699999,-0.3519476354122162,0.33997663855552673,-9.787496566772461,-0.7476806640625,-4.21142578125,0.1220703125
2.6899999,-0.363918662071228,0.2968810200691223,-9.823410034179688,-0.1220703125,-3.72314453125,-0.18310546875
2.7099999,-0.3495534360408783,0.23702596127986908,-9.832986831665039,1.251220703125,-3.1890869140625,0.7171630859375
2.7299999,-0.33279404044151306,0.23702596127986908,-9.859322547912598,-0.18310546875,-5.6915283203125,-1.5716552734375
2.7499999,-0.2944868206977844,0.22744916379451752,-9.835380554199219,-0.732421875,-5.1116943359375,-1.6021728515625
2.7699999,-0.24660277366638184,0.26815059781074524,-9.775525093078613,-1.2054443359375,-6.2408447265625,-0.0762939453125
2.7899999,-0.17238251864910126,0.3016694188117981,-9.732429504394531,0.091552734375,-14.6484375,1.129150390625
2.8099999,-0.06464344263076782,0.3711012601852417,-9.533711433410645,-2.74658203125,-20.050048828125,1.8157958984375
2.8299999,0.033518824726343155,0.4381389021873474,-9.457097053527832,6.3018798828125,-39.520263671875,-0.18310546875
2.8499999,0.12449848651885986,0.40462008118629456,-9.311050415039062,23.5443115234375,-59.814453125,2.2430419921875
2.8699999,0.07422025501728058,0.3423708379268646,-9.265560150146484,23.3917236328125,-84.930419921875,-5.615234375
2.8899999,-0.08619125932455063,0.10773907601833344,-9.569623947143555,9.4146728515625,-121.52099609375,-10.6353759765625
2.9099999,-0.4596867263317108,-0.014365210197865963,-10.44350814819336,-14.8468017578125,-136.5203857421875,-18.5089111328125
2.9299999,-0.9265560507774353,0,-11.652579307556152,-16.90673828125,-101.3641357421875,-23.1475830078125
2.9499999,-1.5873557329177856,0.24660277366638184,-13.352462768554688,-2.3040771484375,-74.6002197265625,-13.1072998046875
2.9699999,-2.2649147510528564,0.5003881454467773,-14.877569198608398,22.9339599609375,-55.7098388671875,-2.38037109375
2.9899999,-2.96162748336792,0.727837324142456,-15.986084938049316,20.599365234375,-29.7088623046875,-7.7362060546875
3.0099999,-3.550601005554199,0.7086837291717529,-16.476896286010742,6.8817138671875,4.9591064453125,-4.7454833984375
3.0299999,-4.015076160430908,0.6440402865409851,-16.41225242614746,1.7242431640625,22.0947265625,-2.7923583984375
3.0499999,-4.343081951141357,0.5482721924781799,-15.966931343078613,-1.8768310546875,35.6597900390625,4.21142578125
3.0699999,-4.594472885131836,0.5602431893348694,-15.351621627807617,2.777099609375,59.63134765625,7.0648193359375
3.0899999,-4.757278919219971,0.4908113479614258,-14.65011978149414,9.6435546875,76.995849609375,12.725830078125
3.1099999,-4.81473970413208,0.3016694188117981,-14.013262748718262,9.6282958984375,80.902099609375,14.2669677734375
3.1299999,-4.790797710418701,0.14365209639072418,-13.362039566040039,2.13623046875,90.4541015625,2.349853515625
3.1499999,-4.659116744995117,-0.05506663769483566,-12.722787857055664,-5.92041015625,108.062744140625,3.8604736328125
3.1699999,-4.458003520965576,-0.1604115068912506,-12.258312225341797,-0.3509521484375,116.0125732421875,13.2598876953125
3.1899999,-4.185064792633057,-0.12210428714752197,-11.635820388793945,1.9378662109375,128.997802734375,10.955810546875
3.2099999,-3.8594532012939453,-0.026336219161748886,-11.116278648376465,2.2430419921875,124.908447265625,6.9122314453125
3.2299999,-3.426102638244629,0.033518824726343155,-10.429142951965332,5.584716796875,125.518798828125,13.12255859375
3.2499999,-2.983175277709961,0.17717093229293823,-9.911994934082031,-1.5411376953125,122.1923828125,17.76123046875
3.2699999,-2.4827871322631836,0.2585737705230713,-9.516951560974121,-1.3580322265625,126.739501953125,19.439697265625
3.2899999,-2.008735179901123,0.3232172429561615,-9.275136947631836,1.495361328125,138.5345458984375,22.0947265625
3.3099999,-1.5705963373184204,0.2537853717803955,-9.205705642700195,3.9825439453125,143.798828125,25.3753662109375
3.3299999000000002,-1.1540051698684692,0.12689268589019775,-9.074024200439453,-0.274658203125,144.5770263671875,22.1710205078125
3.3499999,-0.7422025203704834,-0.026336219161748886,-9.093177795410156,-10.1165771484375,141.05224609375,17.51708984375
3.3699999,-0.3423708379268646,-0.038307227194309235,-8.999804496765137,-10.406494140625,155.548095703125,15.7318115234375
3.3899999,0.090979665517807,0.038307227194309235,-8.978256225585938,-3.2196044921875,163.9251708984375,27.130126953125
3.4099999,0.5482721924781799,0.12449848651885986,-8.678980827331543,11.0321044921875,166.56494140625,38.2080078125
3.4299999,1.0319008827209473,0.14604631066322327,-8.20492935180664,3.814697265625,167.022705078125,32.470703125
3.4499999,1.5849615335464478,-0.1364694982767105,-7.4316020011901855,-2.227783203125,151.6265869140625,33.7066650390625
3.4699999,2.1116859912872314,-0.26096799969673157,-6.873753070831299,-1.1444091796875,138.153076171875,25.6195068359375
3.4899999,2.564189910888672,-0.33279404044151306,-6.3973069190979,5.2947998046875,142.7764892578125,33.8897705078125
3.5099999,3.0166940689086914,-0.43335050344467163,-6.162675380706787,15.5181884765625,153.6102294921875,66.3299560546875
3.5299999,3.4356794357299805,-0.6105214357376099,-5.935225963592529,28.472900390625,152.9388427734375,63.3697509765625
3.5499999,3.9264907836914062,-0.9744400978088379,-5.580883979797363,20.0042724609375,160.2935791015625,35.308837890625
3.5699999,4.46518611907959,-1.3000515699386597,-4.898536682128906,5.5389404296875,164.9932861328125,23.5748291015625
3.5899999,4.991910457611084,-1.5466543436050415,-4.084507942199707,5.950927734375,139.0380859375,31.5399169921875
3.6099999,5.497087001800537,-1.7405846118927002,-3.138798475265503,24.71923828125,94.4061279296875,31.1279296875
3.6299999,5.942408561706543,-1.9321208000183105,-2.2673089504241943,20.44677734375,74.5849609375,9.5367431640625
3.6499999,6.356605529785156,-2.2194249629974365,-1.7142484188079834,5.584716796875,68.7713623046875,-1.1749267578125
3.6699999,6.71334171295166,-2.2601263523101807,-1.5610195398330688,-3.35693359375,61.5692138671875,-6.53076171875
3.6899999,7.0126166343688965,-1.9847931861877441,-1.7501614093780518,-6.8511962890625,57.3883056640625,-1.9073486328125
3.7099999,7.273584842681885,-1.53707754611969,-2.0925323963165283,0.6256103515625,55.0079345703125,8.4991455078125
3.7299999,7.529764175415039,-1.1013327836990356,-2.27209734916687,7.99560546875,51.6510009765625,9.8419189453125
3.7499999,7.7883381843566895,-0.9026140570640564,-2.387019157409668,3.6773681640625,34.72900390625,5.8441162109375
3.7699999,8.034940719604492,-0.8762778043746948,-2.2649147510528564,-0.9765625,29.693603515625,-1.4190673828125
3.7899999,8.245630264282227,-0.9409212470054626,-2.296039342880249,-3.4332275390625,21.3775634765625,-0.946044921875
3.8099999,8.362946510314941,-0.9840168952941895,-2.387019157409668,-3.082275390625,17.63916015625,4.3792724609375
3.8299999000000002,8.406042098999023,-1.1324573755264282,-2.5498247146606445,-1.0223388671875,19.59228515625,8.2244873046875
3.8499999,8.403648376464844,-1.3407529592514038,-2.80361008644104,-1.953125,11.810302734375,1.800537109375
3.8699999,8.415618896484375,-1.5083470344543457,-3.0190882682800293,-8.5296630859375,12.359619140625,-10.528564453125
3.8899999,8.451532363891602,-1.5298948287963867,-3.308786630630493,-8.60595703125,11.6424560546875,-9.246826171875
3.9099999,8.552088737487793,-1.3982137441635132,-3.5697548389434814,-2.1209716796875,10.1318359375,0.5645751953125
3.9299999,8.667010307312012,-1.1324573755264282,-3.7876269817352295,-3.631591796875,8.9111328125,1.77001953125
3.9499999,8.772355079650879,-0.9528923034667969,-3.9432501792907715,-5.1422119140625,3.997802734375,-0.54931640625
3.9699999,8.83939266204834,-0.8882488012313843,-3.9887399673461914,-3.90625,3.1585693359375,1.3275146484375
3.9899999,8.851364135742188,-0.9241618514060974,-4.017470359802246,-1.6937255859375,1.434326171875,1.15966796875
4.0099999,8.820239067077637,-1.01753568649292,-4.05817174911499,-3.7689208984375,0.091552734375,-0.5035400390625
4.029999900000001,8.755595207214355,-1.1324573755264282,-4.084507942199707,-9.735107421875,4.1046142578125,-1.64794921875
4.0499999,8.688557624816895,-1.2114660739898682,-4.129997730255127,-7.8125,5.5694580078125,-0.0762939453125
4.069999900000001,8.631096839904785,-1.2210428714752197,-4.1395745277404785,-6.591796875,3.8299560546875,0.213623046875
4.0899999000000005,8.597578048706055,-1.1994950771331787,-4.127603530883789,-7.965087890625,1.922607421875,1.2359619140625
4.1099999,8.597578048706055,-1.1492167711257935,-4.125209331512451,-6.6680908203125,-1.0986328125,0.7476806640625
4.1299999000000005,8.633491516113281,-1.115697979927063,-4.177882194519043,-5.218505859375,-1.46484375,0.579833984375
4.1499999,8.686163902282715,-1.1037269830703735,-4.268861770629883,-4.3182373046875,0.18310546875,1.708984375
4.1699999000000005,8.743624687194824,-1.115697979927063,-4.3622355461120605,-6.500244140625,1.6632080078125,1.373291015625
4.1899999,8.791508674621582,-1.1252747774124146,-4.467580318450928,-7.0037841796875,0.06103515625,1.068115234375
4.209999900000001,8.825027465820312,-1.1037269830703735,-4.505887508392334,-5.340576171875,0.8544921875,0.4119873046875
4.2299999,8.841787338256836,-1.072602391242981,-4.49870491027832,-3.3416748046875,2.3345947265625,3.7384033203125
4.249999900000001,8.825027465820312,-1.0654197931289673,-4.481945514678955,-3.204345703125,-1.1444091796875,5.8746337890625
4.2699999,8.801085472106934,-1.1180921792984009,-4.441244125366211,0.091552734375,-1.3275146484375,4.3792724609375
4.289999900000001,8.755595207214355,-1.1827356815338135,-4.484339714050293,1.2664794921875,-1.9989013671875,0.6561279296875
4.3099999,8.712499618530273,-1.2689268589019775,-4.54419469833374,-0.4425048828125,3.204345703125,2.62451171875
4.329999900000001,8.667010307312012,-1.3239935636520386,-4.616020679473877,-0.4425048828125,5.096435546875,4.5928955078125
4.3499999,8.635885238647461,-1.400607943534851,-4.611232280731201,1.708984375,4.1351318359375,4.3487548828125
4.369999900000001,8.609549522399902,-1.4891934394836426,-4.553771495819092,0.1983642578125,2.6092529296875,0.732421875
4.3899999,8.60236644744873,-1.5538369417190552,-4.438849925994873,-3.0059814453125,2.0599365234375,-1.6632080078125
4.409999900000001,8.609549522399902,-1.556231141090393,-4.357447147369385,-4.0740966796875,0.6256103515625,-0.5950927734375
4.4299999,8.619126319885254,-1.482010841369629,-4.309563159942627,-3.6163330078125,0.579833984375,1.0833740234375
4.449999900000001,8.631096839904785,-1.4077905416488647,-4.28322696685791,-2.0751953125,2.044677734375,1.983642578125
4.4699999,8.643068313598633,-1.338358759880066,-4.302380561828613,-1.1138916015625,0.6561279296875,0.5035400390625
4.489999900000001,8.65982723236084,-1.3000515699386597,-4.355052947998047,0.4119873046875,-0.79345703125,-1.3885498046875
4.5099999,8.681375503540039,-1.2425906658172607,-4.417302131652832,1.8310546875,1.617431640625,-0.9613037109375
4.529999900000001,8.710105895996094,-1.192312479019165,-4.4723687171936035,1.7242431640625,3.9520263671875,1.77001953125
4.5499999,8.7268648147583,-1.1420341730117798,-4.522646903991699,1.800537109375,1.251220703125,2.349853515625
4.569999900000001,8.729259490966797,-1.1635819673538208,-4.501099109649658,3.4027099609375,2.1209716796875,2.01416015625
4.5899999000000005,8.712499618530273,-1.216254472732544,-4.4723687171936035,3.2958984375,2.5787353515625,0.213623046875
4.609999900000001,8.678980827331543,-1.3072341680526733,-4.426878929138184,1.007080078125,3.0059814453125,-0.42724609375
4.6299999000000005,8.638279914855957,-1.3766659498214722,-4.335899353027344,-0.7781982421875,4.7454833984375,-0.4119873046875
4.6499999,8.616731643676758,-1.4389152526855469,-4.278438568115234,-1.434326171875,1.1749267578125,-0.579833984375
4.6699999000000005,8.59997272491455,-1.4748282432556152,-4.20421838760376,-2.2735595703125,0.6103515625,-0.8697509765625
4.6899999,8.59997272491455,-1.501164436340332,-4.194641590118408,-2.7923583984375,1.251220703125,-1.8768310546875
4.709999900000001,8.604761123657227,-1.4915876388549805,-4.225766181945801,-1.6326904296875,0.48828125,-2.685546875
4.7299999,8.611943244934082,-1.4508862495422363,-4.242525577545166,-3.8909912109375,2.288818359375,-2.38037109375
4.749999900000001,8.619126319885254,-1.4173674583435059,-4.268861770629883,-3.875732421875,0.5950927734375,-0.946044921875
4.7699999,8.633491516113281,-1.3958195447921753,-4.2544965744018555,-1.40380859375,-0.8544921875,-1.46484375
4.789999900000001,8.638279914855957,-1.3718775510787964,-4.240131378173828,-3.509521484375,-0.9307861328125,-4.39453125
4.8099999,8.650250434875488,-1.359906554222107,-4.223371982574463,-4.08935546875,0.1983642578125,-3.753662109375
4.829999900000001,8.650250434875488,-1.316810965538025,-4.240131378173828,-3.265380859375,-0.1220703125,-2.8076171875
4.8499999,8.652645111083984,-1.256955862045288,-4.247313976287842,-2.349853515625,0.67138671875,-2.9296875
4.869999900000001,8.65743350982666,-1.1827356815338135,-4.261679172515869,-3.1585693359375,0.4425048828125,-4.180908203125
4.8899999,8.669404029846191,-1.1013327836990356,-4.273650169372559,-3.60107421875,-1.1138916015625,-3.3111572265625
4.909999900000001,8.681375503540039,-1.0103530883789062,-4.311957359313965,-1.7852783203125,-1.64794921875,-1.495361328125
4.9299999,8.700529098510742,-0.9624691009521484,-4.331110954284668,-0.885009765625,0.8087158203125,-0.0762939453125
4.949999900000001,8.705317497253418,-0.9528923034667969,-4.371812343597412,-1.52587890625,0.732421875,-0.6866455078125
4.9699999,8.698134422302246,-1.0031704902648926,-4.4292731285095215,-0.9765625,-2.6092529296875,-1.8768310546875
4.989999900000001,8.681375503540039,-1.0845733880996704,-4.477157115936279,-0.7171630859375,0.30517578125,-2.5177001953125
5.0099999,8.65743350982666,-1.161187767982483,-4.572925090789795,-1.495361328125,2.1820068359375,-3.7384033203125
5.029999900000001,8.635885238647461,-1.216254472732544,-4.654327869415283,-0.91552734375,4.425048828125,-5.1422119140625
5.0499999,8.619126319885254,-1.2306196689605713,-4.747702121734619,-1.0986328125,4.7760009765625,-5.645751953125
5.069999900000001,8.609549522399902,-1.2018892765045166,-4.788403511047363,-1.5869140625,6.8511962890625,-6.0577392578125
5.0899999000000005,8.611943244934082,-1.161187767982483,-4.802768707275391,-0.0152587890625,9.09423828125,-6.0272216796875
5.109999900000001,8.628703117370605,-1.113303780555725,-4.766855716705322,1.46484375,9.002685546875,-6.3323974609375
5.1299999000000005,8.667010307312012,-1.0534487962722778,-4.656722068786621,-1.0223388671875,10.31494140625,-7.01904296875
5.1499999,8.71728801727295,-1.0462661981582642,-4.496310710906982,-2.25830078125,11.3372802734375,-5.035400390625
5.1699999000000005,8.767566680908203,-1.0127472877502441,-4.309563159942627,-1.6632080078125,8.697509765625,-5.9814453125
5.1899999,8.81784439086914,-1.0055646896362305,-4.1180267333984375,-1.556396484375,6.6070556640625,-7.3394775390625
5.209999900000001,8.858546257019043,-0.9720458984375,-3.97916316986084,-3.8909912109375,5.9814453125,-6.7596435546875
5.2299999,8.875306129455566,-0.8930372595787048,-3.8522706031799316,-5.3558349609375,7.1868896484375,-5.8441162109375
5.249999900000001,8.877699851989746,-0.7972691655158997,-3.7828385829925537,-3.3111572265625,4.1656494140625,-3.0517578125
5.2699999,8.851364135742188,-0.6967126727104187,-3.7205893993377686,-1.556396484375,-0.06103515625,-2.0599365234375
5.289999900000001,8.796297073364258,-0.6272808313369751,-3.6559460163116455,-0.1678466796875,0.9765625,-1.3275146484375
5.3099999,8.731653213500977,-0.6392518281936646,-3.5913026332855225,3.082275390625,-2.2430419921875,0.701904296875
5.329999900000001,8.652645111083984,-0.7038952708244324,-3.5027170181274414,2.8533935546875,-6.0882568359375,0.1068115234375
5.3499999,8.592789649963379,-0.8140285611152649,-3.4141316413879395,-0.9307861328125,-8.575439453125,-2.4871826171875
5.369999900000001,8.554482460021973,-0.8882488012313843,-3.3423056602478027,-5.5084228515625,-9.46044921875,-5.1422119140625
5.3899999,8.544905662536621,-0.8954314589500427,-3.3518824577331543,-5.9661865234375,-13.0615234375,-4.730224609375
5.409999900000001,8.556877136230469,-0.8044517636299133,-3.4189200401306152,-5.55419921875,-14.5721435546875,-2.9754638671875
5.4299999,8.578424453735352,-0.6703764796257019,-3.579331636428833,-5.37109375,-16.0980224609375,-1.6632080078125
5.449999900000001,8.60236644744873,-0.5434837937355042,-3.821146011352539,-5.767822265625,-17.9595947265625,-0.4425048828125
5.4699999,8.614337921142578,-0.44532153010368347,-4.055777549743652,-3.7994384765625,-15.7928466796875,-0.5035400390625
5.489999900000001,8.60236644744873,-0.4429273009300232,-4.355052947998047,0.3204345703125,-18.4173583984375,1.2359619140625
5.5099999,8.554482460021973,-0.5315127968788147,-4.616020679473877,4.7149658203125,-18.49365234375,1.64794921875
5.529999900000001,8.47547435760498,-0.6823474764823914,-4.845864295959473,4.5928955078125,-12.9241943359375,-1.5411376953125
5.5499999,8.374917984008789,-0.8954314589500427,-5.027823448181152,4.0130615234375,-10.4217529296875,-3.7384033203125
5.569999900000001,8.279149055480957,-1.1061211824417114,-5.104437828063965,3.72314453125,-8.9874267578125,-5.2032470703125
5.5899999000000005,8.202534675598145,-1.2449848651885986,-5.097255229949951,0.2593994140625,-7.0343017578125,-9.735107421875
5.609999900000001,8.149862289428711,-1.292868971824646,-5.054159641265869,1.6021728515625,-8.3160400390625,-13.5040283203125
5.6299999000000005,8.13789176940918,-1.256955862045288,-4.98472785949707,4.150390625,-6.9580078125,-11.627197265625
5.6499999,8.161833763122559,-1.137245774269104,-4.900930881500244,3.7384033203125,-5.0506591796875,-11.53564453125
5.6699999000000005,8.221688270568848,-1.0007762908935547,-4.845864295959473,1.46484375,-7.720947265625,-12.87841796875
5.6899999,8.305485725402832,-0.8643068075180054,-4.754884719848633,-0.42724609375,-8.0108642578125,-14.007568359375
5.709999900000001,8.367734909057617,-0.6967126727104187,-4.726154327392578,0.4119873046875,-9.918212890625,-13.4429931640625
5.7299999,8.398859977722168,-0.5578489899635315,-4.666299343109131,5.43212890625,-11.3525390625,-9.8114013671875
5.749999900000001,8.418013572692871,-0.49799394607543945,-4.620809078216553,10.498046875,-11.8560791015625,-4.7760009765625
5.7699999,8.42040729522705,-0.5147533416748047,-4.58968448638916,1.8768310546875,-15.4266357421875,-7.8887939453125
5.789999900000001,8.425195693969727,-0.5889736413955688,-4.587290287017822,-7.476806640625,-19.0582275390625,-13.0462646484375
5.8099999,8.449137687683105,-0.6200982332229614,-4.649539470672607,-5.43212890625,-19.3328857421875,-13.61083984375
5.829999900000001,8.456320762634277,-0.5506663918495178,-4.790797710418701,-4.913330078125,-18.2037353515625,-11.8865966796875
5.8499999,8.461109161376953,-0.40940847992897034,-4.95120906829834,-4.5166015625,-17.181396484375,-8.30078125
5.869999900000001,8.473079681396484,-0.24660277366638184,-5.137956619262695,-1.0986328125,-17.0440673828125,-7.0343017578125
5.8899999,8.473079681396484,-0.14604631066322327,-5.307945251464844,0.457763671875,-16.9830322265625,-6.0272216796875
5.909999900000001,8.465897560119629,-0.06464344263076782,-5.47075080871582,-1.4190673828125,-15.899658203125,-6.6986083984375
5.9299999,8.453926086425781,-0.035913024097681046,-5.626373767852783,-2.6702880859375,-15.2587890625,-5.767822265625
5.949999900000001,8.425195693969727,-0.011971008032560349,-5.750872611999512,-4.6844482421875,-12.725830078125,-3.448486328125
5.9699999,8.382100105285645,0.002394201699644327,-5.825092792510986,-3.0670166015625,-10.43701171875,-3.60107421875
5.989999900000001,8.322244644165039,-0.009576806798577309,-5.841852188110352,-1.068115234375,-11.871337890625,-3.5247802734375
6.0099999,8.267178535461426,-0.023942016065120697,-5.791574001312256,-2.0294189453125,-12.3138427734375,-3.5400390625
6.029999900000001,8.20732307434082,-0.038307227194309235,-5.748478412628174,-5.2032470703125,-13.3209228515625,-3.5858154296875
6.0499999,8.149862289428711,-0.021547814831137657,-5.7125654220581055,-3.173828125,-13.214111328125,-3.326416015625
6.069999900000001,8.090007781982422,0.004788403399288654,-5.698200225830078,1.556396484375,-12.939453125,-2.349853515625
6.0899999000000005,8.027758598327637,0.014365210197865963,-5.705382823944092,3.2196044921875,-13.824462890625,-0.1068115234375
6.109999900000001,7.9631147384643555,-0.014365210197865963,-5.705382823944092,1.373291015625,-14.7857666015625,-0.4119873046875
6.1299999000000005,7.910442352294922,-0.07422025501728058,-5.70777702331543,-0.3662109375,-13.580322265625,-1.89208984375
6.149999900000001,7.850587368011475,-0.14604631066322327,-5.705382823944092,-1.617431640625,-14.251708984375,-2.25830078125
6.1699999000000005,7.805097579956055,-0.20111294090747833,-5.681440830230713,-1.8157958984375,-14.3585205078125,-0.8392333984375
6.1899999,7.735665798187256,-0.22026655077934265,-5.604825973510742,-0.213623046875,-17.547607421875,-2.349853515625
6.209999900000001,7.709329605102539,-0.22026655077934265,-5.609614372253418,-0.4730224609375,-18.2952880859375,-1.0833740234375
6.2299999,7.659051418304443,-0.19871874153614044,-5.65031623840332,-0.244140625,-18.096923828125,-1.373291015625
6.249999900000001,7.577648162841797,-0.181959331035614,-5.719748020172119,0.8392333984375,-18.096923828125,-3.3721923828125
6.2699999,7.47230339050293,-0.19153612852096558,-5.789179801940918,1.46484375,-19.317626953125,-1.5869140625
6.289999900000001,7.362170219421387,-0.2322375625371933,-5.822698593139648,1.8768310546875,-20.3094482421875,0.0762939453125
6.3099999,7.273584842681885,-0.2968810200691223,-5.851428985595703,-1.007080078125,-21.087646484375,-2.74658203125
6.329999900000001,7.218518257141113,-0.35434186458587646,-5.863399982452393,-2.2125244140625,-21.3165283203125,-7.0343017578125
6.3499999,7.1921820640563965,-0.37828385829925537,-5.899312973022461,-1.46484375,-21.6064453125,-6.4544677734375
6.369999900000001,7.182605266571045,-0.31603461503982544,-5.949591159820557,0.274658203125,-22.5067138671875,-5.462646484375
6.3899999,7.175422668457031,-0.23942017555236816,-6.030993938446045,0.4730224609375,-24.1851806640625,-4.8370361328125
6.409999900000001,7.16584587097168,-0.16998831927776337,-6.133944988250732,-0.42724609375,-24.1851806640625,-3.875732421875
6.4299999,7.1251444816589355,-0.12928688526153564,-6.244078159332275,-0.06103515625,-23.712158203125,-6.0272216796875
6.449999900000001,7.0772600173950195,-0.1173158809542656,-6.31829833984375,3.204345703125,-23.5595703125,-7.99560546875
6.4699999,7.015010833740234,-0.11971008777618408,-6.378153324127197,5.157470703125,-26.763916015625,-7.8125
6.489999900000001,6.955155849456787,-0.10055647045373917,-6.418854713439941,3.1280517578125,-29.1595458984375,-7.080078125
6.5099999,6.885724067687988,-0.019153613597154617,-6.461950302124023,-1.4190673828125,-28.0609130859375,-8.575439453125
6.529999900000001,6.801927089691162,0.05506663769483566,-6.473921298980713,2.777099609375,-27.1148681640625,-6.5155029296875
6.5499999,6.703764915466309,0.15562310814857483,-6.433219909667969,6.7596435546875,-31.0516357421875,-3.0670166015625
6.569999900000001,6.584054470062256,0.16519992053508759,-6.390124320983887,7.659912109375,-40.10009765625,-2.86865234375
6.5899999000000005,6.469132900238037,0.0933738648891449,-6.339846134185791,3.2196044921875,-40.4510498046875,-2.288818359375
6.609999900000001,6.337451934814453,-0.002394201699644327,-6.3518171310424805,-0.1678466796875,-38.1622314453125,-5.9051513671875
6.6299999000000005,6.236895561218262,-0.16998831927776337,-6.411672115325928,-3.5247802734375,-41.8548583984375,-6.439208984375
6.649999900000001,6.150704383850098,-0.26336219906806946,-6.514622688293457,-10.040283203125,-49.5147705078125,-14.2822265625
6.6699999000000005,6.110002517700195,-0.3280056416988373,-6.672640323638916,-13.5345458984375,-50.8880615234375,-20.477294921875
6.6899999,6.1052141189575195,-0.2992752194404602,-6.921637058258057,-19.5770263671875,-45.95947265625,-22.0489501953125
6.709999900000001,6.1052141189575195,-0.12928688526153564,-7.285555839538574,-24.2462158203125,-47.4700927734375,-23.2391357421875
6.7299999,6.081272125244141,0.20111294090747833,-7.673416614532471,-18.890380859375,-45.379638671875,-22.3541259765625
6.749999900000001,6.026205539703369,0.5650315880775452,-8.075642585754395,-7.0037841796875,-41.3360595703125,-13.61083984375
6.7699999,5.920860767364502,0.8690952062606812,-8.42040729522705,-3.1280517578125,-41.6259765625,-2.6397705078125
6.789999900000001,5.767632007598877,1.0103530883789062,-8.664615631103516,-3.4637451171875,-39.3524169921875,-1.9073486328125
6.8099999,5.585672378540039,0.9959878921508789,-8.841787338256836,-2.166748046875,-39.154052734375,-6.2713623046875
6.829999900000001,5.382165431976318,0.8403648138046265,-8.932766914367676,0.030517578125,-36.56005859375,-4.608154296875
6.8499999,5.173870086669922,0.689530074596405,-8.901641845703125,-1.5716552734375,-30.3955078125,-2.86865234375
6.869999900000001,4.994304656982422,0.5219359993934631,-8.762778282165527,-2.044677734375,-29.3731689453125,-4.08935546875
6.8899999,4.833893299102783,0.40940847992897034,-8.592789649963379,-0.8392333984375,-34.6832275390625,-6.134033203125
6.909999900000001,4.699818134307861,0.363918662071228,-8.372523307800293,-3.8604736328125,-33.3404541015625,-7.62939453125
6.9299999,4.596867084503174,0.38307225704193115,-8.202534675598145,-3.3721923828125,-31.158447265625,-6.805419921875
6.949999900000001,4.5394062995910645,0.44532153010368347,-8.164227485656738,-0.3509521484375,-37.5213623046875,-6.2408447265625
6.9699999,4.5154643058776855,0.5434837937355042,-8.214506149291992,-1.6937255859375,-37.872314453125,-7.3699951171875
6.989999900000001,4.503493309020996,0.6512228846549988,-8.401253700256348,-7.7972412109375,-32.6690673828125,-7.598876953125
7.0099999,4.479551315307617,0.8020575642585754,-8.686163902282715,-7.0648193359375,-31.3720703125,-6.7596435546875
7.029999900000001,4.431667327880859,0.9600749015808105,-8.96149730682373,-3.2806396484375,-30.670166015625,-4.8980712890625
7.0499999,4.357447147369385,1.0582371950149536,-9.205705642700195,-1.40380859375,-29.35791015625,-0.3509521484375
7.069999900000001,4.247313976287842,1.113303780555725,-9.373299598693848,-3.509521484375,-28.961181640625,-1.3885498046875
7.0899999000000005,4.1156325340271,1.0654197931289673,-9.464279174804688,-0.42724609375,-27.8778076171875,-1.861572265625
7.109999900000001,3.955221176147461,0.9169792532920837,-9.512163162231445,5.79833984375,-27.4810791015625,0.3509521484375
7.1299999000000005,3.7900211811065674,0.7805097699165344,-9.464279174804688,4.1961669921875,-25.848388671875,-4.119873046875
7.149999900000001,3.6511576175689697,0.6057330369949341,-9.41639518737793,-0.579833984375,-27.6947021484375,-5.9814453125
7.1699999000000005,3.5218706130981445,0.5339069962501526,-9.332598686218262,-1.5869140625,-29.0679931640625,-6.7901611328125
7.1899999,3.4117374420166016,0.5482721924781799,-9.299078941345215,1.007080078125,-28.289794921875,-7.080078125
7.209999900000001,3.31118106842041,0.6320692300796509,-9.220070838928223,3.509521484375,-24.993896484375,-5.7525634765625
7.2299999,3.224989652633667,0.706289529800415,-9.133879661560059,7.781982421875,-26.824951171875,-4.1351318359375
7.249999900000001,3.155557870864868,0.7445967197418213,-9.006986618041992,7.8887939453125,-31.31103515625,-4.5928955078125
7.2699999,3.090914487838745,0.6919242739677429,-8.911218643188477,2.62451171875,-31.9366455078125,-5.096435546875
7.289999900000001,3.002328872680664,0.6560112833976746,-8.841787338256836,-0.5035400390625,-29.571533203125,-8.880615234375
7.3099999,2.9065608978271484,0.6033388376235962,-8.779537200927734,3.326416015625,-29.4342041015625,-8.453369140625
7.329999900000001,2.7940332889556885,0.6224924325942993,-8.724471092224121,4.3792724609375,-36.6363525390625,-7.659912109375
7.3499999,2.691082715988159,0.6177040338516235,-8.635885238647461,1.0986328125,-42.0684814453125,-5.0506591796875
7.369999900000001,2.580949544906616,0.6392518281936646,-8.60236644744873,-3.1585693359375,-43.5943603515625,-6.683349609375
7.3899999,2.473210334777832,0.6919242739677429,-8.674192428588867,-2.8076171875,-47.3175048828125,-9.9639892578125
7.409999900000001,2.3702597618103027,0.7565677165985107,-8.801085472106934,-4.6539306640625,-44.2962646484375,-5.6610107421875
7.4299999,2.2840683460235596,0.871489405632019,-9.006986618041992,-9.7198486328125,-44.0216064453125,-2.01416015625
7.449999900000001,2.205059766769409,0.9696516990661621,-9.251194953918457,-8.636474609375,-45.7763671875,-3.1890869140625
7.4699999,2.1380221843719482,1.0271124839782715,-9.485827445983887,-7.598876953125,-44.097900390625,-4.5166015625
7.489999900000001,2.0374655723571777,1.0678139925003052,-9.773131370544434,-8.7738037109375,-43.39599609375,-4.7607421875
7.5099999,1.920149803161621,1.1228805780410767,-10.06043529510498,-7.9345703125,-41.2750244140625,-4.9591064453125
7.529999900000001,1.7932571172714233,1.2018892765045166,-10.335768699645996,-6.6680908203125,-36.1175537109375,-3.47900390625
7.5499999,1.6400281190872192,1.3072341680526733,-10.560823440551758,-2.6397705078125,-33.050537109375,-1.52587890625
7.569999900000001,1.4772224426269531,1.3503297567367554,-10.673351287841797,0.732421875,-31.25,2.0904541015625
7.5899999000000005,1.3215993642807007,1.2665326595306396,-10.771512985229492,2.99072265625,-34.7137451171875,3.4027099609375
7.609999900000001,1.158793568611145,1.070208191871643,-10.886435508728027,-1.0528564453125,-32.1807861328125,2.288818359375
7.6299999000000005,1.01753568649292,0.8547300100326538,-10.893617630004883,-23.3306884765625,-24.0631103515625,-8.5601806640625
7.649999900000001,0.8930372595787048,0.7541735172271729,-11.008539199829102,-23.62060546875,-27.4200439453125,-21.7132568359375
7.6699999000000005,0.7829039692878723,0.7565677165985107,-10.924742698669434,-6.927490234375,-24.627685546875,-4.9285888671875
7.6899999,0.6823474764823914,0.9074024558067322,-10.836156845092773,-8.72802734375,-23.4222412109375,-9.9639892578125
7.709999900000001,0.6153098344802856,0.9983820915222168,-10.687716484069824,-2.8228759765625,-23.284912109375,-10.1776123046875
7.7299999,0.5482721924781799,1.0342950820922852,-10.529699325561523,-2.044677734375,-24.0631103515625,-11.5509033203125
7.749999900000001,0.4812345504760742,1.0223240852355957,-10.438719749450684,-2.13623046875,-26.397705078125,-17.791748046875
7.7699999,0.4118026793003082,1.0438719987869263,-10.402806282043457,-1.983642578125,-21.087646484375,-20.0042724609375
7.789999900000001,0.35434186458587646,1.1085153818130493,-10.378864288330078,-4.547119140625,-11.871337890625,-14.6026611328125
7.8099999,0.304063618183136,1.2497732639312744,-10.393229484558105,-2.5787353515625,-16.754150390625,-12.451171875
7.829999900000001,0.26815059781074524,1.3886369466781616,-10.304644584655762,-1.2664794921875,-18.280029296875,-11.444091796875
7.8499999,0.23942017555236816,1.482010841369629,-10.216058731079102,-2.3040771484375,-19.4244384765625,-9.82666015625
7.869999900000001,0.20111294090747833,1.5490485429763794,-10.139444351196289,-5.2032470703125,-20.93505859375,-9.0484619140625
7.8899999,0.1628057211637497,1.5610195398330688,-10.067618370056152,-7.720947265625,-17.120361328125,-5.6610107421875
7.909999900000001,0.10773907601833344,1.577778935432434,-10.067618370056152,-5.67626953125,-17.974853515625,-4.6844482421875
7.9299999,0.043095629662275314,1.5658079385757446,-10.036493301391602,-3.7078857421875,-16.510009765625,-4.058837890625
7.949999900000001,-0.019153613597154617,1.5179238319396973,-10.014945983886719,1.190185546875,-15.350341796875,-1.8768310546875
7.9699999,-0.12210428714752197,1.5107412338256836,-10.012551307678223,3.082275390625,-19.8974609375,-3.4942626953125
7.989999900000001,-0.19632454216480255,1.455674648284912,-9.99100399017334,2.9144287109375,-16.90673828125,-1.0528564453125
8.0099999,-0.2992752194404602,1.4317326545715332,-10.043676376342773,3.8909912109375,-15.7928466796875,0.396728515625
8.0299999,-0.3926490843296051,1.403002142906189,-10.091560363769531,3.96728515625,-13.458251953125,-0.152587890625
8.049999900000001,-0.4668693244457245,1.3527239561080933,-10.160991668701172,3.0517578125,-10.9405517578125,1.28173828125
8.069999900000001,-0.5291185975074768,1.290474772453308,-10.192116737365723,2.044677734375,-8.697509765625,0.48828125
8.0899999,-0.5674257874488831,1.2258312702178955,-10.189722061157227,0.213623046875,-7.6751708984375,-0.946044921875
8.1099999,-0.5985504388809204,1.2018892765045166,-10.165780067443848,0.0152587890625,-8.3465576171875,-3.936767578125
8.129999900000001,-0.6224924325942993,1.2282254695892334,-10.113107681274414,1.2054443359375,-6.439208984375,-2.960205078125
8.149999900000001,-0.646434485912323,1.290474772453308,-10.070012092590332,2.5787353515625,-5.096435546875,0.091552734375
8.1699999,-0.6703764796257019,1.3551181554794312,-10.029311180114746,2.74658203125,-4.39453125,0.762939453125
8.1899999,-0.6991068720817566,1.3646949529647827,-9.981427192687988,1.3885498046875,-2.6092529296875,0.2593994140625
8.2099999,-0.7158663272857666,1.3287819623947144,-9.926360130310059,-0.0762939453125,-1.6937255859375,-0.762939453125
8.229999900000001,-0.7326257228851318,1.2880805730819702,-9.8784761428833,-0.54931640625,-2.5634765625,-2.1209716796875
8.2499999,-0.7398083209991455,1.259350061416626,-9.825803756713867,-0.79345703125,-1.6632080078125,-1.8463134765625
8.2699999,-0.7350199222564697,1.2545616626739502,-9.780313491821289,-0.335693359375,-0.8087158203125,-0.42724609375
8.2899999,-0.7350199222564697,1.2689268589019775,-9.734824180603027,-0.335693359375,-0.8087158203125,-0.3662109375
8.309999900000001,-0.7374141216278076,1.2737152576446533,-9.701305389404297,-0.54931640625,-1.8310546875,-0.42724609375
8.3299999,-0.7493851184844971,1.259350061416626,-9.651026725769043,-0.3204345703125,-1.2664794921875,-0.1220703125
8.3499999,-0.7613561153411865,1.216254472732544,-9.605537414550781,-1.0223388671875,-1.2359619140625,-0.4119873046875
8.3699999,-0.7661445140838623,1.1779472827911377,-9.586383819580078,-2.50244140625,-3.753662109375,-2.1514892578125
8.389999900000001,-0.7661445140838623,1.1851298809051514,-9.59596061706543,-3.7994384765625,-4.241943359375,-3.8299560546875
8.4099999,-0.7637503147125244,1.237802267074585,-9.646238327026367,-2.44140625,-2.7008056640625,-1.2664794921875
8.4299999,-0.7661445140838623,1.3072341680526733,-9.713275909423828,-0.42724609375,-2.197265625,2.4566650390625
8.4499999,-0.7852981686592102,1.3503297567367554,-9.761159896850586,-0.2593994140625,-2.410888671875,2.410888671875
8.469999900000001,-0.8068459630012512,1.3311761617660522,-9.794678688049316,0.091552734375,-3.5247802734375,0.3814697265625
8.4899999,-0.8331822156906128,1.2665326595306396,-9.813833236694336,-0.18310546875,-2.6092529296875,-0.2593994140625
8.5099999,-0.8619126081466675,1.2234370708465576,-9.84256362915039,-0.091552734375,-0.3204345703125,-0.9002685546875
8.5299999,-0.8810662031173706,1.1803414821624756,-9.864110946655273,1.5106201171875,1.129150390625,0.701904296875
8.549999900000001,-0.8978256583213806,1.1779472827911377,-9.864110946655273,0.5035400390625,0.0762939453125,-0.457763671875
8.569999900000001,-0.9026140570640564,1.1683704853057861,-9.832986831665039,-0.274658203125,0.244140625,-0.946044921875
8.5899999,-0.9050082564353943,1.192312479019165,-9.81143856048584,0.0152587890625,-0.8544921875,-1.678466796875
8.6099999,-0.9002198576927185,1.2186486721038818,-9.765948295593262,-0.4119873046875,0.79345703125,-0.823974609375
8.629999900000001,-0.8954314589500427,1.2497732639312744,-9.746794700622559,0.3662109375,1.1444091796875,0.457763671875
8.649999900000001,-0.8906430602073669,1.2689268589019775,-9.734824180603027,1.3275146484375,-0.4425048828125,-0.42724609375
8.6699999,-0.8906430602073669,1.2617442607879639,-9.713275909423828,0.244140625,0.5035400390625,-0.79345703125
8.6899999,-0.8930372595787048,1.2473790645599365,-9.703699111938477,-0.152587890625,0.2288818359375,-0.9002685546875
8.709999900000001,-0.8906430602073669,1.2258312702178955,-9.694122314453125,-0.0152587890625,0.335693359375,-1.03759765625
8.729999900000001,-0.8810662031173706,1.2258312702178955,-9.691728591918945,0.274658203125,0.42724609375,-1.861572265625
8.7499999,-0.871489405632019,1.2521674633026123,-9.691728591918945,0.6561279296875,0.6866455078125,-2.105712890625
8.7699999,-0.8643068075180054,1.292868971824646,-9.701305389404297,1.2054443359375,0.1678466796875,-0.640869140625
8.7899999,-0.871489405632019,1.3263877630233765,-9.694122314453125,0.4425048828125,0.396728515625,0.8544921875
8.809999900000001,-0.8810662031173706,1.3263877630233765,-9.694122314453125,0.3509521484375,0.1983642578125,0.6256103515625
8.8299999,-0.8978256583213806,1.3048399686813354,-9.68694019317627,0.6103515625,-0.1068115234375,-1.1138916015625
8.8499999,-0.9002198576927185,1.2713210582733154,-9.677363395690918,0.1983642578125,0.1983642578125,-1.7242431640625
8.8699999,-0.8978256583213806,1.2665326595306396,-9.684545516967773,0.579833984375,-0.2593994140625,-1.190185546875
8.889999900000001,-0.8906430602073669,1.290474772453308,-9.694122314453125,0.42724609375,-0.5645751953125,-0.79345703125
8.9099999,-0.8882488012313843,1.3311761617660522,-9.706093788146973,0.3814697265625,0.5035400390625,0.48828125
8.9299999,-0.8906430602073669,1.3503297567367554,-9.710882186889648,0.9002685546875,0.5035400390625,1.251220703125
8.9499999,-0.9002198576927185,1.338358759880066,-9.710882186889648,0.946044921875,-0.4730224609375,1.0528564453125
8.969999900000001,-0.912190854549408,1.3072341680526733,-9.68933391571045,0.1068115234375,-0.1983642578125,-0.518798828125
8.9899999,-0.9193734526634216,1.2617442607879639,-9.677363395690918,-0.1220703125,-0.0152587890625,-0.3509521484375
9.0099999,-0.9289502501487732,1.2617442607879639,-9.66299819946289,-0.823974609375,-0.152587890625,-0.54931640625
9.0299999,-0.933738648891449,1.2665326595306396,-9.646238327026367,0.0152587890625,0.06103515625,0.7476806640625
9.049999900000001,-0.9409212470054626,1.2665326595306396,-9.634267807006836,1.0986328125,-0.54931640625,2.1820068359375
9.069999900000001,-0.9457096457481384,1.259350061416626,-9.627084732055664,-0.2593994140625,-1.4190673828125,0.5950927734375
9.0899999,-0.950498104095459,1.235408067703247,-9.62947940826416,-1.7242431640625,-0.9765625,-0.8697509765625
9.1099999,-0.950498104095459,1.2210428714752197,-9.655815124511719,-1.495361328125,-0.8544921875,0.030517578125
9.129999900000001,-0.9528923034667969,1.2186486721038818,-9.677363395690918,-0.3814697265625,-0.244140625,0.3814697265625
9.149999900000001,-0.9672574996948242,1.2401964664459229,-9.694122314453125,1.251220703125,1.1138916015625,-0.213623046875
9.1699999,-0.9672574996948242,1.213860273361206,-9.6989107131958,1.9989013671875,0.5645751953125,1.4495849609375
9.1899999,-0.9792284965515137,1.216254472732544,-9.68694019317627,0.8544921875,-1.03759765625,-0.7781982421875
9.209999900000001,-0.9768342971801758,1.192312479019165,-9.679757118225098,0.1068115234375,-1.3275146484375,0.1678466796875
9.229999900000001,-0.9768342971801758,1.1875240802764893,-9.667786598205566,0.640869140625,-0.42724609375,-0.06103515625
9.2499999,-0.9744400978088379,1.1875240802764893,-9.667786598205566,0.8544921875,-1.64794921875,0.640869140625
9.2699999,-0.9768342971801758,1.1971008777618408,-9.672574996948242,0.5645751953125,-2.3651123046875,-1.15966796875
9.2899999,-0.9792284965515137,1.1971008777618408,-9.68694019317627,0.5645751953125,-1.556396484375,0.18310546875
9.309999900000001,-0.9840168952941895,1.1994950771331787,-9.727641105651855,-0.18310546875,-1.4495849609375,0.1983642578125
9.3299999,-0.9911994934082031,1.213860273361206,-9.768342971801758,-0.701904296875,-1.068115234375,-0.1373291015625
9.3499999,-1.0007762908935547,1.1994950771331787,-9.804255485534668,-0.152587890625,0.1220703125,0.9307861328125
9.3699999,-1.0127472877502441,1.1899182796478271,-9.825803756713867,0.42724609375,0.213623046875,0.2593994140625
9.389999900000001,-1.0271124839782715,1.1635819673538208,-9.821015357971191,-0.1678466796875,0.3814697265625,-1.220703125
9.4099999,-1.036689281463623,1.1492167711257935,-9.792284965515137,-0.7171630859375,0.7476806640625,-1.3275146484375
9.4299999,-1.036689281463623,1.1516109704971313,-9.749189376831055,-1.068115234375,0.2593994140625,-0.7781982421875
9.4499999,-1.039083480834961,1.1755530834197998,-9.713275909423828,-1.6326904296875,-0.6103515625,-0.2593994140625
9.469999900000001,-1.0438719987869263,1.1971008777618408,-9.691728591918945,-1.2359619140625,-1.1138916015625,-0.213623046875
9.4899999,-1.0582371950149536,1.194706678390503,-9.68694019317627,-0.54931640625,0,0.1220703125
9.5099999,-1.0749965906143188,1.1635819673538208,-9.691728591918945,0.030517578125,0.1678466796875,-0.7171630859375
9.5299999,-1.0965443849563599,1.1420341730117798,-9.706093788146973,-0.1068115234375,-0.701904296875,-2.899169921875
9.549999900000001,-1.1061211824417114,1.1228805780410767,-9.734824180603027,0.67138671875,-0.8087158203125,-2.9449462890625
9.569999900000001,-1.1061211824417114,1.137245774269104,-9.75637149810791,0.79345703125,1.4495849609375,-1.190185546875
9.5899999,-1.0965443849563599,1.170764684677124,-9.77791976928711,1.1138916015625,1.708984375,-1.251220703125
9.6099999,-1.0845733880996704,1.2114660739898682,-9.773131370544434,1.739501953125,1.007080078125,-1.983642578125
9.629999900000001,-1.0654197931289673,1.2330138683319092,-9.730035781860352,0.1068115234375,1.373291015625,-0.762939453125
9.649999900000001,-1.0534487962722778,1.259350061416626,-9.677363395690918,-0.06103515625,0.8697509765625,-0.9307861328125
9.6699999,-1.039083480834961,1.2832920551300049,-9.63187313079834,0.91552734375,-0.5035400390625,-1.40380859375
9.6899999,-1.0295066833496094,1.3048399686813354,-9.567230224609375,-0.244140625,0.8697509765625,-0.6103515625
9.709999900000001,-1.0199298858642578,1.3072341680526733,-9.531316757202148,0.3814697265625,-0.3509521484375,1.2664794921875
9.729999900000001,-1.0247182846069336,1.3000515699386597,-9.50498104095459,0.1220703125,-1.9683837890625,0.3204345703125
9.7499999,-1.036689281463623,1.2856862545013428,-9.514557838439941,-0.5950927734375,-2.2735595703125,-0.8392333984375
9.7699999,-1.0534487962722778,1.259350061416626,-9.550470352172852,-0.79345703125,-1.0528564453125,0.457763671875
9.7899999,-1.0797849893569946,1.235408067703247,-9.610325813293457,-0.30517578125,-0.7781982421875,1.220703125
9.809999900000001,-1.1037269830703735,1.2234370708465576,-9.667786598205566,-0.457763671875,-1.52587890625,-0.79345703125
9.8299999,-1.1252747774124146,1.2090718746185303,-9.696516990661621,-1.0528564453125,-0.1220703125,-1.2664794921875
9.8499999,-1.1348515748977661,1.2234370708465576,-9.718064308166504,-0.5035400390625,-1.0833740234375,-0.5340576171875
9.8699999,-1.139639973640442,1.2665326595306396,-9.713275909423828,-0.5645751953125,-1.2969970703125,0.213623046875
9.889999900000001,-1.1300631761550903,1.3000515699386597,-9.710882186889648,0.1678466796875,-1.434326171875,1.495361328125
9.9099999,-1.1228805780410767,1.3072341680526733,-9.725247383117676,1.2664794921875,-1.8768310546875,1.708984375
9.9299999,-1.1204863786697388,1.2880805730819702,-9.751583099365234,0.4730224609375,-1.068115234375,0.5035400390625
9.9499999,-1.1252747774124146,1.2425906658172607,-9.804255485534668,0.9765625,-0.823974609375,-0.0457763671875
9.969999900000001,-1.1420341730117798,1.2186486721038818,-9.837775230407715,1.6021728515625,1.89208984375,-0.5340576171875
9.9899999,-1.1516109704971313,1.1659762859344482,-9.840168952941895,4.425048828125,4.425048828125,1.617431640625
10.0099999,-1.1659762859344482,1.1635819673538208,-9.816226959228516,2.25830078125,-0.0762939453125,-0.5340576171875
10.0299999,-1.1635819673538208,1.1492167711257935,-9.746794700622559,-0.67138671875,0.274658203125,-1.0528564453125
10.049999900000001,-1.1635819673538208,1.1635819673538208,-9.694122314453125,-0.06103515625,0.0457763671875,0.579833984375
10.069999900000001,-1.1635819673538208,1.1755530834197998,-9.646238327026367,1.007080078125,0.4119873046875,1.190185546875
10.0899999,-1.170764684677124,1.1635819673538208,-9.610325813293457,-0.06103515625,0.701904296875,-0.030517578125
10.1099999,-1.1779472827911377,1.115697979927063,-9.569623947143555,-0.640869140625,0.4425048828125,-0.6256103515625
10.129999900000001,-1.1851298809051514,1.070208191871643,-9.528923034667969,-1.9378662109375,-1.2054443359375,-2.38037109375
10.149999900000001,-1.1875240802764893,1.0773907899856567,-9.502586364746094,-2.8076171875,-2.8533935546875,-2.9296875
10.1699999,-1.1803414821624756,1.113303780555725,-9.493009567260742,-2.4871826171875,-1.7547607421875,-0.30517578125
10.1899999,-1.173158884048462,1.1563993692398071,-9.528923034667969,-1.1444091796875,-2.593994140625,1.7852783203125
10.209999900000001,-1.170764684677124,1.1827356815338135,-9.600749015808105,-0.3662109375,-3.5552978515625,-0.457763671875
10.229999900000001,-1.173158884048462,1.1563993692398071,-9.68694019317627,-0.4730224609375,-1.861572265625,-1.8463134765625
10.2499999,-1.1779472827911377,1.1228805780410767,-9.797073364257812,-0.946044921875,-1.3580322265625,-1.861572265625
10.2699999,-1.1851298809051514,1.1228805780410767,-9.880870819091797,-1.2664794921875,-1.068115234375,-2.44140625
10.2899999,-1.1755530834197998,1.1300631761550903,-9.971850395202637,0.5950927734375,-1.2359619140625,-1.6326904296875
10.309999900000001,-1.1492167711257935,1.1563993692398071,-10.017339706420898,0.7476806640625,1.190185546875,-1.312255859375
10.3299999,-1.113303780555725,1.1635819673538208,-10.101137161254883,1.0223388671875,0.4425048828125,-1.739501953125
10.3499999,-1.0773907899856567,1.1659762859344482,-10.160991668701172,1.953125,1.8310546875,-3.2501220703125
10.3699999,-1.0606313943862915,1.1827356815338135,-10.223240852355957,3.35693359375,3.41796875,-4.058837890625
10.389999900000001,-1.05105459690094,1.1827356815338135,-10.14902114868164,0.5035400390625,2.7313232421875,-1.2664794921875
10.4099999,-1.0654197931289673,1.2210428714752197,-10.038887977600098,-2.410888671875,-7.568359375,-1.007080078125
10.4299999,-1.0606313943862915,1.216254472732544,-9.732429504394531,-0.30517578125,-12.664794921875,0.2288818359375
10.4499999,-1.072602391242981,1.3024457693099976,-9.210494041442871,-7.1563720703125,-20.5535888671875,0.244140625
10.469999900000001,-1.1228805780410767,1.3407529592514038,-8.920795440673828,-5.218505859375,-58.2733154296875,3.7384033203125
10.4899999,-1.2114660739898682,1.37906014919281,-8.846575736999512,15.533447265625,-72.9217529296875,3.204345703125
10.5099999,-1.3120225667953491,1.3239935636520386,-8.884882926940918,5.8135986328125,-41.19873046875,1.89208984375
10.5299999,-1.3934253454208374,1.1659762859344482,-9.418789863586426,-4.5013427734375,-54.412841796875,-2.5787353515625
10.549999900000001,-1.4437036514282227,0.9744400978088379,-9.904812812805176,-3.662109375,-63.812255859375,-8.026123046875
10.569999900000001,-1.4460978507995605,0.8547300100326538,-10.42195987701416,-5.31005859375,-49.9114990234375,-18.6767578125
10.5899999,-1.5753847360610962,1.0055646896362305,-11.487380027770996,-11.29150390625,-63.8275146484375,-27.7862548828125
10.6099999,-1.8698714971542358,1.5442601442337036,-12.902353286743164,-25.1007080078125,-48.7060546875,-24.200439453125
10.629999900000001,-2.427720546722412,2.276885747909546,-14.745888710021973,-18.1427001953125,-7.171630859375,-1.068115234375
10.649999900000001,-3.1914708614349365,2.918531894683838,-16.601394653320312,8.056640625,24.932861328125,14.068603515625
10.6699999,-4.046200752258301,3.0334534645080566,-18.16720199584961,29.72412109375,38.1011962890625,15.93017578125
10.6899999,-4.831499099731445,2.691082715988159,-18.995595932006836,24.84130859375,71.9757080078125,4.2572021484375
10.709999900000001,-5.427655220031738,2.032677173614502,-19.177555084228516,1.495361328125,109.649658203125,-2.593994140625
10.729999900000001,-5.726930618286133,1.50355863571167,-18.756175994873047,-2.1820068359375,145.1568603515625,0.06103515625
10.7499999,-5.693411827087402,1.37906014919281,-17.657238006591797,-4.4403076171875,183.380126953125,-4.45556640625
10.7699999,-5.394136428833008,1.525106430053711,-16.189592361450195,-23.6053466796875,203.460693359375,-2.9449462890625
10.7899999,-4.831499099731445,1.8746598958969116,-14.39872932434082,-11.322021484375,197.44873046875,13.3056640625
10.809999900000001,-4.1611223220825195,2.2625205516815186,-12.854469299316406,5.8441162109375,183.28857421875,27.52685546875
10.8299999,-3.552995204925537,2.676717519760132,-11.638214111328125,10.009765625,174.4842529296875,32.6385498046875
10.8499999,-2.9328970909118652,3.045424461364746,-10.644620895385742,22.4761962890625,182.12890625,48.919677734375
10.8699999,-2.4444799423217773,3.2106244564056396,-10.17296314239502,44.3267822265625,151.4892578125,70.3277587890625
10.889999900000001,-2.0231003761291504,3.1052796840667725,-9.576807022094727,44.769287109375,143.768310546875,69.610595703125
10.9099999,-1.577778935432434,2.52109432220459,-9.227252960205078,44.5556640625,146.2860107421875,61.0809326171875
10.9299999,-1.1803414821624756,1.7908629179000854,-8.911218643188477,45.3338623046875,154.296875,42.48046875
10.9499999,-0.7709329724311829,1.0462661981582642,-8.554482460021973,40.1611328125,160.614013671875,38.8641357421875
10.969999900000001,-0.33997663855552673,0.3519476354122162,-8.075642585754395,39.642333984375,165.0390625,48.126220703125
10.9899999,0.12928688526153564,-0.22026655077934265,-7.445967197418213,34.11865234375,158.2183837890625,43.2586669921875
11.0099999,0.6512228846549988,-0.6991068720817566,-6.7061591148376465,19.9737548828125,147.4456787109375,20.111083984375
11.0299999,1.2401964664459229,-1.0127472877502441,-5.999869346618652,11.90185546875,147.1710205078125,13.5650634765625
11.049999900000001,1.8602946996688843,-1.0127472877502441,-5.473145008087158,10.284423828125,145.294189453125,21.087646484375
11.069999900000001,2.492363929748535,-0.8044517636299133,-5.066130638122559,15.6707763671875,150.3448486328125,35.3240966796875
11.0899999,3.112462282180786,-0.5674257874488831,-4.697423934936523,26.9012451171875,155.7159423828125,44.3267822265625
11.1099999,3.708618402481079,-0.4381389021873474,-4.316745758056641,30.0140380859375,152.3895263671875,47.2412109375
11.129999900000001,4.28322696685791,-0.5410895943641663,-3.8738183975219727,28.7017822265625,146.575927734375,49.9114990234375
11.149999900000001,4.831499099731445,-0.849941611289978,-3.3638534545898438,35.9039306640625,148.8189697265625,44.8760986328125
11.1699999,5.322310447692871,-1.2401964664459229,-2.9089550971984863,43.914794921875,133.85009765625,24.505615234375
11.1899999,5.719748020172119,-1.7717092037200928,-2.3750481605529785,46.142578125,122.2686767578125,19.287109375
11.209999900000001,6.04775333404541,-2.1763293743133545,-1.656787633895874,26.6571044921875,120.3460693359375,11.8255615234375
11.229999900000001,6.287173748016357,-2.535459518432617,-1.015141487121582,-0.8087158203125,91.4764404296875,6.378173828125
11.2499999,6.509834289550781,-2.691082715988159,-0.24660277366638184,-14.3280029296875,78.1402587890625,3.9215087890625
11.2699999,6.742072105407715,-2.715024709701538,0.3280056416988373,-26.1993408203125,70.281982421875,1.4801025390625
11.2899999,7.01979923248291,-2.63362193107605,0.7948749661445618,-29.84619140625,59.4329833984375,0.8392333984375
11.309999900000001,7.340622425079346,-2.4684219360351562,0.9720458984375,-28.1829833984375,44.5709228515625,-4.302978515625
11.3299999,7.680599212646484,-2.2026655673980713,0.9864110946655273,-23.5595703125,35.0799560546875,-12.4969482421875
11.3499999,8.04930591583252,-1.886630892753601,0.6943184733390808,-20.0042724609375,27.6336669921875,-12.8936767578125
11.3699999,8.403648376464844,-1.4293384552001953,0.18914192914962769,-23.6358642578125,17.0745849609375,-7.4920654296875
11.389999900000001,8.734047889709473,-1.0055646896362305,-0.363918662071228,-23.4222412109375,18.0206298828125,1.5411376953125
11.4099999,9.016563415527344,-0.6967126727104187,-0.9433154463768005,-10.1470947265625,12.4053955078125,8.23974609375
11.4299999,9.215282440185547,-0.6033388376235962,-1.4484920501708984,-1.983642578125,4.791259765625,5.5694580078125
11.4499999,9.334992408752441,-0.6919242739677429,-1.8507179021835327,-0.701904296875,4.669189453125,-0.2593994140625
11.469999900000001,9.3828763961792,-0.8643068075180054,-2.2457611560821533,-4.058837890625,0.1068115234375,-1.7242431640625
11.4899999,9.38048267364502,-0.9696516990661621,-2.580949544906616,-11.8560791015625,-0.6866455078125,1.556396484375
11.5099999,9.35654067993164,-0.9959878921508789,-2.9161376953125,-15.4876708984375,-1.03759765625,5.6610107421875
11.5299999,9.318233489990234,-1.015141487121582,-3.1316158771514893,-8.9263916015625,1.678466796875,8.4228515625
11.549999900000001,9.265560150146484,-1.1348515748977661,-3.2632968425750732,-2.6397705078125,3.3111572265625,9.1094970703125
11.569999900000001,9.2033109664917,-1.3431471586227417,-3.2824504375457764,-2.7923583984375,1.6632080078125,3.4637451171875
11.5899999,9.148244857788086,-1.5825673341751099,-3.24414324760437,-4.57763671875,1.52587890625,-1.6937255859375
11.6099999,9.107542991638184,-1.7094600200653076,-3.2082302570343018,-5.7220458984375,1.4190673828125,-2.8228759765625
11.629999900000001,9.100360870361328,-1.7094600200653076,-3.2321722507476807,-2.62451171875,1.77001953125,0.18310546875
11.649999900000001,9.117119789123535,-1.5969325304031372,-3.3063924312591553,0.030517578125,2.7313232421875,2.5634765625
11.6699999,9.148244857788086,-1.4963760375976562,-3.3638534545898438,-1.6326904296875,5.767822265625,3.23486328125
11.6899999,9.169792175292969,-1.4221558570861816,-3.397372245788574,-6.683349609375,4.4403076171875,2.01416015625
11.709999900000001,9.174580574035645,-1.41257905960083,-3.332728862762451,-8.6669921875,3.448486328125,1.068115234375
11.729999900000001,9.165003776550293,-1.4197616577148438,-3.2178070545196533,-7.4615478515625,2.227783203125,0.5340576171875
11.7499999,9.141061782836914,-1.4245500564575195,-3.0885202884674072,-7.26318359375,1.5869140625,0
11.7699999,9.10993766784668,-1.436521053314209,-3.004723072052002,-6.8359375,0.4730224609375,1.220703125
11.7899999,9.083600997924805,-1.4508862495422363,-2.980781078338623,-5.2642822265625,-0.6103515625,1.2969970703125
11.809999900000001,9.069235801696777,-1.436521053314209,-3.0166940689086914,-5.2642822265625,0.213623046875,-0.2288818359375
11.8299999,9.074024200439453,-1.4053963422775269,-3.1052796840667725,-4.9896240234375,-0.152587890625,-0.30517578125
11.8499999,9.100360870361328,-1.3551181554794312,-3.1962592601776123,-4.119873046875,-0.30517578125,2.532958984375
11.8699999,9.141061782836914,-1.314416766166687,-3.292027235031128,-3.570556640625,-1.0528564453125,3.143310546875
11.889999900000001,9.191340446472168,-1.2880805730819702,-3.3686418533325195,-5.096435546875,-1.8157958984375,1.739501953125
11.9099999,9.23682975769043,-1.2545616626739502,-3.4308910369873047,-5.2642822265625,-1.068115234375,0.9307861328125
11.9299999,9.26795482635498,-1.2066776752471924,-3.509899616241455,-2.4566650390625,-2.6092529296875,3.90625
11.9499999,9.277531623840332,-1.2066776752471924,-3.576937437057495,0.18310546875,-1.373291015625,8.1787109375
11.969999900000001,9.248801231384277,-1.2401964664459229,-3.643975019454956,-0.1373291015625,1.0833740234375,6.7138671875
11.9899999,9.196128845214844,-1.3670891523361206,-3.648763418197632,0.67138671875,3.0517578125,3.3416748046875
12.0099999,9.121908187866211,-1.5418659448623657,-3.584120035171509,1.4190673828125,3.5858154296875,2.7313232421875
12.0299999,9.05247688293457,-1.6855180263519287,-3.4787750244140625,-0.9918212890625,2.3651123046875,1.4190673828125
12.049999900000001,9.002198219299316,-1.7717092037200928,-3.354276657104492,-3.6468505859375,0.8544921875,0.091552734375
12.069999900000001,8.975862503051758,-1.7980455160140991,-3.272873640060425,-4.1961669921875,1.495361328125,0.4119873046875
12.0899999,8.968679428100586,-1.7932571172714233,-3.251325845718384,-3.4637451171875,-0.457763671875,0.8087158203125
12.1099999,8.96389102935791,-1.7525556087493896,-3.227383852005005,-6.0882568359375,1.0986328125,-0.5645751953125
12.129999900000001,8.983044624328613,-1.745373010635376,-3.2561142444610596,-5.8746337890625,-1.007080078125,-0.732421875
12.149999900000001,9.006986618041992,-1.6974890232086182,-3.308786630630493,-4.119873046875,-1.220703125,-3.5247802734375
12.1699999,9.059659004211426,-1.5945383310317993,-3.3303346633911133,-4.3487548828125,2.9754638671875,-4.9285888671875
12.1899999,9.114726066589355,-1.4532804489135742,-3.397372245788574,-3.021240234375,1.9683837890625,-1.708984375
12.209999900000001,9.155426979064941,-1.278503656387329,-3.406949043273926,0.2288818359375,0.030517578125,1.2359619140625
12.229999900000001,9.172186851501465,-1.1683704853057861,-3.399766445159912,1.40380859375,0.5645751953125,2.50244140625
12.2499999,9.153033256530762,-1.1492167711257935,-3.3854012489318848,1.4495849609375,-0.3814697265625,3.021240234375
12.2699999,9.102754592895508,-1.2306196689605713,-3.3518824577331543,0.67138671875,-1.2664794921875,2.7923583984375
12.289999900000002,9.042900085449219,-1.3766659498214722,-3.361459255218506,-1.6021728515625,-1.6632080078125,2.3345947265625
12.309999900000001,8.98543930053711,-1.4963760375976562,-3.3518824577331543,-6.04248046875,0.152587890625,-0.091552734375
12.3299999,8.942343711853027,-1.6136919260025024,-3.378218650817871,-4.852294921875,0.9002685546875,0.885009765625
12.3499999,8.927978515625,-1.6711528301239014,-3.3949780464172363,-3.631591796875,-0.640869140625,0.274658203125
12.3699999,8.939949035644531,-1.6879122257232666,-3.3854012489318848,-5.1727294921875,1.3580322265625,-2.410888671875
12.389999900000001,8.96389102935791,-1.6352397203445435,-3.3854012489318848,-4.2266845703125,-0.091552734375,-3.5858154296875
12.4099999,9.011775016784668,-1.5945383310317993,-3.3423056602478027,-2.2735595703125,0.091552734375,-1.4801025390625
12.4299999,9.057265281677246,-1.4939818382263184,-3.359065055847168,-0.48828125,-1.9073486328125,-0.5645751953125
12.4499999,9.105149269104004,-1.4293384552001953,-3.3470940589904785,-2.7313232421875,-0.5035400390625,-2.13623046875
12.469999900000001,9.138668060302734,-1.3718775510787964,-3.3662476539611816,-4.2572021484375,0.9918212890625,-1.7242431640625
12.4899999,9.157821655273438,-1.338358759880066,-3.3901896476745605,-3.509521484375,-0.885009765625,-0.1983642578125
12.5099999,9.160215377807617,-1.3192051649093628,-3.4332852363586426,-3.0517578125,-2.9449462890625,-0.2899169921875
12.5299999,9.155426979064941,-1.3263877630233765,-3.4548330307006836,-3.265380859375,1.6937255859375,-0.6103515625
12.549999900000001,9.153033256530762,-1.316810965538025,-3.5194764137268066,-2.166748046875,0.244140625,-1.2969970703125
12.569999900000001,9.155426979064941,-1.3072341680526733,-3.5266590118408203,-1.861572265625,0.1373291015625,0.30517578125
12.5899999,9.160215377807617,-1.2976573705673218,-3.5458126068115234,-1.15966796875,-0.9002685546875,2.01416015625
12.6099999,9.162610054016113,-1.316810965538025,-3.5458126068115234,-0.823974609375,-1.5869140625,2.2125244140625
12.629999900000001,9.153033256530762,-1.3623007535934448,-3.5697548389434814,-0.3204345703125,-0.9002685546875,0.9307861328125
12.649999900000001,9.131484985351562,-1.4508862495422363,-3.598485231399536,-0.1373291015625,0.1983642578125,0.732421875
12.6699999,9.102754592895508,-1.5298948287963867,-3.603273630142212,0.06103515625,1.3885498046875,-0.274658203125
12.6899999,9.081207275390625,-1.5897499322891235,-3.603273630142212,-0.6103515625,1.1749267578125,-1.5106201171875
12.709999900000001,9.069235801696777,-1.5610195398330688,-3.576937437057495,-2.716064453125,1.2359619140625,-2.685546875
12.729999900000001,9.059659004211426,-1.501164436340332,-3.5410242080688477,-0.9613037109375,1.28173828125,-0.3204345703125
12.7499999,9.05487060546875,-1.4413094520568848,-3.512293815612793,3.204345703125,0.7781982421875,2.8228759765625
12.7699999,9.040505409240723,-1.4053963422775269,-3.469198226928711,1.6326904296875,1.15966796875,-0.48828125
12.789999900000002,9.026140213012695,-1.4221558570861816,-3.4093432426452637,-1.129150390625,2.50244140625,-3.2958984375
12.809999900000001,9.014169692993164,-1.4245500564575195,-3.332728862762451,-2.99072265625,2.4261474609375,-2.8228759765625
12.8299999,8.99740982055664,-1.3838485479354858,-3.2297780513763428,-3.1890869140625,1.7852783203125,-1.46484375
12.8499999,8.975862503051758,-1.3287819623947144,-3.1507694721221924,-0.8087158203125,-2.3193359375,0.152587890625
12.8699999,8.947132110595703,-1.278503656387329,-3.1028854846954346,-0.9765625,-3.8604736328125,0.0457763671875
12.889999900000001,8.920795440673828,-1.259350061416626,-3.0765492916107178,-1.556396484375,-3.6163330078125,-0.6866455078125
12.9099999,8.899248123168945,-1.2713210582733154,-3.095702886581421,-1.800537109375,-5.8441162109375,0.0152587890625
12.9299999,8.882488250732422,-1.290474772453308,-3.1244332790374756,-2.1209716796875,-8.453369140625,-0.5035400390625
12.9499999,8.87051773071289,-1.290474772453308,-3.179499864578247,0.1983642578125,-8.819580078125,-0.640869140625
12.969999900000001,8.860940933227539,-1.3311761617660522,-3.224989652633667,-0.3509521484375,-7.38525390625,0.9765625
12.9899999,8.860940933227539,-1.3742717504501343,-3.313575267791748,-1.4801025390625,-9.3231201171875,0.30517578125
13.0099999,8.87291145324707,-1.4221558570861816,-3.3877954483032227,-3.41796875,-9.1094970703125,-2.99072265625
13.0299999,8.904036521911621,-1.4748282432556152,-3.490746021270752,-3.8299560546875,-7.568359375,-3.72314453125
13.049999900000001,8.935160636901855,-1.4748282432556152,-3.6104562282562256,-1.89208984375,-7.9498291015625,-3.4332275390625
13.069999900000001,8.959102630615234,-1.4413094520568848,-3.7421371936798096,0.6866455078125,-8.270263671875,-3.570556640625
13.0899999,8.966285705566406,-1.3862427473068237,-3.818751811981201,5.1116943359375,-6.7291259765625,-3.6163330078125
13.1099999,8.947132110595703,-1.3527239561080933,-3.8331170082092285,7.537841796875,-6.3018798828125,-2.0599365234375
13.129999900000001,8.9064302444458,-1.3718775510787964,-3.7469255924224854,6.40869140625,-6.2713623046875,-0.9002685546875
13.149999900000001,8.848969459533691,-1.41257905960083,-3.622427225112915,6.1798095703125,-9.857177734375,-3.570556640625
13.1699999,8.786720275878906,-1.4700398445129395,-3.488351821899414,7.171630859375,-11.3677978515625,-5.4168701171875
13.1899999,8.719682693481445,-1.50355863571167,-3.3925838470458984,7.8125,-11.5966796875,-4.791259765625
13.209999900000001,8.667010307312012,-1.5298948287963867,-3.3638534545898438,7.6141357421875,-12.847900390625,-3.387451171875
13.229999900000001,8.643068313598633,-1.4915876388549805,-3.3710360527038574,2.3193359375,-13.031005859375,-6.2408447265625
13.2499999,8.647856712341309,-1.4389152526855469,-3.3877954483032227,-1.3885498046875,-11.65771484375,-8.23974609375
13.2699999,8.674192428588867,-1.3838485479354858,-3.4835634231567383,1.5411376953125,-16.082763671875,-4.0283203125
13.289999900000002,8.707711219787598,-1.2689268589019775,-3.579331636428833,-1.6021728515625,-15.44189453125,-6.866455078125
13.309999900000001,8.7268648147583,-1.216254472732544,-3.7277719974517822,0.396728515625,-14.4500732421875,-6.8511962890625
13.3299999,8.7268648147583,-1.1971008777618408,-3.890577793121338,1.4801025390625,-15.228271484375,-5.035400390625
13.3499999,8.69334602355957,-1.2090718746185303,-4.048594951629639,-1.6021728515625,-15.19775390625,-7.232666015625
13.3699999,8.676587104797363,-1.2617442607879639,-4.1611223220825195,-1.220703125,-12.6190185546875,-8.5296630859375
13.389999900000001,8.667010307312012,-1.316810965538025,-4.2760443687438965,-1.8310546875,-13.397216796875,-9.185791015625
13.4099999,8.674192428588867,-1.292868971824646,-4.381389141082764,-3.11279296875,-14.495849609375,-11.1236572265625
13.4299999,8.700529098510742,-1.2114660739898682,-4.4723687171936035,-1.0986328125,-10.9100341796875,-10.3302001953125
13.4499999,8.71728801727295,-1.1061211824417114,-4.577713489532471,3.753662109375,-9.796142578125,-5.9967041015625
13.469999900000001,8.707711219787598,-0.9959878921508789,-4.654327869415283,4.2572021484375,-9.5977783203125,-5.8135986328125
13.4899999,8.683769226074219,-0.9241618514060974,-4.687847137451172,3.4637451171875,-8.026123046875,-8.4991455078125
13.5099999,8.635885238647461,-0.8667010068893433,-4.683058738708496,7.4310302734375,-8.7432861328125,-8.6212158203125
13.5299999,8.576030731201172,-0.8140285611152649,-4.608838081359863,13.641357421875,-9.857177734375,-5.584716796875
13.549999900000001,8.528146743774414,-0.790086567401886,-4.525041103363037,15.0146484375,-13.153076171875,-2.0599365234375
13.569999900000001,8.504204750061035,-0.7733271718025208,-4.431667327880859,7.4615478515625,-13.6566162109375,-2.8839111328125
13.5899999,8.489839553833008,-0.7924807667732239,-4.350264549255371,1.7852783203125,-11.4898681640625,-3.23486328125
13.6099999,8.463502883911133,-0.8020575642585754,-4.307168960571289,6.9122314453125,-14.5416259765625,-0.6103515625
13.629999900000001,8.40843677520752,-0.8236053586006165,-4.2544965744018555,11.0931396484375,-17.608642578125,1.15966796875
13.649999900000001,8.315062522888184,-0.8762778043746948,-4.158728122711182,9.002685546875,-17.3492431640625,1.251220703125
13.6699999,8.197746276855469,-0.9768342971801758,-4.041412353515625,6.591796875,-21.5911865234375,0.274658203125
13.6899999,8.058882713317871,-1.039083480834961,-3.885789394378662,5.584716796875,-28.62548828125,-3.3111572265625
13.709999900000001,7.931990146636963,-1.1204863786697388,-3.7205893993377686,12.75634765625,-36.285400390625,-0.579833984375
13.729999900000001,7.838616371154785,-1.259350061416626,-3.5266590118408203,19.0582275390625,-37.41455078125,5.218505859375
13.7499999,7.762001991271973,-1.4508862495422363,-3.3949780464172363,2.7313232421875,-44.708251953125,-0.2899169921875
13.7699999,7.692570209503174,-1.6424223184585571,-3.2848446369171143,-11.8865966796875,-50.1708984375,-11.4288330078125
13.789999900000002,7.623138427734375,-1.6855180263519287,-3.3925838470458984,-8.3770751953125,-60.821533203125,-15.3350830078125
13.809999900000001,7.5201873779296875,-1.577778935432434,-3.576937437057495,-3.9215087890625,-61.21826171875,-9.735107421875
13.8299999,7.395689010620117,-1.3287819623947144,-3.9001545906066895,-5.7220458984375,-60.791015625,-4.669189453125
13.8499999,7.24485445022583,-1.0821791887283325,-4.24970817565918,-6.3018798828125,-64.849853515625,-7.7972412109375
13.8699999,7.050923824310303,-0.8667010068893433,-4.568136692047119,6.072998046875,-72.93701171875,-10.5133056640625
13.889999900000001,6.8162922859191895,-0.7206547260284424,-4.829104900360107,19.4854736328125,-75.98876953125,-6.591796875
13.9099999,6.5696892738342285,-0.7326257228851318,-5.145139217376709,22.308349609375,-81.4208984375,-0.2899169921875
13.9299999,6.3518171310424805,-0.8810662031173706,-5.48272180557251,12.1307373046875,-77.972412109375,-5.706787109375
13.9499999,6.143521785736084,-1.1228805780410767,-5.9088897705078125,1.2969970703125,-69.39697265625,-15.0604248046875
13.969999900000001,6.01423454284668,-1.292868971824646,-6.311115741729736,3.5247802734375,-62.713623046875,-17.8070068359375
13.9899999,5.954379558563232,-1.3527239561080933,-6.71334171295166,11.7340087890625,-66.497802734375,-14.312744140625
14.0099999,5.959167957305908,-1.2473790645599365,-7.146692276000977,1.64794921875,-71.990966796875,-11.016845703125
14.0299999,6.016628742218018,-1.0749965906143188,-7.568071365356445,-10.6048583984375,-58.7310791015625,-10.0250244140625
14.049999900000001,6.124367713928223,-0.9409212470054626,-8.032546997070312,-14.3585205078125,-48.5076904296875,-6.16455078125
14.069999900000001,6.196194171905518,-0.8068459630012512,-8.439560890197754,-15.5029296875,-58.53271484375,-18.4326171875
14.0899999,6.2416839599609375,-0.7326257228851318,-8.765172004699707,-10.4217529296875,-67.535400390625,-25.5889892578125
14.1099999,6.19379997253418,-0.706289529800415,-9.006986618041992,-14.2059326171875,-53.28369140625,-27.5115966796875
14.129999900000001,6.026205539703369,-0.6751648783683777,-9.20091724395752,-17.425537109375,-50.96435546875,-30.731201171875
14.149999900000001,5.767632007598877,-0.6057330369949341,-9.349357604980469,-13.8397216796875,-52.8106689453125,-30.5328369140625
14.1699999,5.480327606201172,-0.5123591423034668,-9.440337181091309,-12.237548828125,-47.36328125,-21.2249755859375
14.1899999,5.2049946784973145,-0.35673606395721436,-9.500192642211914,-16.815185546875,-41.229248046875,-15.56396484375
14.209999900000001,4.977545261383057,-0.17717093229293823,-9.521739959716797,-16.11328125,-39.215087890625,-17.1966552734375
14.229999900000001,4.793191909790039,-0.004788403399288654,-9.485827445983887,-4.4708251953125,-40.9393310546875,-19.6380615234375
14.2499999,4.630385875701904,0.10295066982507706,-9.39245319366455,3.7841796875,-42.6788330078125,-16.4947509765625
14.2699999,4.462791919708252,0.14365209639072418,-9.23443603515625,3.4027099609375,-42.0684814453125,-13.8092041015625
14.289999900000002,4.309563159942627,0.038307227194309235,-9.064447402954102,0.06103515625,-40.3289794921875,-12.7105712890625
14.309999900000001,4.165910720825195,-0.11252748221158981,-8.9064302444458,-5.9967041015625,-40.3900146484375,-14.5721435546875
14.3299999,4.005499362945557,-0.24420857429504395,-8.791508674621582,-10.68115234375,-39.093017578125,-18.8446044921875
14.3499999,3.8786067962646484,-0.3663128614425659,-8.688557624816895,-8.8958740234375,-37.384033203125,-16.6015625
14.3699999,3.7684733867645264,-0.3926490843296051,-8.650250434875488,-5.2642822265625,-40.52734375,-16.7236328125
14.389999900000001,3.687070608139038,-0.3471592366695404,-8.700529098510742,-9.6282958984375,-46.6156005859375,-20.7672119140625
14.4099999,3.627215623855591,-0.2059013396501541,-8.80587387084961,-15.472412109375,-41.9769287109375,-21.2249755859375
14.4299999,3.5482068061828613,-0.004788403399288654,-8.987833023071289,-11.2762451171875,-38.2537841796875,-19.6990966796875
14.4499999,3.442862033843994,0.2298433631658554,-9.165003776550293,-2.9296875,-42.3126220703125,-16.7694091796875
14.469999900000001,3.318363666534424,0.40222588181495667,-9.32541561126709,4.0740966796875,-45.95947265625,-16.510009765625
14.4899999,3.1914708614349365,0.49559974670410156,-9.469067573547363,-1.1138916015625,-45.6085205078125,-15.2587890625
14.5099999,3.0813376903533936,0.5339069962501526,-9.593565940856934,-9.5977783203125,-39.3829345703125,-14.95361328125
14.5299999,2.9975404739379883,0.5650315880775452,-9.734824180603027,-4.94384765625,-38.6810302734375,-15.5029296875
14.549999900000001,2.911349296569824,0.5985504388809204,-9.871294021606445,-1.46484375,-40.95458984375,-14.1143798828125
14.569999900000001,2.8419175148010254,0.6560112833976746,-9.986215591430664,-2.3651123046875,-37.506103515625,-12.0697021484375
14.5899999,2.7700912952423096,0.7230489253997803,-10.11550235748291,-0.335693359375,-36.1328125,-12.481689453125
14.6099999,2.669534921646118,0.8259995579719543,-10.225635528564453,0.823974609375,-37.7044677734375,-11.4898681640625
14.629999900000001,2.5522189140319824,0.8834604024887085,-10.237606048583984,4.241943359375,-32.4554443359375,-6.3323974609375
14.649999900000001,2.425326347351074,0.8954314589500427,-10.24000072479248,10.0555419921875,-34.0728759765625,-3.6468505859375
14.6699999,2.279279947280884,0.8547300100326538,-10.20648193359375,4.8675537109375,-38.116455078125,-6.866455078125
14.6899999,2.1475989818573,0.7829039692878723,-10.170568466186523,-3.570556640625,-32.3333740234375,-7.080078125
14.709999900000001,2.006340980529785,0.7493851184844971,-10.17296314239502,-2.6397705078125,-26.9622802734375,-4.7760009765625
14.729999900000001,1.8483237028121948,0.7422025203704834,-10.163386344909668,1.3427734375,-29.0069580078125,-2.349853515625
14.7499999,1.6974890232086182,0.7469909191131592,-10.153809547424316,5.0811767578125,-30.82275390625,-1.4495849609375
14.7699999,1.525106430053711,0.7350199222564697,-10.096348762512207,8.30078125,-29.35791015625,-3.7841796875
14.789999900000002,1.3886369466781616,0.6584054827690125,-10.050858497619629,9.4757080078125,-28.594970703125,-2.227783203125
14.809999900000001,1.2689268589019775,0.5578489899635315,-10.02452278137207,5.4473876953125,-29.266357421875,-1.2359619140625
14.8299999,1.173158884048462,0.4692635238170624,-10.017339706420898,1.1138916015625,-26.5655517578125,-4.7760009765625
14.8499999,1.1085153818130493,0.43335050344467163,-10.012551307678223,3.4942626953125,-22.8424072265625,-6.866455078125
14.8699999,1.0654197931289673,0.45489832758903503,-10.029311180114746,12.542724609375,-25.8331298828125,-4.364013671875
14.889999900000001,1.0438719987869263,0.4692635238170624,-10.041281700134277,17.242431640625,-28.1982421875,0.1220703125
14.9099999,1.039083480834961,0.44771572947502136,-10.096348762512207,8.9874267578125,-25.299072265625,0.42724609375
14.9299999,1.039083480834961,0.3447650372982025,-10.177751541137695,0.5340576171875,-19.3634033203125,-2.288818359375
14.9499999,1.036689281463623,0.1867477297782898,-10.223240852355957,0.0457763671875,-17.8070068359375,1.2664794921875
14.969999900000001,0.9911994934082031,0.07182604819536209,-10.192116737365723,-1.4801025390625,-29.0679931640625,-4.5013427734375
14.9899999,0.912190854549408,-0.031124621629714966,-10.050858497619629,-5.279541015625,-32.318115234375,-20.08056640625
15.0099999,0.7996633648872375,-0.0933738648891449,-9.801861763000488,0.4730224609375,-31.18896484375,-12.5274658203125
15.0299999,0.6344634294509888,-0.0454898327589035,-9.674968719482422,4.21142578125,-44.4488525390625,-10.2386474609375
15.049999900000001,0.4620809257030487,0.014365210197865963,-9.57201862335205,-4.913330078125,-40.283203125,-6.317138671875
15.069999900000001,0.3064578175544739,0.11252748221158981,-9.600749015808105,-11.688232421875,-29.7698974609375,-2.4261474609375
15.0899999,0.15562310814857483,0.19632454216480255,-9.718064308166504,-7.0037841796875,-31.9976806640625,-3.6468505859375
15.1099999,0.035913024097681046,0.2585737705230713,-9.797073364257812,-3.387451171875,-27.557373046875,-2.5634765625
15.129999900000001,-0.06703764945268631,0.2944868206977844,-9.8784761428833,-5.157470703125,-27.7557373046875,-0.6561279296875
15.149999900000001,-0.1388636976480484,0.3280056416988373,-9.971850395202637,-8.5296630859375,-29.296875,2.3040771484375
15.1699999,-0.19153612852096558,0.38067805767059326,-10.034099578857422,-11.0931396484375,-26.2603759765625,3.1585693359375
15.1899999,-0.2298433631658554,0.45489832758903503,-10.108319282531738,-10.2691650390625,-28.0609130859375,1.7547607421875
15.209999900000001,-0.272938996553421,0.5817909836769104,-10.194510459899902,-7.6751708984375,-29.60205078125,4.6844482421875
15.229999900000001,-0.3471592366695404,0.7110779285430908,-10.268731117248535,-3.753662109375,-26.9622802734375,8.3160400390625
15.2499999,-0.44532153010368347,0.768538773059845,-10.335768699645996,-2.0751953125,-19.866943359375,10.8795166015625
15.2699999,-0.5602431893348694,0.7374141216278076,-10.350133895874023,-2.7618408203125,-17.63916015625,5.950927734375
15.289999900000002,-0.6871358752250671,0.586579442024231,-10.29746150970459,-1.6937255859375,-19.1497802734375,2.38037109375
15.309999900000001,-0.7852981686592102,0.40701428055763245,-10.201693534851074,-1.03759765625,-20.8282470703125,0.8697509765625
15.3299999,-0.8954314589500427,0.27054479718208313,-10.125079154968262,-4.82177734375,-19.9432373046875,-3.875732421875
15.3499999,-0.9744400978088379,0.2106897532939911,-10.072406768798828,-8.48388671875,-14.9078369140625,-4.1046142578125
15.3699999,-1.0606313943862915,0.2322375625371933,-10.077195167541504,-8.0413818359375,-10.467529296875,-1.77001953125
15.389999900000001,-1.1061211824417114,0.3016694188117981,-10.11550235748291,-6.8206787109375,-11.5509033203125,-2.0294189453125
15.4099999,-1.1516109704971313,0.38307225704193115,-10.141838073730469,-6.2713623046875,-8.6669921875,-5.43212890625
15.4299999,-1.1659762859344482,0.44771572947502136,-10.144232749938965,-6.77490234375,-4.9591064453125,-5.1727294921875
15.4499999,-1.1899182796478271,0.5099649429321289,-10.125079154968262,-4.791259765625,-4.4708251953125,-6.9427490234375
15.469999900000001,-1.2042834758758545,0.629675030708313,-10.108319282531738,-3.0975341796875,-7.0648193359375,-8.544921875
15.4899999,-1.216254472732544,0.7350199222564697,-10.08437728881836,-4.39453125,-3.570556640625,-4.669189453125
15.5099999,-1.213860273361206,0.8762778043746948,-10.06043529510498,-2.8839111328125,0.48828125,-0.9002685546875
15.5299999,-1.194706678390503,0.9385270476341248,-10.022128105163574,0.1983642578125,-2.685546875,0.946044921875
15.549999900000001,-1.1659762859344482,0.9840168952941895,-9.979032516479492,-1.861572265625,-5.8135986328125,-0.48828125
15.569999900000001,-1.1444283723831177,0.950498104095459,-9.938331604003906,-2.716064453125,-3.7689208984375,0.6103515625
15.5899999,-1.1300631761550903,0.9576807022094727,-9.952696800231934,0.213623046875,-2.960205078125,0.1220703125
15.6099999,-1.1348515748977661,0.9600749015808105,-9.96945571899414,1.4801025390625,-1.46484375,3.0975341796875
15.629999900000001,-1.1468225717544556,0.9457096457481384,-9.976638793945312,0,0.6866455078125,8.0413818359375
15.649999900000001,-1.1827356815338135,0.912190854549408,-9.923966407775879,-0.54931640625,1.0986328125,4.302978515625
15.6699999,-1.2042834758758545,0.8355764150619507,-9.847352027893066,1.3580322265625,-1.9683837890625,1.15966796875
15.6899999,-1.2521674633026123,0.7445967197418213,-9.768342971801758,2.685546875,-4.7607421875,1.2054443359375
15.709999900000001,-1.2713210582733154,0.6871358752250671,-9.710882186889648,1.4495849609375,-1.3275146484375,1.77001953125
15.729999900000001,-1.3048399686813354,0.6727706789970398,-9.725247383117676,2.44140625,0.762939453125,1.434326171875
15.7499999,-1.316810965538025,0.6919242739677429,-9.768342971801758,3.90625,0.9307861328125,3.35693359375
15.7699999,-1.3551181554794312,0.6967126727104187,-9.84495735168457,4.94384765625,4.6234130859375,6.3934326171875
15.789999900000002,-1.3646949529647827,0.7110779285430908,-9.923966407775879,5.5694580078125,7.9498291015625,5.9661865234375
15.809999900000001,-1.381454348564148,0.6871358752250671,-10.007762908935547,4.82177734375,7.7056884765625,4.5928955078125
15.8299999,-1.3958195447921753,0.6344634294509888,-10.077195167541504,7.99560546875,12.237548828125,6.2713623046875
15.8499999,-1.381454348564148,0.5315127968788147,-10.08198356628418,10.6964111328125,16.5252685546875,8.6669921875
15.869999900000002,-1.3670891523361206,0.363918662071228,-10.053253173828125,11.5509033203125,13.763427734375,4.0130615234375
15.889999900000001,-1.3239935636520386,0.23702596127986908,-10.012551307678223,9.1552734375,9.5367431640625,-4.3487548828125
15.9099999,-1.2761094570159912,0.15322890877723694,-10.002974510192871,8.4228515625,11.9171142578125,-3.7384033203125
15.9299999,-1.2114660739898682,0.1843535304069519,-10.017339706420898,9.124755859375,15.5181884765625,0.762939453125
15.9499999,-1.1563993692398071,0.24181437492370605,-10.053253173828125,8.0718994140625,12.8021240234375,-0.823974609375
15.969999900000001,-1.1085153818130493,0.3016694188117981,-10.029311180114746,5.8135986328125,8.6669921875,-4.5013427734375
15.9899999,-1.0582371950149536,0.31603461503982544,-9.967061996459961,4.8828125,6.2408447265625,-5.096435546875
16.0099999,-1.0247182846069336,0.31842881441116333,-9.890447616577148,4.8065185546875,3.997802734375,-5.18798828125
16.0299999,-0.993593692779541,0.33758243918418884,-9.813833236694336,2.685546875,2.74658203125,-5.92041015625
16.0499999,-0.9768342971801758,0.3711012601852417,-9.775525093078613,0.762939453125,1.7242431640625,-5.4779052734375
16.0699999,-0.9624691009521484,0.43095630407333374,-9.75397777557373,1.312255859375,1.15966796875,-3.9520263671875
16.089999900000002,-0.9600749015808105,0.47405192255973816,-9.75397777557373,2.3651123046875,2.8076171875,-1.4495849609375
16.109999900000002,-0.9528923034667969,0.49559974670410156,-9.761159896850586,3.0364990234375,4.2572021484375,-0.0762939453125
16.1299999,-0.9528923034667969,0.4884171485900879,-9.77791976928711,2.7923583984375,2.685546875,-1.8310546875
16.1499999,-0.950498104095459,0.4668693244457245,-9.782708168029785,2.2125244140625,3.5858154296875,-1.28173828125
16.1699999,-0.933738648891449,0.42856210470199585,-9.799467086791992,1.15966796875,4.150390625,1.8768310546875
16.1899999,-0.9241618514060974,0.4213795065879822,-9.816226959228516,1.4190673828125,5.6610107421875,0.30517578125
16.2099999,-0.9002198576927185,0.4118026793003082,-9.816226959228516,-0.0457763671875,8.697509765625,0.9002685546875
16.2299999,-0.8690952062606812,0.3902548849582672,-9.78989028930664,1.4190673828125,8.331298828125,4.4708251953125
16.249999900000002,-0.849941611289978,0.3711012601852417,-9.744400978088379,3.021240234375,4.7760009765625,2.38037109375
16.269999900000002,-0.8188169598579407,0.3519476354122162,-9.682151794433594,1.9378662109375,3.0364990234375,0.3509521484375
16.2899999,-0.8044517636299133,0.3232172429561615,-9.667786598205566,2.38037109375,0.8544921875,0.9765625
16.3099999,-0.8020575642585754,0.3016694188117981,-9.679757118225098,2.3040771484375,1.03759765625,2.166748046875
16.3299999,-0.8044517636299133,0.26815059781074524,-9.706093788146973,2.0294189453125,2.9754638671875,1.922607421875
16.3499999,-0.8212111592292786,0.21547815203666687,-9.72285270690918,2.6092529296875,0.6866455078125,-0.152587890625
16.3699999,-0.8331822156906128,0.17956513166427612,-9.730035781860352,1.5411376953125,-1.4190673828125,-0.885009765625
16.3899999,-0.8451532125473022,0.17238251864910126,-9.737217903137207,0.701904296875,-0.7476806640625,-0.335693359375
16.4099999,-0.849941611289978,0.19153612852096558,-9.749189376831055,0.885009765625,0.9918212890625,0.9918212890625
16.429999900000002,-0.8475474119186401,0.22505496442317963,-9.77791976928711,1.2359619140625,-0.213623046875,0.9307861328125
16.4499999,-0.8523358106613159,0.23702596127986908,-9.801861763000488,1.4495849609375,-1.2359619140625,0.640869140625
16.4699999,-0.849941611289978,0.21308395266532898,-9.816226959228516,1.7852783203125,0.7171630859375,1.678466796875
16.4899999,-0.849941611289978,0.181959331035614,-9.849745750427246,1.8157958984375,0.732421875,0.5950927734375
16.5099999,-0.8451532125473022,0.15083470940589905,-9.880870819091797,1.2359619140625,0.762939453125,-0.48828125
16.5299999,-0.8307880163192749,0.13407529890537262,-9.897629737854004,0.54931640625,2.716064453125,0.946044921875
16.5499999,-0.8188169598579407,0.1364694982767105,-9.885659217834473,1.28173828125,3.570556640625,1.800537109375
16.5699999,-0.8164227604866028,0.1412578970193863,-9.847352027893066,1.2969970703125,2.0751953125,1.1749267578125
16.589999900000002,-0.811634361743927,0.12210428714752197,-9.792284965515137,-0.213623046875,1.5411376953125,1.190185546875
16.609999900000002,-0.8164227604866028,0.09576806426048279,-9.75397777557373,0.030517578125,1.2054443359375,0.3662109375
16.6299999,-0.8164227604866028,0.07900865375995636,-9.737217903137207,1.15966796875,1.3427734375,-1.03759765625
16.6499999,-0.8164227604866028,0.07182604819536209,-9.742006301879883,1.3427734375,2.1820068359375,-0.8087158203125
16.6699999,-0.8164227604866028,0.10055647045373917,-9.758766174316406,1.220703125,1.617431640625,0.30517578125
16.6899999,-0.8164227604866028,0.13407529890537262,-9.780313491821289,1.7852783203125,0.79345703125,0.7781982421875
16.7099999,-0.8212111592292786,0.1388636976480484,-9.792284965515137,2.5787353515625,1.5106201171875,1.0223388671875
16.7299999,-0.828393816947937,0.10534487664699554,-9.801861763000488,1.434326171875,1.40380859375,0.518798828125
16.749999900000002,-0.828393816947937,0.05506663769483566,-9.806650161743164,-0.1373291015625,1.64794921875,-1.28173828125
16.769999900000002,-0.8259995579719543,0.019153613597154617,-9.81143856048584,-0.42724609375,1.7852783203125,-2.50244140625
16.7899999,-0.8164227604866028,0.019153613597154617,-9.804255485534668,-0.0457763671875,2.197265625,-1.77001953125
16.8099999,-0.8068459630012512,0.06224924325942993,-9.780313491821289,-0.0762939453125,2.7923583984375,-0.701904296875
16.8299999,-0.7996633648872375,0.10055647045373917,-9.770736694335938,-0.0457763671875,0.5340576171875,-0.4730224609375
16.8499999,-0.7972691655158997,0.12928688526153564,-9.765948295593262,0.396728515625,0.213623046875,-0.6866455078125
16.8699999,-0.7996633648872375,0.1388636976480484,-9.770736694335938,-0.2593994140625,2.6092529296875,-1.1749267578125
16.8899999,-0.8044517636299133,0.11971008777618408,-9.782708168029785,-0.1678466796875,2.1514892578125,-0.762939453125
16.9099999,-0.8044517636299133,0.10534487664699554,-9.77791976928711,0.2288818359375,0.5340576171875,-1.03759765625
16.929999900000002,-0.8020575642585754,0.10295066982507706,-9.761159896850586,-0.30517578125,0.640869140625,-2.0294189453125
16.9499999,-0.7948749661445618,0.11252748221158981,-9.749189376831055,0,0.9765625,-1.40380859375
16.9699999,-0.790086567401886,0.12210428714752197,-9.739612579345703,0.213623046875,0.8392333984375,-0.0457763671875
16.9899999,-0.790086567401886,0.12928688526153564,-9.749189376831055,0.152587890625,0.0457763671875,-0.518798828125
17.0099999,-0.7972691655158997,0.12210428714752197,-9.770736694335938,0.1068115234375,-0.2288818359375,-1.861572265625
17.0299999,-0.8068459630012512,0.11013327538967133,-9.792284965515137,0.4119873046875,1.4801025390625,-1.77001953125
17.0499999,-0.8188169598579407,0.10295066982507706,-9.80904483795166,0.7171630859375,0.8697509765625,-1.1138916015625
17.0699999,-0.8188169598579407,0.11013327538967133,-9.78989028930664,0.030517578125,0.885009765625,-1.3427734375
17.089999900000002,-0.8140285611152649,0.11013327538967133,-9.768342971801758,-0.42724609375,-0.8544921875,-2.105712890625
17.109999900000002,-0.8020575642585754,0.12689268589019775,-9.770736694335938,-0.79345703125,-2.288818359375,-1.7547607421875
17.1299999,-0.790086567401886,0.15322890877723694,-9.801861763000488,-0.396728515625,0.335693359375,-1.0223388671875
17.1499999,-0.790086567401886,0.1843535304069519,-9.86650562286377,0.42724609375,2.4261474609375,-0.030517578125
17.1699999,-0.7948749661445618,0.19393034279346466,-9.916783332824707,0.5340576171875,2.7313232421875,0.823974609375
17.1899999,-0.8092401623725891,0.181959331035614,-9.921571731567383,0,2.593994140625,-0.06103515625
17.2099999,-0.8188169598579407,0.14604631066322327,-9.888052940368652,-0.1068115234375,1.40380859375,-1.1749267578125
17.2299999,-0.8212111592292786,0.12689268589019775,-9.828198432922363,-0.0152587890625,0.885009765625,-1.708984375
17.249999900000002,-0.8164227604866028,0.13168109953403473,-9.770736694335938,-0.6866455078125,1.953125,-0.7781982421875
17.269999900000002,-0.8020575642585754,0.14604631066322327,-9.72285270690918,-0.4119873046875,2.0599365234375,1.1444091796875
17.2899999,-0.7852981686592102,0.16759411990642548,-9.696516990661621,0.06103515625,1.2664794921875,0.5340576171875
17.3099999,-0.7709329724311829,0.16998831927776337,-9.679757118225098,-0.0762939453125,0.7476806640625,-0.5035400390625
17.3299999,-0.7637503147125244,0.15801730751991272,-9.684545516967773,0.091552734375,0.7781982421875,0.1373291015625
17.3499999,-0.7661445140838623,0.14844051003456116,-9.68933391571045,-0.1068115234375,0.7781982421875,0.3662109375
17.3699999,-0.7757213711738586,0.1412578970193863,-9.684545516967773,-0.518798828125,0.885009765625,0.091552734375
17.3899999,-0.7876923680305481,0.14604631066322327,-9.691728591918945,-0.335693359375,-0.946044921875,-0.091552734375
17.409999900000003,-0.7972691655158997,0.1388636976480484,-9.684545516967773,-0.0152587890625,-1.6021728515625,1.312255859375
17.429999900000002,-0.8140285611152649,0.13407529890537262,-9.710882186889648,0.8392333984375,-2.838134765625,1.28173828125
17.4499999,-0.8331822156906128,0.12928688526153564,-9.737217903137207,0.152587890625,-0.5645751953125,-1.8310546875
17.4699999,-0.8475474119186401,0.1173158809542656,-9.744400978088379,0.2288818359375,1.9989013671875,-0.0762939453125
17.4899999,-0.8571242094039917,0.12449848651885986,-9.751583099365234,1.0528564453125,-3.90625,0.9918212890625
17.5099999,-0.8619126081466675,0.1388636976480484,-9.737217903137207,-0.4425048828125,-6.7596435546875,-0.18310546875
17.5299999,-0.8547300100326538,0.09816227108240128,-9.746794700622559,-0.9765625,-3.7078857421875,3.4942626953125
17.5499999,-0.8571242094039917,0.043095629662275314,-9.773131370544434,-1.2664794921875,-2.62451171875,2.0599365234375
17.5699999,-0.8643068075180054,-0.028730420395731926,-9.816226959228516,-0.3662109375,-1.007080078125,-2.3193359375
17.589999900000002,-0.8667010068893433,-0.07182604819536209,-9.861717224121094,-0.67138671875,0.3204345703125,-2.532958984375
17.609999900000002,-0.8786720037460327,-0.047884032130241394,-9.897629737854004,-1.007080078125,0.3509521484375,-2.288818359375
17.6299999,-0.8834604024887085,0.004788403399288654,-9.90241813659668,-0.1220703125,1.861572265625,-0.7476806640625
17.6499999,-0.8834604024887085,0.06224924325942993,-9.890447616577148,-0.1220703125,0.244140625,0.2899169921875
17.6699999,-0.8882488012313843,0.08379705995321274,-9.84256362915039,-0.8697509765625,-4.4403076171875,-0.6103515625
17.6899999,-0.8858546018600464,0.05746084079146385,-9.830592155456543,-0.3814697265625,-6.34765625,-1.708984375
17.7099999,-0.8858546018600464,0.040701430290937424,-9.837775230407715,0.2899169921875,-0.946044921875,-3.4942626953125
17.7299999,-0.8786720037460327,0.031124621629714966,-9.86650562286377,0.0762939453125,4.9896240234375,-3.0975341796875
17.749999900000002,-0.8667010068893433,0.033518824726343155,-9.897629737854004,-1.068115234375,0.4119873046875,-0.42724609375
17.769999900000002,-0.8619126081466675,0.06464344263076782,-9.883264541625977,-1.7242431640625,-4.69970703125,-1.2054443359375
17.7899999,-0.8667010068893433,0.06703764945268631,-9.871294021606445,-2.105712890625,-3.3416748046875,-2.13623046875
17.8099999,-0.9002198576927185,0.05985504388809204,-9.859322547912598,-1.556396484375,0.4119873046875,-2.2430419921875
17.8299999,-0.950498104095459,0.033518824726343155,-9.847352027893066,-1.46484375,3.2501220703125,-2.99072265625
17.8499999,-1.0055646896362305,0.040701430290937424,-9.828198432922363,-0.457763671875,2.50244140625,-5.4473876953125
17.8699999,-1.0582371950149536,0.05267243832349777,-9.785101890563965,-0.335693359375,0.4730224609375,-5.06591796875
17.8899999,-1.0965443849563599,0.10773907601833344,-9.713275909423828,-0.4730224609375,1.3275146484375,-4.4708251953125
17.909999900000003,-1.1061211824417114,0.15562310814857483,-9.655815124511719,-0.8697509765625,-0.1983642578125,-2.4871826171875
17.929999900000002,-1.1013327836990356,0.22026655077934265,-9.627084732055664,-0.244140625,-1.1138916015625,-3.8604736328125
17.9499999,-1.0773907899856567,0.272938996553421,-9.634267807006836,-0.1678466796875,0.518798828125,-2.410888671875
17.9699999,-1.0534487962722778,0.33039984107017517,-9.677363395690918,-0.1220703125,1.129150390625,-0.9918212890625
17.9899999,-1.0295066833496094,0.3447650372982025,-9.730035781860352,0.9002685546875,0.18310546875,0.152587890625
18.0099999,-1.0223240852355957,0.3687070608139038,-9.77791976928711,0.79345703125,0.4119873046875,-1.9683837890625
18.0299999,-1.0223240852355957,0.3519476354122162,-9.801861763000488,0.8544921875,1.7242431640625,-0.9918212890625
18.0499999,-1.0295066833496094,0.3447650372982025,-9.80904483795166,0.48828125,1.220703125,0.701904296875
18.0699999,-1.039083480834961,0.35434186458587646,-9.768342971801758,1.190185546875,2.197265625,0.213623046875
18.089999900000002,-1.0414776802062988,0.3447650372982025,-9.696516990661621,2.4566650390625,0.91552734375,2.7923583984375
18.109999900000002,-1.036689281463623,0.3495534360408783,-9.600749015808105,0.579833984375,-1.2054443359375,3.082275390625
18.1299999,-1.0295066833496094,0.35673606395721436,-9.53849983215332,-0.0152587890625,-3.2196044921875,2.3956298828125
18.1499999,-1.0247182846069336,0.3471592366695404,-9.533711433410645,2.3040771484375,-3.3111572265625,4.8370361328125
18.1699999,-1.0271124839782715,0.30885201692581177,-9.583989143371582,3.4637451171875,-1.7242431640625,5.9967041015625
18.1899999,-1.0342950820922852,0.24181437492370605,-9.674968719482422,2.7923583984375,-1.40380859375,3.997802734375
18.2099999,-1.0414776802062988,0.14604631066322327,-9.763554573059082,1.708984375,-1.220703125,3.021240234375
18.2299999,-1.048660397529602,0.05506663769483566,-9.828198432922363,0.9765625,-0.6256103515625,3.8604736328125
18.249999900000002,-1.048660397529602,-0.002394201699644327,-9.890447616577148,1.2359619140625,-2.1820068359375,3.448486328125
18.269999900000002,-1.048660397529602,-0.031124621629714966,-9.93593692779541,1.9073486328125,-1.2969970703125,2.532958984375
18.2899999,-1.0414776802062988,-0.040701430290937424,-9.962273597717285,1.2664794921875,1.6632080078125,3.204345703125
18.3099999,-1.036689281463623,-0.0454898327589035,-9.983820915222168,1.1749267578125,0.9307861328125,3.1585693359375
18.3299999,-1.0295066833496094,-0.05267243832349777,-9.981427192687988,1.4495849609375,0.6256103515625,2.0294189453125
18.3499999,-1.0342950820922852,-0.06224924325942993,-9.96945571899414,1.5716552734375,2.716064453125,1.3275146484375
18.3699999,-1.039083480834961,-0.08140286058187485,-9.940725326538086,1.5411376953125,4.364013671875,2.25830078125
18.3899999,-1.048660397529602,-0.10534487664699554,-9.897629737854004,1.220703125,4.1351318359375,2.4261474609375
18.409999900000003,-1.0582371950149536,-0.11252748221158981,-9.84256362915039,1.8768310546875,2.01416015625,0.0457763671875
18.429999900000002,-1.072602391242981,-0.1149216815829277,-9.787496566772461,2.4261474609375,1.800537109375,-0.67138671875
18.4499999,-1.072602391242981,-0.12689268589019775,-9.734824180603027,1.2969970703125,2.3651123046875,1.9073486328125
18.4699999,-1.0797849893569946,-0.1149216815829277,-9.6989107131958,-0.2593994140625,-0.030517578125,-1.9683837890625
18.4899999,-1.0773907899856567,-0.11252748221158981,-9.674968719482422,0.1068115234375,0.6561279296875,-3.4942626953125
18.5099999,-1.0773907899856567,-0.10773907601833344,-9.66299819946289,1.40380859375,2.86865234375,-1.617431640625
18.5299999,-1.0797849893569946,-0.07422025501728058,-9.670180320739746,1.983642578125,2.0751953125,-1.373291015625
18.5499999,-1.0773907899856567,-0.05506663769483566,-9.691728591918945,1.4190673828125,-0.6103515625,-0.732421875
18.5699999,-1.072602391242981,-0.0071826050989329815,-9.703699111938477,1.7242431640625,-0.732421875,-2.4871826171875
18.589999900000002,-1.0582371950149536,0.05027823522686958,-9.696516990661621,4.8980712890625,1.6632080078125,-2.25830078125
18.609999900000002,-1.0462661981582642,0.09816227108240128,-9.679757118225098,5.9356689453125,0.1983642578125,1.678466796875
18.6299999,-1.039083480834961,0.13407529890537262,-9.651026725769043,2.99072265625,-1.312255859375,1.6326904296875
18.6499999,-1.0438719987869263,0.13168109953403473,-9.641449928283691,2.532958984375,-1.6326904296875,-0.244140625
18.6699999,-1.0630255937576294,0.06464344263076782,-9.651026725769043,2.8533935546875,-0.6866455078125,0.5340576171875
18.6899999,-1.0869675874710083,-0.019153613597154617,-9.677363395690918,0.9765625,-0.3204345703125,0.5340576171875
18.7099999,-1.1109095811843872,-0.08619125932455063,-9.739612579345703,0.2899169921875,-2.777099609375,-1.7547607421875
18.7299999,-1.1228805780410767,-0.1173158809542656,-9.78989028930664,2.0751953125,-1.3580322265625,-1.9989013671875
18.749999900000002,-1.1204863786697388,-0.11013327538967133,-9.825803756713867,1.52587890625,1.5716552734375,0.3509521484375
18.769999900000002,-1.115697979927063,-0.08140286058187485,-9.854534149169922,1.617431640625,-1.03759765625,0.79345703125
18.7899999,-1.1085153818130493,-0.05746084079146385,-9.861717224121094,1.8463134765625,-2.50244140625,0.030517578125
18.8099999,-1.1109095811843872,-0.05027823522686958,-9.859322547912598,0.6866455078125,0.2899169921875,-0.0457763671875
18.8299999,-1.113303780555725,-0.07182604819536209,-9.86650562286377,0.4425048828125,1.708984375,1.0528564453125
18.8499999,-1.1204863786697388,-0.09816227108240128,-9.876082420349121,0.6103515625,0.091552734375,0.1373291015625
18.8699999,-1.1252747774124146,-0.12210428714752197,-9.873687744140625,0.0152587890625,0.6561279296875,-1.8157958984375
18.8899999,-1.1228805780410767,-0.13407529890537262,-9.876082420349121,0.732421875,1.5411376953125,-1.1138916015625
18.909999900000003,-1.115697979927063,-0.12928688526153564,-9.873687744140625,0.5340576171875,2.3345947265625,0.6866455078125
18.929999900000002,-1.1085153818130493,-0.09576806426048279,-9.876082420349121,0.579833984375,2.166748046875,-0.1373291015625
18.9499999,-1.0989385843276978,-0.090979665517807,-9.864110946655273,1.64794921875,2.2430419921875,0.244140625
18.9699999,-1.0797849893569946,-0.10534487664699554,-9.825803756713867,1.2054443359375,4.791259765625,1.983642578125
18.9899999,-1.0534487962722778,-0.1149216815829277,-9.799467086791992,0.4730224609375,2.3040771484375,-0.6256103515625
19.0099999,-1.015141487121582,-0.09816227108240128,-9.763554573059082,1.312255859375,1.1444091796875,-2.288818359375
19.0299999,-0.9696516990661621,-0.05267243832349777,-9.739612579345703,3.662109375,3.6468505859375,1.2664794921875
19.0499999,-0.9385270476341248,0,-9.732429504394531,6.7291259765625,2.532958984375,5.2337646484375
19.0699999,-0.9169792532920837,-0.035913024097681046,-9.72285270690918,5.2642822265625,-1.0528564453125,6.4239501953125
19.089999900000002,-0.9193734526634216,-0.10295066982507706,-9.725247383117676,1.9989013671875,-2.5482177734375,-1.8463134765625
19.109999900000002,-0.9409212470054626,-0.20111294090747833,-9.720458984375,1.52587890625,1.678466796875,-4.0130615234375
19.1299999,-0.9720458984375,-0.29209262132644653,-9.713275909423828,2.166748046875,5.218505859375,2.13623046875
19.1499999,-0.9959878921508789,-0.33758243918418884,-9.679757118225098,2.1209716796875,1.8768310546875,3.0670166015625
19.1699999,-0.9959878921508789,-0.3734954595565796,-9.66299819946289,1.2054443359375,-3.692626953125,-1.1444091796875
19.1899999,-0.9576807022094727,-0.3878606855869293,-9.684545516967773,-0.091552734375,-3.9825439453125,-0.9002685546875
19.2099999,-0.8882488012313843,-0.35913026332855225,-9.765948295593262,-0.3509521484375,-2.8228759765625,0.9002685546875
19.2299999,-0.7996633648872375,-0.31842881441116333,-9.93593692779541,-0.946044921875,-2.9144287109375,1.5869140625
19.249999900000002,-0.6943184733390808,-0.2561795711517334,-10.103530883789062,-1.800537109375,-1.6632080078125,0.9307861328125
19.269999900000002,-0.5626373887062073,-0.24420857429504395,-10.273519515991211,-1.8310546875,-3.8909912109375,-0.1373291015625
19.2899999,-0.42856210470199585,-0.22744916379451752,-10.474632263183594,-0.030517578125,-11.810302734375,-1.068115234375
19.3099999,-0.2944868206977844,-0.1867477297782898,-10.714052200317383,-4.6539306640625,-11.71875,-1.5869140625
19.3299999,-0.22026655077934265,-0.12928688526153564,-11.08754825592041,-11.2152099609375,-2.9144287109375,1.861572265625
19.3499999,-0.21308395266532898,-0.002394201699644327,-11.559206008911133,-8.3770751953125,-2.0751953125,4.058837890625
19.3699999,-0.30885201692581177,0.08140286058187485,-12.138602256774902,-2.7923583984375,-4.7760009765625,6.4697265625
19.3899999,-0.5123591423034668,0.0694318488240242,-12.72996997833252,4.0283203125,-3.448486328125,9.8419189453125
19.409999900000003,-0.768538773059845,-0.0694318488240242,-13.256694793701172,5.2490234375,1.15966796875,5.157470703125
19.429999900000002,-1.0773907899856567,-0.3064578175544739,-13.656526565551758,-1.708984375,2.01416015625,-2.838134765625
19.4499999,-1.3239935636520386,-0.5410895943641663,-14.00607967376709,-10.3302001953125,6.8206787109375,-6.0882568359375
19.4699999,-1.5322890281677246,-0.5195417404174805,-14.305355072021484,-13.8702392578125,17.059326171875,-11.41357421875
19.4899999,-1.6735470294952393,-0.3711012601852417,-14.65011978149414,-22.3236083984375,35.5224609375,-5.950927734375
19.5099999,-1.824381709098816,-0.031124621629714966,-15.059528350830078,-24.4598388671875,54.5806884765625,1.77001953125
19.5299999,-1.965639591217041,0.33997663855552673,-15.421052932739258,-21.4996337890625,71.6094970703125,3.631591796875
19.5499999,-2.126051187515259,0.6248866319656372,-15.713146209716797,-19.8974609375,88.8671875,5.828857421875
19.5699999,-2.209848165512085,0.7398083209991455,-15.804125785827637,-13.12255859375,107.3150634765625,14.404296875
19.589999900000002,-2.293645143508911,0.8762778043746948,-15.861586570739746,-16.4947509765625,112.8997802734375,6.9427490234375
19.609999900000002,-2.31758713722229,0.9552865028381348,-15.737088203430176,-24.0478515625,138.6871337890625,10.4827880859375
19.6299999,-2.3511061668395996,1.2066776752471924,-15.401899337768555,-12.8936767578125,167.4957275390625,26.031494140625
19.6499999,-2.3511061668395996,1.45806884765625,-14.846445083618164,2.9296875,167.66357421875,39.0625
19.6699999,-2.300827741622925,1.5753847360610962,-13.917494773864746,9.7808837890625,160.5377197265625,44.6014404296875
19.6899999,-2.1930887699127197,1.5275006294250488,-12.7946138381958,10.3302001953125,153.3203125,35.46142578125
19.7099999,-2.011129379272461,1.2521674633026123,-11.650185585021973,12.8173828125,147.88818359375,37.872314453125
19.7299999,-1.7501614093780518,0.8643068075180054,-10.606313705444336,14.1143798828125,161.31591796875,44.2962646484375
19.749999900000002,-1.434126853942871,0.5722141861915588,-9.545681953430176,19.3634033203125,183.0902099609375,34.60693359375
19.769999900000002,-1.0127472877502441,0.2082955539226532,-8.494627952575684,29.78515625,180.0384521484375,33.843994140625
19.7899999,-0.47165772318840027,-0.08619125932455063,-7.359776020050049,30.2886962890625,163.0859375,30.853271484375
19.8099999,0.1628057211637497,-0.3256114423274994,-6.3063273429870605,25.5126953125,153.7017822265625,20.9503173828125
19.8299999,0.8906430602073669,-0.5363011956214905,-5.4444146156311035,28.0609130859375,155.8380126953125,18.4783935546875
19.8499999,1.6328455209732056,-0.6344634294509888,-4.800374507904053,37.2467041015625,154.7698974609375,17.15087890625
19.8699999,2.3702597618103027,-0.7158663272857666,-4.225766181945801,41.4276123046875,148.834228515625,18.06640625
19.8899999,3.0526070594787598,-0.7469909191131592,-3.7660791873931885,33.1268310546875,135.9100341796875,17.913818359375
19.909999900000003,3.7038300037384033,-0.8044517636299133,-3.3518824577331543,26.9622802734375,124.2828369140625,17.76123046875
19.929999900000002,4.343081951141357,-0.8092401623725891,-3.272873640060425,36.2548828125,113.28125,17.51708984375
19.9499999,4.869806289672852,-0.7182605266571045,-3.4165258407592773,49.7589111328125,111.87744140625,13.580322265625
19.9699999,5.343858242034912,-0.7086837291717529,-3.579331636428833,56.121826171875,125.8087158203125,26.1077880859375
19.9899999,5.719748020172119,-0.6536170840263367,-3.5003228187561035,47.6837158203125,127.197265625,33.99658203125
20.0099999,6.069301128387451,-0.7254431247711182,-3.1675288677215576,38.9404296875,109.100341796875,40.435791015625
20.0299999,6.390124320983887,-0.871489405632019,-2.5665841102600098,31.8450927734375,98.4954833984375,38.02490234375
20.0499999,6.6846113204956055,-1.1109095811843872,-1.8626888990402222,21.7742919921875,100.40283203125,30.21240234375
20.0699999,6.921637058258057,-1.4508862495422363,-1.1659762859344482,14.678955078125,82.8857421875,23.37646484375
20.089999900000002,7.079654216766357,-1.9728221893310547,-0.33518823981285095,-1.03759765625,73.638916015625,21.942138671875
20.109999900000002,7.2113356590271,-2.542642116546631,0.37828385829925537,-11.0626220703125,54.8095703125,7.4920654296875
20.1299999,7.3693528175354,-2.9017724990844727,0.8882488012313843,-11.3983154296875,42.205810546875,-9.3231201171875
20.1499999,7.601590633392334,-2.9759926795959473,0.9481038451194763,-12.2528076171875,33.7677001953125,-12.75634765625
20.1699999,7.908048152923584,-2.715024709701538,0.667982280254364,-13.3514404296875,30.1971435546875,-4.3182373046875
20.1899999,8.238448143005371,-2.315192937850952,0.05267243832349777,-13.61083984375,22.735595703125,-1.4495849609375
20.2099999,8.552088737487793,-1.9943699836730957,-0.5339069962501526,-10.6964111328125,20.44677734375,-3.173828125
20.2299999,8.808267593383789,-1.8602946996688843,-1.1228805780410767,-9.796142578125,12.5885009765625,-5.0201416015625
