# Time (seconds),Accel_X,Accel_Y,Accel_Z,Gyro_X,Gyro_Y,Gyro_Z
0.0099999,-1.2401964664459229,7.879317760467529,10.742782592773438,-149.8870849609375,65.00244140625,14.58740234375
0.029999900000000003,-1.3742717504501343,7.228095054626465,12.18648624420166,-36.6668701171875,12.39013671875,35.491943359375
0.0499999,-1.558625340461731,6.375759124755859,12.966996192932129,-66.9097900390625,-30.6854248046875,-1.4190673828125
0.0699999,-1.7908629179000854,5.669469833374023,12.94305419921875,-66.131591796875,-30.0750732421875,-45.8984375
0.08999990000000001,-2.0614075660705566,5.298368453979492,12.519280433654785,-76.4312744140625,21.484375,-46.1883544921875
0.10999990000000001,-2.3367409706115723,5.224148273468018,12.160150527954102,-105.224609375,59.0667724609375,-8.575439453125
0.1299999,-2.6168625354766846,5.2049946784973145,12.24155330657959,-123.138427734375,48.980712890625,40.7257080078125
0.14999990000000002,-2.8826189041137695,4.946420669555664,12.768278121948242,-74.03564453125,7.9498291015625,51.3458251953125
0.1699999,-3.0166940689086914,4.412513732910156,13.498509407043457,-30.1971435546875,-16.4642333984375,34.8663330078125
0.1899999,-3.0310592651367188,3.8067808151245117,14.173673629760742,-9.796142578125,-13.0767822265625,38.421630859375
0.20999990000000002,-2.896984100341797,3.294421434402466,14.721946716308594,-69.3206787109375,-2.3345947265625,48.3856201171875
0.2299999,-2.647987127304077,2.7916390895843506,15.112200736999512,-125.152587890625,-4.1046142578125,62.19482421875
0.2499999,-2.3558945655822754,2.049436569213867,15.265430450439453,-96.6033935546875,-23.9715576171875,100.921630859375
0.2699999,-2.049436569213867,0.9385270476341248,15.150507926940918,-110.3515625,-40.9393310546875,102.9510498046875
0.28999990000000003,-1.7956513166427612,-0.24420857429504395,14.621389389038086,-105.7281494140625,-46.7681884765625,16.448974609375
0.3099999,-1.5634137392044067,-1.1803414821624756,13.761871337890625,-46.1578369140625,-34.5306396484375,-34.8358154296875
0.3299999,-1.3215993642807007,-1.6687586307525635,12.583924293518066,0.6256103515625,-25.665283203125,6.591796875
0.34999990000000003,-1.1324573755264282,-1.6879122257232666,11.307814598083496,18.1121826171875,-17.0440673828125,43.9300537109375
0.3699999,-0.9600749015808105,-1.4676456451416016,9.940725326538086,-9.82666015625,-7.781982421875,16.1590576171875
0.3899999,-0.9217676520347595,-1.0199298858642578,8.523358345031738,39.97802734375,-10.3302001953125,-22.7508544921875
0.40999990000000003,-1.0534487962722778,-0.2992752194404602,7.208941459655762,78.1097412109375,34.36279296875,16.29638671875
0.4299999,-1.2856862545013428,0.31364041566848755,6.215347766876221,49.49951171875,122.0550537109375,107.6202392578125
0.4499999,-1.3096283674240112,0.7781155705451965,5.683835029602051,199.40185546875,147.5372314453125,139.404296875
0.4699999,-1.3096283674240112,1.1492167711257935,5.542576789855957,334.2132568359375,130.6915283203125,93.07861328125
0.4899999,-1.0007762908935547,1.53707754611969,6.13633918762207,186.187744140625,160.675048828125,69.76318359375
0.5099999,-0.5889736413955688,2.075772762298584,7.350199222564697,32.8369140625,139.83154296875,142.0745849609375
0.5299999,0.10534487664699554,2.5785553455352783,8.355764389038086,116.02783203125,5.2642822265625,219.024658203125
0.5499999,0.6799532771110535,2.47560453414917,8.669404029846191,164.6575927734375,-142.1661376953125,211.212158203125
0.5699999,1.1875240802764893,1.3263877630233765,7.996633529663086,-46.7681884765625,-98.6785888671875,157.53173828125
0.5899998999999999,1.2449848651885986,-0.6943184733390808,6.722918510437012,-80.13916015625,66.436767578125,90.6524658203125
0.6099998999999999,1.1516109704971313,-2.4612393379211426,6.208165168762207,19.805908203125,134.9945068359375,-37.9180908203125
0.6299999,1.0055646896362305,-3.181894063949585,6.275202751159668,22.979736328125,-12.20703125,-134.09423828125
0.6499999,1.0103530883789062,-2.5258827209472656,6.610390663146973,-59.3414306640625,-164.2913818359375,-57.7545166015625
0.6699999,0.9768342971801758,-0.6368576288223267,6.411672115325928,-47.4090576171875,-90.1336669921875,22.918701171875
0.6899999,0.8643068075180054,1.0247182846069336,6.0836663246154785,-41.8548583984375,139.3280029296875,100.15869140625
0.7099999,0.6177040338516235,1.6400281190872192,6.246472358703613,-65.185546875,199.6307373046875,168.1671142578125
0.7299998999999999,0.3878606855869293,1.3287819623947144,6.950367450714111,-33.203125,-21.484375,122.589111328125
0.7499998999999999,0.37828385829925537,0.8571242094039917,7.668628215789795,-140.899658203125,-179.2755126953125,0.2288818359375
0.7699999,0.49799394607543945,0.8643068075180054,7.515398979187012,-290.2069091796875,-121.551513671875,0.4119873046875
0.7899999,0.5961562395095825,0.9409212470054626,6.909666061401367,-228.7139892578125,53.7872314453125,154.1748046875
0.8099999,0.6033388376235962,0.9696516990661621,6.7277069091796875,-26.6571044921875,144.8211669921875,183.441162109375
0.8299999,0.4572925269603729,0.4165911078453064,7.445967197418213,-14.2059326171875,55.328369140625,89.752197265625
0.8499998999999999,0.2106897532939911,-0.8571242094039917,8.875306129455566,15.2740478515625,-14.1448974609375,82.4737548828125
0.8699998999999999,-0.13168109953403473,-2.4420857429504395,10.400412559509277,30.7769775390625,2.7923583984375,114.501953125
0.8899999,-0.43095630407333374,-3.4739866256713867,11.312602996826172,-21.942138671875,13.702392578125,64.94140625
0.9099999,-0.5746083855628967,-3.3494882583618164,11.293449401855469,-97.7020263671875,-14.3585205078125,-30.3192138671875
0.9299999,-0.6631938815116882,-2.1978771686553955,10.797849655151367,-84.259033203125,-27.130126953125,1.6326904296875
0.9499999,-0.730231523513794,-0.1412578970193863,10.029311180114746,7.0037841796875,-12.0849609375,83.648681640625
0.9699998999999999,-0.8523358106613159,1.8076223134994507,9.287108421325684,15.838623046875,-30.517578125,95.6268310546875
0.9899998999999999,-1.0989385843276978,2.7940332889556885,9.093177795410156,49.6063232421875,-22.613525390625,89.508056640625
1.0099999,-1.3048399686813354,2.8227639198303223,9.083600997924805,119.0643310546875,-30.8685302734375,80.474853515625
1.0299999,-1.4053963422775269,2.4013843536376953,9.009381294250488,134.5367431640625,-61.614990234375,50.1861572265625
1.0499999,-1.4413094520568848,1.9560627937316895,8.530540466308594,177.642822265625,-67.138671875,-7.4615478515625
1.0699999,-1.3862427473068237,1.7094600200653076,7.625532627105713,334.3658447265625,12.0086669921875,-34.5001220703125
1.0899999,-1.41257905960083,1.9967641830444336,6.584054470062256,380.4931640625,96.6644287109375,-40.95458984375
1.1099999,-1.525106430053711,3.0550012588500977,5.6455278396606445,349.0753173828125,131.5765380859375,-102.630615234375
1.1299999,-1.764526605606079,4.93923807144165,5.171475887298584,325.4852294921875,160.3851318359375,-121.917724609375
1.1499999,-2.161964178085327,7.086836814880371,5.260061264038086,145.9197998046875,183.04443359375,-29.1748046875
1.1699998999999999,-2.6791117191314697,8.729259490966797,5.635950565338135,66.9403076171875,158.9202880859375,75.469970703125
1.1899998999999999,-3.1962592601776123,9.294290542602539,6.100425720214844,59.6923828125,132.232666015625,47.5006103515625
1.2099999,-3.576937437057495,9.05487060546875,6.631938934326172,90.9271240234375,143.4783935546875,-57.1746826171875
1.2299999,-3.8498764038085938,8.329427719116211,6.751648902893066,101.3336181640625,116.9891357421875,-51.8951416015625
1.2499999,-3.9647979736328125,8.056488990783691,6.8043212890625,28.62548828125,94.3450927734375,10.1318359375
1.2699999,-4.000710964202881,8.271966934204102,6.957550048828125,55.908203125,94.3603515625,24.0478515625
1.2899999,-4.106055736541748,8.341399192810059,6.919242858886719,15.380859375,53.2684326171875,53.22265625
1.3099999,-4.266467571258545,7.814674377441406,6.722918510437012,-75.103759765625,37.5213623046875,46.5850830078125
1.3299999,-4.51067590713501,7.386112213134766,6.651092529296875,-82.000732421875,95.489501953125,-50.3997802734375
1.3499999,-4.6950297355651855,7.072471618652344,6.342240333557129,-40.3900146484375,86.639404296875,-102.1270751953125
1.3699999,-4.867412090301514,7.417236804962158,6.2392897605896,-18.0511474609375,37.2772216796875,-33.782958984375
1.3899999,-4.9799394607543945,7.8098859786987305,6.418854713439941,-52.520751953125,29.9530029296875,43.1671142578125
1.4099999,-5.073313236236572,7.826645374298096,6.845022678375244,-71.3653564453125,25.69580078125,14.8773193359375
1.4299998999999999,-5.173870086669922,7.242460250854492,7.371747016906738,-109.832763671875,-7.62939453125,-63.2476806640625
1.4499999,-5.228936672210693,6.452373504638672,7.690176010131836,-156.982421875,-47.0123291015625,-91.24755859375
1.4699999,-5.1331682205200195,6.296750545501709,7.876923561096191,-157.2723388671875,-11.9171142578125,-76.751708984375
1.4899999,-5.0014872550964355,6.481103897094727,7.68538761138916,-106.1248779296875,34.9578857421875,-45.4559326171875
1.5099999,-4.833893299102783,6.619967937469482,7.508216381072998,-32.1807861328125,17.63916015625,-28.411865234375
1.5299999,-4.759673118591309,6.320692539215088,7.860164165496826,17.333984375,-19.1650390625,-72.479248046875
1.5499999,-4.467580318450928,5.3127336502075195,8.681375503540039,-24.017333984375,-110.8856201171875,-136.444091796875
1.5699999,-4.067748546600342,3.9264907836914062,9.29189682006836,-101.3641357421875,-217.8955078125,-123.870849609375
1.5899999,-4.01268196105957,2.5665841102600098,10.199298858642578,-107.6202392578125,-186.2335205078125,-29.815673828125
1.6099999,-4.1156325340271,2.229001760482788,9.373299598693848,241.3787841796875,-157.073974609375,-74.737548828125
1.6299999,-4.350264549255371,2.999934673309326,9.172186851501465,11.199951171875,-30.7769775390625,-235.0616455078125
1.6499999,-4.441244125366211,5.652710437774658,8.99740982055664,-198.211669921875,-55.6640625,15.6707763671875
1.6699999,-4.4508209228515625,7.412448406219482,8.226476669311523,-58.8836669921875,-335.0372314453125,424.5452880859375
1.6899998999999999,-3.9049429893493652,7.489062786102295,8.923190116882324,-500,-127.716064453125,499.9847412109375
1.7099999,-3.552995204925537,5.018246650695801,8.633491516113281,-483.09326171875,-22.2320556640625,332.0159912109375
1.7299999,-2.9735984802246094,0.8738836050033569,7.65186882019043,499.9847412109375,-68.4356689453125,-102.2186279296875
1.7499999,-2.604891538619995,-2.1811177730560303,7.184999465942383,462.0819091796875,173.9959716796875,-362.0147705078125
1.7699999,-2.559401512145996,-2.557007312774658,6.916848659515381,-231.201171875,281.0516357421875,-467.4072265625
1.7899999,-2.82515811920166,-0.08858546614646912,7.503427982330322,-103.33251953125,126.8768310546875,-322.93701171875
1.8099999,-3.4332852363586426,3.5697548389434814,8.743624687194824,-104.1412353515625,-84.6099853515625,-28.533935546875
1.8299999,-3.8570590019226074,6.744466304779053,9.607931137084961,-6.9427490234375,-141.0064697265625,171.112060546875
1.8499999,-4.185064792633057,8.10437297821045,9.670180320739746,20.3399658203125,-21.6064453125,235.321044921875
1.8699999,-4.381389141082764,7.491456985473633,9.131484985351562,-33.0810546875,98.1292724609375,178.7261962890625
1.8899999,-4.448426723480225,5.623979568481445,8.901641845703125,-106.8115234375,100.9979248046875,103.6376953125
1.9099999,-4.41969633102417,3.4380736351013184,9.284713745117188,-133.1329345703125,5.0048828125,68.2830810546875
1.9299998999999999,-4.1874589920043945,1.5514427423477173,9.854534149169922,-55.9539794921875,-96.8475341796875,45.3643798828125
1.9499999,-3.8786067962646484,0.24420857429504395,10.283096313476562,-19.561767578125,-114.2730712890625,44.342041015625
1.9699999,-3.529053211212158,-0.4189853072166443,10.256759643554688,-23.0255126953125,-79.071044921875,24.505615234375
1.9899999,-3.0166940689086914,-0.47884035110473633,9.787496566772461,-9.9334716796875,-72.4029541015625,0.5035400390625
2.0099999,-2.5115175247192383,-0.24660277366638184,9.263166427612305,4.852294921875,-66.162109375,-4.6234130859375
2.0299999,-1.9321208000183105,0.028730420395731926,8.576030731201172,42.6788330078125,-42.4041748046875,33.2183837890625
2.0499999,-1.4676456451416016,0.40940847992897034,8.250418663024902,-18.341064453125,-35.400390625,33.538818359375
2.0699999,-1.0534487962722778,0.7757213711738586,8.018181800842285,-126.40380859375,-14.7552490234375,12.2833251953125
2.0899999,-0.8164227604866028,1.0678139925003052,8.130708694458008,-95.3521728515625,-11.0015869140625,60.516357421875
2.1099999,-0.6703764796257019,0.8882488012313843,8.633491516113281,-26.0162353515625,22.27783203125,106.6741943359375
2.1299999,-0.5339069962501526,0.13407529890537262,9.30386734008789,16.2506103515625,34.6221923828125,81.6650390625
2.1499999,-0.5434837937355042,-1.0127472877502441,9.988609313964844,-61.004638671875,-9.9945068359375,9.6435546875
2.1699999,-0.5770025849342346,-1.9800047874450684,10.326191902160645,-124.1302490234375,-59.5703125,-36.3006591796875
2.1899999,-0.6224924325942993,-2.2170307636260986,10.005369186401367,-130.523681640625,-58.77685546875,-8.4686279296875
2.2099999,-0.6392518281936646,-1.702277421951294,9.083600997924805,-111.7401123046875,-14.83154296875,62.5152587890625
2.2299999,-0.6009446382522583,-1.0749965906143188,8.006210327148438,-21.78955078125,52.001953125,146.4691162109375
2.2499999,-0.5195417404174805,-0.6847416758537292,7.122750282287598,-16.998291015625,73.6083984375,172.4395751953125
2.2699999,-0.6823474764823914,-1.1348515748977661,6.691793918609619,-77.1331787109375,44.2657470703125,146.1181640625
2.2899999,-1.161187767982483,-2.7461493015289307,6.722918510437012,-7.4310302734375,46.1578369140625,157.562255859375
2.3099999,-1.6974890232086182,-4.637568473815918,7.225700855255127,47.6837158203125,75.347900390625,57.2662353515625
2.3299999,-2.296039342880249,-5.621585369110107,8.030152320861816,72.57080078125,56.732177734375,-137.054443359375
2.3499999,-2.5522189140319824,-5.4228668212890625,9.150638580322266,59.478759765625,37.7349853515625,-97.320556640625
2.3699999,-2.5498247146606445,-3.8762125968933105,10.431536674499512,77.2552490234375,41.7327880859375,-14.0838623046875
2.3899999,-2.3319525718688965,-1.9249382019042969,11.657367706298828,66.95556640625,-17.02880859375,-13.0157470703125
2.4099999,-2.094926595687866,-0.26815059781074524,12.267889976501465,-44.49462890625,-111.328125,-84.8388671875
2.4299999,-1.8195933103561401,0.5339069962501526,12.200851440429688,-51.3458251953125,-107.6202392578125,-56.15234375
2.4499999,-1.6639702320098877,0.7972691655158997,11.63342571258545,-1.922607421875,-6.2255859375,-7.232666015625
2.4699999,-1.599326729774475,0.6991068720817566,10.711658477783203,9.4757080078125,43.426513671875,-34.454345703125
2.4899999,-1.680729627609253,0.20111294090747833,9.95748519897461,10.8489990234375,34.72900390625,-52.642822265625
2.5099999,-1.8100165128707886,-0.3663128614425659,9.617507934570312,48.5687255859375,39.7796630859375,-32.28759765625
2.5299999,-2.011129379272461,-0.7350199222564697,9.59835433959961,71.96044921875,31.4178466796875,-34.4696044921875
2.5499999,-2.231395959854126,-0.849941611289978,9.658209800720215,35.5377197265625,-27.2064208984375,-57.708740234375
2.5699999,-2.4803929328918457,-0.6607996821403503,9.583989143371582,-4.1351318359375,-55.4962158203125,-55.48095703125
2.5899999,-2.6216509342193604,-0.12689268589019775,9.550470352172852,-9.1552734375,1.3275146484375,-31.7535400390625
2.6099999,-2.7222073078155518,0.4596867263317108,9.442731857299805,34.149169921875,44.4488525390625,-12.7410888671875
2.6299999,-2.6168625354766846,0.7541735172271729,9.533711433410645,40.22216796875,-1.8463134765625,-6.0272216796875
2.6499999,-2.341529369354248,0.5099649429321289,9.804255485534668,15.1214599609375,-52.3681640625,-20.8740234375
2.6699999,-2.126051187515259,-0.004788403399288654,10.187328338623047,-9.46044921875,-84.7015380859375,-52.703857421875
2.6899999,-1.8722656965255737,-0.43335050344467163,10.326191902160645,-9.307861328125,-120.0714111328125,-72.723388671875
2.7099999,-1.6879122257232666,-0.5291185975074768,10.199298858642578,12.1612548828125,-122.8485107421875,-40.069580078125
2.7299999,-1.50355863571167,-0.24181437492370605,9.90241813659668,38.2080078125,-76.66015625,-22.125244140625
2.7499999,-1.2186486721038818,-0.011971008032560349,9.466673851013184,41.68701171875,-40.924072265625,-9.6893310546875
2.7699999,-0.9050082564353943,0.2106897532939911,9.14345645904541,25.5584716796875,-31.8603515625,-31.768798828125
2.7899999,-0.5746083855628967,0.2561795711517334,9.05487060546875,15.5029296875,-43.5638427734375,-50.2166748046875
2.8099999,-0.28969839215278625,0.5099649429321289,9.023746490478516,7.3699951171875,-53.3294677734375,-51.910400390625
2.8299999,-0.028730420395731926,1.115697979927063,9.064447402954102,9.552001953125,-14.862060546875,-52.215576171875
2.8499999,0.181959331035614,1.6927006244659424,9.220070838928223,46.93603515625,39.276123046875,-14.404296875
2.8699999,0.35434186458587646,2.22660756111145,9.378087997436523,40.863037109375,26.336669921875,-5.31005859375
2.8899999,0.4644751250743866,2.434903144836426,9.72285270690918,29.8309326171875,3.9825439453125,-25.08544921875
2.9099999,0.5027823448181152,2.4684219360351562,9.943120002746582,35.369873046875,-6.4849853515625,-32.3486328125
2.9299999,0.49559974670410156,2.516305923461914,9.81143856048584,12.5579833984375,-12.6190185546875,-26.5350341796875
2.9499999,0.4620809257030487,2.612074136734009,9.50498104095459,-1.800537109375,13.8397216796875,-16.2353515625
2.9699999,0.3998316824436188,2.693476915359497,9.17697525024414,54.046630859375,52.6123046875,-15.7012939453125
2.9899999,0.26336219906806946,2.827552318572998,9.078812599182129,89.2181396484375,52.7191162109375,-19.53125
3.0099999,0.06703764945268631,2.9712042808532715,9.208099365234375,64.94140625,31.5093994140625,-10.955810546875
3.0299999,-0.16998831927776337,3.1747114658355713,9.464279174804688,29.296875,14.34326171875,4.974365234375
3.0499999,-0.3902548849582672,3.3494882583618164,9.643844604492188,31.494140625,19.775390625,11.71875
3.0699999,-0.49320554733276367,3.160346269607544,9.600749015808105,59.906005859375,18.2647705078125,15.3350830078125
3.0899999,-0.5602431893348694,2.80361008644104,9.411606788635254,2.105712890625,19.2108154296875,-8.1939697265625
3.1099999,-0.5985504388809204,2.6240451335906982,9.370905876159668,-60.2874755859375,44.3267822265625,-67.0928955078125
3.1299999,-0.6991068720817566,2.7102363109588623,9.423578262329102,25.8331298828125,12.1307373046875,-34.7137451171875
3.1499999,-0.8259995579719543,3.1052796840667725,9.435548782348633,-5.9814453125,-56.2591552734375,33.75244140625
3.1699999,-1.0678139925003052,3.4596214294433594,9.378087997436523,-23.3306884765625,-48.3551025390625,45.8221435546875
3.1899999,-1.2880805730819702,3.3949780464172363,9.030928611755371,-13.9617919921875,-1.7852783203125,35.7666015625
3.2099999,-1.5753847360610962,3.00711727142334,8.647856712341309,-49.6978759765625,10.223388671875,16.876220703125
3.2299999,-1.7693150043487549,2.382230758666992,8.38449478149414,-58.319091796875,-5.31005859375,21.3470458984375
3.2499999,-1.8722656965255737,1.6879122257232666,8.31985092163086,-37.7349853515625,-9.857177734375,20.2789306640625
3.2699999,-1.922544002532959,1.0295066833496094,8.334216117858887,5.5999755859375,20.6451416015625,-12.0849609375
3.2899999,-1.9081788063049316,0.4381389021873474,8.283937454223633,0.244140625,31.92138671875,-40.4052734375
3.3099999,-1.9512743949890137,0.16519992053508759,8.111555099487305,-15.4266357421875,35.4766845703125,-61.6455078125
3.3299999000000002,-1.9632453918457031,0.3208230137825012,7.884106159210205,-18.37158203125,51.1322021484375,-72.2198486328125
3.3499999,-1.9800047874450684,0.8475474119186401,7.565677165985107,-20.20263671875,66.131591796875,-67.230224609375
3.3699999,-1.9943699836730957,1.5897499322891235,7.189787864685059,-25.5126953125,74.310302734375,-60.6536865234375
3.3899999,-2.118868589401245,2.365471363067627,6.825869083404541,-37.6129150390625,92.5140380859375,-62.01171875
3.4099999,-2.233790159225464,2.9951462745666504,6.653486728668213,-16.845703125,124.3438720703125,-63.5223388671875
3.4299999,-2.3535003662109375,3.557783842086792,7.062894821166992,34.637451171875,159.3017578125,-72.0977783203125
3.4499999,-2.3367409706115723,4.046200752258301,7.970297336578369,74.5849609375,128.7689208984375,-69.305419921875
3.4699999,-2.2170307636260986,4.489128112792969,9.162610054016113,53.3447265625,63.2781982421875,-51.116943359375
3.4899999,-2.0829553604125977,4.714183330535889,10.374075889587402,51.5289306640625,40.3900146484375,-22.9034423828125
3.5099999,-2.0614075660705566,4.680664539337158,11.166556358337402,37.872314453125,18.2342529296875,-1.1138916015625
3.5299999,-2.1811177730560303,4.335899353027344,11.678915977478027,12.0391845703125,5.55419921875,3.60107421875
3.5499999,-2.3104045391082764,4.019864559173584,12.12902545928955,29.11376953125,3.47900390625,-3.7078857421875
3.5699999,-2.4396915435791016,3.7876269817352295,12.440272331237793,23.6663818359375,-8.6517333984375,7.75146484375
3.5899999,-2.5282769203186035,3.361459255218506,12.507309913635254,10.6658935546875,-29.937744140625,56.9610595703125
3.6099999,-2.6431987285614014,2.765302896499634,12.267889976501465,3.204345703125,-26.123046875,53.22265625
3.6299999,-2.8107926845550537,1.9704279899597168,11.781867027282715,-2.8228759765625,-16.7388916015625,8.0718994140625
3.6499999,-3.021482467651367,1.213860273361206,11.257535934448242,-0.0152587890625,-21.0418701171875,-1.6021728515625
3.6699999,-3.2321722507476807,0.8906430602073669,10.797849655151367,8.97216796875,-31.6619873046875,8.9874267578125
3.6899999,-3.4165258407592773,0.9552865028381348,10.493785858154297,12.786865234375,-18.6614990234375,13.763427734375
3.7099999,-3.6128504276275635,1.113303780555725,10.271124839782715,12.3443603515625,6.2713623046875,13.3056640625
3.7299999,-3.914519786834717,1.216254472732544,10.153809547424316,17.0135498046875,15.655517578125,12.2222900390625
3.7499999,-4.194641590118408,1.137245774269104,10.323798179626465,9.368896484375,-1.1749267578125,10.9710693359375
3.7699999,-4.434061527252197,1.0869675874710083,10.572794914245605,5.79833984375,-38.9251708984375,1.2969970703125
3.7899999,-4.501099109649658,1.072602391242981,10.821791648864746,-1.7242431640625,-54.901123046875,-0.518798828125
3.8099999,-4.4077253341674805,1.1180921792984009,10.742782592773438,-24.7802734375,-58.1817626953125,16.815185546875
3.8299999000000002,-4.19224739074707,1.070208191871643,10.400412559509277,-30.059814453125,-50.7659912109375,26.458740234375
3.8499999,-3.9456443786621094,0.8164227604866028,9.96945571899414,-27.83203125,-40.008544921875,15.9912109375
3.8699999,-3.691859006881714,0.524330198764801,9.581595420837402,-31.79931640625,-49.1943359375,-12.8021240234375
3.8899999,-3.4141316413879395,0.47165772318840027,9.375694274902344,-38.4674072265625,-51.2847900390625,-22.857666015625
3.9099999,-3.1244332790374756,0.706289529800415,9.301473617553711,-47.6226806640625,-49.285888671875,7.049560546875
3.9299999,-2.846705913543701,1.1013327836990356,9.047688484191895,-58.4564208984375,-64.9261474609375,34.4390869140625
3.9499999,-2.6408045291900635,1.3407529592514038,8.808267593383789,-52.2613525390625,-55.8013916015625,26.0162353515625
3.9699999,-2.4899697303771973,1.2713210582733154,8.463502883911133,-42.8619384765625,-48.065185546875,5.035400390625
3.9899999,-2.427720546722412,1.0989385843276978,8.092401504516602,-35.919189453125,-49.652099609375,-20.69091796875
4.0099999,-2.408566951751709,0.8523358106613159,8.063671112060547,-7.0953369140625,-21.9268798828125,-27.099609375
4.029999900000001,-2.403778553009033,0.9074024558067322,8.281543731689453,3.4942626953125,-14.8773193359375,-38.787841796875
4.0499999,-2.365471363067627,1.2713210582733154,8.777143478393555,-5.79833984375,-18.5546875,-53.22265625
4.069999900000001,-2.231395959854126,1.9488801956176758,9.411606788635254,-1.4190673828125,-10.833740234375,-38.330078125
4.0899999000000005,-2.008735179901123,2.6240451335906982,9.823410034179688,7.843017578125,-16.5863037109375,-7.7972412109375
4.1099999,-1.723825216293335,3.0621838569641113,10.036493301391602,12.0391845703125,-14.1448974609375,-1.220703125
4.1299999000000005,-1.479616641998291,2.853888511657715,10.132261276245117,20.782470703125,2.9144287109375,-4.4708251953125
4.1499999,-1.3192051649093628,2.1595699787139893,10.046070098876953,22.3236083984375,-0.18310546875,-15.411376953125
4.1699999000000005,-1.1683704853057861,1.3934253454208374,9.828198432922363,17.6849365234375,-5.859375,-38.818359375
4.1899999,-0.9361328482627869,0.9481038451194763,9.646238327026367,27.6031494140625,24.3377685546875,-57.6629638671875
4.209999900000001,-0.6033388376235962,0.9720458984375,9.493009567260742,35.09521484375,47.2564697265625,-51.1322021484375
4.2299999,-0.31603461503982544,1.113303780555725,9.567230224609375,34.2864990234375,26.5655517578125,-19.134521484375
4.249999900000001,-0.22744916379451752,1.1013327836990356,9.691728591918945,60.3790283203125,-19.2718505859375,5.67626953125
4.2699999,-0.4884171485900879,0.8259995579719543,9.57441234588623,63.0035400390625,-30.242919921875,-6.683349609375
4.289999900000001,-0.9552865028381348,0.6775590777397156,9.253589630126953,23.284912109375,24.6734619140625,-50.3997802734375
4.3099999,-1.5059528350830078,1.0582371950149536,8.913613319396973,40.802001953125,82.1075439453125,-66.8792724609375
4.329999900000001,-1.9800047874450684,1.9105730056762695,8.844181060791016,69.793701171875,67.5048828125,-17.0745849609375
4.3499999,-2.319981336593628,2.827552318572998,9.009381294250488,85.7696533203125,-3.387451171875,35.21728515625
4.369999900000001,-2.5474305152893066,3.354276657104492,9.29189682006836,78.155517578125,-33.935546875,45.074462890625
4.3899999,-2.6240451335906982,3.4093432426452637,9.53849983215332,31.219482421875,-10.467529296875,19.83642578125
4.409999900000001,-2.5258827209472656,3.339911460876465,9.581595420837402,28.045654296875,-11.9171142578125,-6.8817138671875
4.4299999,-2.38462495803833,3.380612850189209,9.653421401977539,23.92578125,-17.608642578125,-2.593994140625
4.449999900000001,-2.1763293743133545,3.533841609954834,9.785101890563965,48.4161376953125,-11.53564453125,23.6663818359375
4.4699999,-2.0422539710998535,3.5003228187561035,10.08437728881836,84.3505859375,-24.10888671875,33.6456298828125
4.489999900000001,-1.965639591217041,3.265691041946411,10.457873344421387,82.2296142578125,-43.609619140625,20.660400390625
4.5099999,-1.8818424940109253,3.2321722507476807,10.781089782714844,-19.317626953125,-54.8553466796875,-13.97705078125
4.529999900000001,-1.8602946996688843,3.4524388313293457,10.836156845092773,-69.6868896484375,-39.4287109375,-19.47021484375
4.5499999,-1.8124107122421265,3.9600095748901367,10.500968933105469,24.7344970703125,-29.4952392578125,43.975830078125
4.569999900000001,-1.7573440074920654,4.400542736053467,10.278307914733887,34.85107421875,29.0374755859375,82.763671875
4.5899999000000005,-1.7094600200653076,4.235342979431152,10.307038307189941,38.848876953125,73.1048583984375,90.6982421875
4.609999900000001,-1.4652514457702637,3.5960910320281982,10.563218116760254,57.3577880859375,8.1329345703125,47.2412109375
4.6299999000000005,-1.3192051649093628,2.8634653091430664,10.852916717529297,36.3311767578125,-59.3414306640625,15.7623291015625
4.6499999,-1.1013327836990356,2.1763293743133545,10.630255699157715,52.3529052734375,-74.27978515625,34.7747802734375
4.6699999000000005,-0.9720458984375,1.8483237028121948,10.029311180114746,31.951904296875,-28.717041015625,34.759521484375
4.6899999,-0.8188169598579407,1.9991583824157715,9.35893440246582,-31.43310546875,25.115966796875,-3.3721923828125
4.709999900000001,-0.6584054827690125,2.5234885215759277,8.887276649475098,-29.754638671875,21.7437744140625,0.823974609375
4.7299999,-0.4908113479614258,3.268085241317749,8.71728801727295,-79.40673828125,-19.317626953125,52.6275634765625
4.749999900000001,-0.40222588181495667,3.890577793121338,8.631096839904785,-99.395751953125,-30.7464599609375,74.7222900390625
4.7699999,-0.4572925269603729,4.048594951629639,8.461109161376953,-78.704833984375,-14.34326171875,54.6417236328125
4.789999900000001,-0.569819986820221,3.8522706031799316,8.17380428314209,-34.1644287109375,-13.5498046875,18.2647705078125
4.8099999,-0.6033388376235962,3.6727054119110107,7.7883381843566895,9.002685546875,-22.2320556640625,0.0457763671875
4.829999900000001,-0.5171475410461426,3.7205893993377686,7.3885064125061035,23.773193359375,-19.0582275390625,20.32470703125
4.8499999,-0.29209262132644653,4.072536945343018,7.223306655883789,-5.6610107421875,10.223388671875,30.1666259765625
4.869999900000001,-0.043095629662275314,4.261679172515869,7.374141216278076,-41.290283203125,21.5301513671875,43.5028076171875
4.8899999,0.17956513166427612,4.367023944854736,7.7763671875,-78.67431640625,-17.2119140625,19.134521484375
4.909999900000001,0.3208230137825012,4.290409564971924,8.2312650680542,-67.0166015625,-30.3192138671875,3.2806396484375
4.9299999,0.3758896589279175,4.197035789489746,8.497021675109863,-24.9176025390625,-1.068115234375,22.2015380859375
4.949999900000001,0.3711012601852417,4.110844135284424,8.571242332458496,-17.7764892578125,27.7252197265625,35.3546142578125
4.9699999,0.31842881441116333,3.8953661918640137,8.5903959274292,-31.4788818359375,27.7862548828125,33.63037109375
4.989999900000001,0.2298433631658554,3.5745432376861572,8.743624687194824,-47.9736328125,13.7786865234375,21.3623046875
5.0099999,0.17238251864910126,3.224989652633667,8.959102630615234,-36.2701416015625,-1.739501953125,13.641357421875
5.029999900000001,0.1388636976480484,2.9879636764526367,9.08838939666748,-26.2603759765625,-15.625,19.4854736328125
5.0499999,0.12449848651885986,2.8586769104003906,8.968679428100586,-33.2794189453125,-20.2178955078125,25.360107421875
5.069999900000001,0.09576806426048279,2.801215887069702,8.667010307312012,-38.39111328125,-0.457763671875,26.06201171875
5.0899999000000005,0.047884032130241394,2.762908697128296,8.391676902770996,-49.9114990234375,22.186279296875,28.38134765625
5.109999900000001,-0.07661445438861847,2.5330653190612793,8.22887134552002,-62.652587890625,17.51708984375,39.8406982421875
5.1299999000000005,-0.2513911724090576,2.1068975925445557,8.47786808013916,-34.1339111328125,15.350341796875,36.9720458984375
5.1499999,-0.42616790533065796,1.577778935432434,8.980650901794434,-1.5411376953125,15.8233642578125,5.9661865234375
5.1699999000000005,-0.545877993106842,1.192312479019165,9.682151794433594,-6.072998046875,15.7318115234375,-22.5982666015625
5.1899999,-0.5434837937355042,1.0582371950149536,10.326191902160645,-21.728515625,4.7149658203125,-12.115478515625
5.209999900000001,-0.40222588181495667,1.3694833517074585,10.72602367401123,-41.2445068359375,-16.4794921875,-3.3721923828125
5.2299999,-0.17956513166427612,1.7836803197860718,10.881647109985352,-48.3245849609375,-23.1170654296875,-2.471923828125
5.249999900000001,0.040701430290937424,2.006340980529785,10.733205795288086,-44.49462890625,-26.5960693359375,2.8228759765625
5.2699999,0.2082955539226532,2.0805611610412598,10.448296546936035,-38.6505126953125,-29.083251953125,-11.3525390625
5.289999900000001,0.31364041566848755,1.8938134908676147,10.103530883789062,-30.975341796875,-28.717041015625,-24.6734619140625
5.3099999,0.363918662071228,1.702277421951294,9.916783332824707,-14.8162841796875,-11.1846923828125,-28.472900390625
5.329999900000001,0.363918662071228,1.4173674583435059,9.8784761428833,-4.94384765625,-1.5869140625,-24.90234375
5.3499999,0.33758243918418884,1.1851298809051514,10.007762908935547,4.913330078125,-3.173828125,-28.5797119140625
5.369999900000001,0.3064578175544739,0.9576807022094727,10.189722061157227,15.80810546875,1.28173828125,-45.2117919921875
5.3899999,0.2346317619085312,0.8547300100326538,10.230423927307129,24.0325927734375,12.5274658203125,-56.1981201171875
5.409999900000001,0.16519992053508759,0.9911994934082031,10.141838073730469,40.52734375,28.38134765625,-63.9190673828125
5.4299999,0.1412578970193863,1.4245500564575195,10.062829971313477,62.1185302734375,35.1715087890625,-67.56591796875
5.449999900000001,0.1628057211637497,2.0638017654418945,10.029311180114746,43.9300537109375,11.1846923828125,-59.112548828125
5.4699999,0.2561795711517334,2.6815059185028076,9.93593692779541,7.1563720703125,-28.106689453125,-32.1197509765625
5.489999900000001,0.3687070608139038,3.0550012588500977,9.715670585632324,-17.1966552734375,-33.477783203125,-15.228271484375
5.5099999,0.47405192255973816,2.9951462745666504,9.311050415039062,-16.876220703125,-15.3350830078125,-16.571044921875
5.529999900000001,0.5099649429321289,2.6886885166168213,8.916007041931152,-12.3138427734375,2.3956298828125,-39.520263671875
5.5499999,0.47165772318840027,2.410961151123047,8.769960403442383,-13.9923095703125,5.706787109375,-54.0618896484375
5.569999900000001,0.3519476354122162,2.4444799423217773,9.002198219299316,-14.190673828125,5.401611328125,-45.9747314453125
5.5899999000000005,0.15322890877723694,2.693476915359497,9.59596061706543,-14.373779296875,8.6517333984375,-20.965576171875
5.609999900000001,-0.07661445438861847,2.8778305053710938,10.261548042297363,-22.5830078125,-3.4942626953125,-1.5411376953125
5.6299999000000005,-0.24660277366638184,2.782062292098999,10.65898609161377,-33.02001953125,-24.4140625,0.579833984375
5.6499999,-0.31842881441116333,2.205059766769409,10.596736907958984,-41.5802001953125,-24.4598388671875,0.79345703125
5.6699999000000005,-0.23942017555236816,1.278503656387329,10.120290756225586,-33.050537109375,-2.1820068359375,2.9754638671875
5.6899999,-0.043095629662275314,0.40222588181495667,9.5408935546875,-16.8304443359375,15.716552734375,-24.3988037109375
5.709999900000001,0.2106897532939911,-0.24420857429504395,9.157821655273438,-0.54931640625,15.4571533203125,-42.205810546875
5.7299999,0.4572925269603729,-0.4357447028160095,9.038111686706543,-4.1961669921875,7.965087890625,-31.3873291015625
5.749999900000001,0.6991068720817566,-0.2059013396501541,9.169792175292969,-10.7879638671875,14.3890380859375,-16.754150390625
5.7699999,0.8643068075180054,0.16519992053508759,9.363722801208496,-15.899658203125,19.83642578125,-8.6517333984375
5.789999900000001,0.9696516990661621,0.4429273009300232,9.617507934570312,-15.9149169921875,13.24462890625,-8.97216796875
5.8099999,0.9911994934082031,0.646434485912323,9.926360130310059,-10.528564453125,9.521484375,-17.8375244140625
5.829999900000001,0.9385270476341248,0.727837324142456,10.232817649841309,-5.4168701171875,7.1258544921875,-16.4031982421875
5.8499999,0.8475474119186401,0.811634361743927,10.484209060668945,-6.6070556640625,2.7923583984375,-8.4075927734375
5.869999900000001,0.7326257228851318,0.8451532125473022,10.47942066192627,-17.08984375,-7.6141357421875,-3.8604736328125
5.8899999,0.6655880808830261,0.8667010068893433,10.220847129821777,-21.17919921875,-8.6517333984375,-5.584716796875
5.909999900000001,0.6584054827690125,0.8810662031173706,9.730035781860352,-14.404296875,1.678466796875,-5.950927734375
5.9299999,0.7015010714530945,0.8236053586006165,9.215282440185547,-2.5787353515625,8.941650390625,4.82177734375
5.949999900000001,0.7589619159698486,0.6727706789970398,9.004592895507812,6.5765380859375,13.092041015625,11.2457275390625
5.9699999,0.7541735172271729,0.45010992884635925,9.126696586608887,3.387451171875,9.1552734375,2.6702880859375
5.989999900000001,0.6799532771110535,0.24181437492370605,9.514557838439941,-2.8076171875,0.2593994140625,-5.5694580078125
6.0099999,0.5554547905921936,0.12449848651885986,10.041281700134277,0.91552734375,4.0740966796875,0.7476806640625
6.029999900000001,0.4165911078453064,0.11252748221158981,10.496180534362793,5.157470703125,6.195068359375,10.223388671875
6.0499999,0.2801215946674347,0.08379705995321274,10.764330863952637,-1.373291015625,-6.40869140625,13.5498046875
6.069999900000001,0.1364694982767105,-0.019153613597154617,10.704475402832031,-13.1988525390625,-22.674560546875,9.70458984375
6.0899999000000005,0.004788403399288654,-0.1628057211637497,10.378864288330078,-8.85009765625,-19.7296142578125,4.608154296875
6.109999900000001,-0.09816227108240128,-0.33279404044151306,9.9000244140625,7.4310302734375,-5.9051513671875,3.448486328125
6.1299999000000005,-0.13168109953403473,-0.47644615173339844,9.44752025604248,18.768310546875,-4.150390625,2.899169921875
6.149999900000001,-0.10055647045373917,-0.5722141861915588,9.138668060302734,14.46533203125,-9.27734375,-3.0975341796875
6.1699999000000005,-0.033518824726343155,-0.6368576288223267,8.916007041931152,8.209228515625,-9.6282958984375,-5.4473876953125
6.1899999,0.011971008032560349,-0.6631938815116882,8.743624687194824,9.4146728515625,0.732421875,-7.0648193359375
6.209999900000001,-0.033518824726343155,-0.8020575642585754,8.65982723236084,19.500732421875,13.9617919921875,-14.862060546875
6.2299999,-0.13407529890537262,-0.9217676520347595,8.702922821044922,28.350830078125,17.6544189453125,-38.6962890625
6.249999900000001,-0.24181437492370605,-0.933738648891449,8.93037223815918,30.517578125,21.820068359375,-69.976806640625
6.2699999,-0.2944868206977844,-0.7086837291717529,9.327810287475586,65.3076171875,31.43310546875,-78.3233642578125
6.289999900000001,-0.23702596127986908,-0.05506663769483566,9.68694019317627,80.6427001953125,26.3519287109375,-73.1353759765625
6.3099999,-0.1149216815829277,0.7829039692878723,9.952696800231934,50.6744384765625,17.6849365234375,-50.2471923828125
6.329999900000001,-0.014365210197865963,1.5418659448623657,10.103530883789062,33.355712890625,26.0162353515625,-21.728515625
6.3499999,0.028730420395731926,1.920149803161621,10.27591323852539,47.9583740234375,44.281005859375,0.0457763671875
6.369999900000001,-0.019153613597154617,2.0015525817871094,10.366893768310547,65.673828125,22.7203369140625,-9.3841552734375
6.3899999,-0.10534487664699554,1.8818424940109253,10.409989356994629,45.7763671875,-7.7056884765625,-26.7181396484375
6.409999900000001,-0.22026655077934265,1.766920804977417,10.29746150970459,41.44287109375,7.8125,-13.9007568359375
6.4299999,-0.3232172429561615,1.7860745191574097,10.010157585144043,42.2821044921875,26.7486572265625,-2.1820068359375
6.449999900000001,-0.40701428055763245,1.8962076902389526,9.727641105651855,35.1715087890625,25.604248046875,-5.8746337890625
6.4699999,-0.47405192255973816,2.094926595687866,9.545681953430176,34.1033935546875,16.17431640625,-12.4969482421875
6.489999900000001,-0.5434837937355042,2.2912509441375732,9.543288230895996,41.3360595703125,16.021728515625,-0.5035400390625
6.5099999,-0.6009446382522583,2.5043349266052246,9.679757118225098,57.31201171875,20.9503173828125,17.02880859375
6.529999900000001,-0.6847416758537292,2.6216509342193604,9.926360130310059,59.539794921875,16.082763671875,15.0909423828125
6.5499999,-0.7661445140838623,2.655169725418091,10.230423927307129,33.38623046875,1.46484375,5.6610107421875
6.569999900000001,-0.8475474119186401,2.695871114730835,10.453084945678711,21.4996337890625,-12.1917724609375,3.936767578125
6.5899999000000005,-0.8978256583213806,2.7748796939849854,10.448296546936035,26.0772705078125,-25.2532958984375,14.7247314453125
6.609999900000001,-0.9313444495201111,2.8778305053710938,10.14902114868164,20.0042724609375,-25.8331298828125,23.3306884765625
6.6299999000000005,-0.9552865028381348,2.9472622871398926,9.569623947143555,8.880615234375,-16.998291015625,20.538330078125
6.649999900000001,-1.048660397529602,3.0334534645080566,8.829815864562988,-16.3116455078125,-0.640869140625,7.6446533203125
6.6699999000000005,-0.9959878921508789,3.028665065765381,8.324639320373535,-42.8619384765625,38.2537841796875,4.6844482421875
6.6899999,-1.1037269830703735,2.9257144927978516,8.307879447937012,0.06103515625,56.70166015625,26.031494140625
6.709999900000001,-1.0319008827209473,2.6671407222747803,8.877699851989746,4.5013427734375,39.306640625,20.6146240234375
6.7299999,-1.0342950820922852,2.3702597618103027,9.72285270690918,9.246826171875,-14.7857666015625,-8.819580078125
6.749999900000001,-1.070208191871643,2.31758713722229,10.342951774597168,-6.5765380859375,-54.7943115234375,-35.1715087890625
6.7699999,-1.0462661981582642,2.609679937362671,10.453084945678711,-35.2325439453125,-46.0357666015625,-33.6151123046875
6.789999900000001,-1.0103530883789062,3.155557870864868,10.146626472473145,-31.005859375,-13.702392578125,3.7384033203125
6.8099999,-0.9074024558067322,3.6822822093963623,9.655815124511719,-17.7459716796875,-12.4053955078125,14.404296875
6.829999900000001,-0.7493851184844971,3.9695863723754883,9.181763648986816,-19.195556640625,-31.2042236328125,0.5950927734375
6.8499999,-0.5650315880775452,3.8738183975219727,8.877699851989746,-24.9786376953125,-21.8048095703125,-3.11279296875
6.869999900000001,-0.4165911078453064,3.5482068061828613,8.700529098510742,2.50244140625,-6.65283203125,6.927490234375
6.8899999,-0.35673606395721436,3.361459255218506,8.731653213500977,-27.801513671875,-6.7596435546875,-36.8194580078125
6.909999900000001,-0.38067805767059326,3.4572272300720215,8.987833023071289,-59.6771240234375,-14.739990234375,-66.192626953125
6.9299999,-0.4596867263317108,3.84269380569458,9.421183586120605,-30.4718017578125,-8.3465576171875,-12.1307373046875
6.949999900000001,-0.5195417404174805,4.108449935913086,9.710882186889648,2.5482177734375,-20.1263427734375,61.187744140625
6.9699999,-0.4908113479614258,3.9384617805480957,9.909601211547852,-22.3541259765625,-27.130126953125,63.812255859375
6.989999900000001,-0.3734954595565796,3.2968156337738037,10.012551307678223,-95.39794921875,-27.2064208984375,1.0986328125
7.0099999,-0.2585737705230713,2.3942017555236816,9.959878921508789,-56.640625,-27.34375,-14.4805908203125
7.029999900000001,-0.17238251864910126,1.7357962131500244,9.95748519897461,-6.622314453125,-24.71923828125,-0.1373291015625
7.0499999,-0.1364694982767105,1.482010841369629,9.923966407775879,-8.5296630859375,-18.2342529296875,-3.692626953125
7.069999900000001,-0.20350714027881622,1.455674648284912,9.871294021606445,-9.063720703125,-20.56884765625,10.833740234375
7.0899999000000005,-0.27054479718208313,1.5729905366897583,9.852140426635742,-10.3302001953125,-25.3143310546875,16.2200927734375
7.109999900000001,-0.3734954595565796,1.5825673341751099,9.883264541625977,-18.1427001953125,-23.5595703125,16.4794921875
7.1299999000000005,-0.44771572947502136,1.5442601442337036,9.840168952941895,-22.308349609375,-27.374267578125,10.5133056640625
7.149999900000001,-0.4596867263317108,1.4508862495422363,9.643844604492188,-26.275634765625,-34.1796875,7.26318359375
7.1699999000000005,-0.43095630407333374,1.338358759880066,9.30386734008789,-25.2838134765625,-24.4140625,18.0206298828125
7.1899999,-0.35434186458587646,1.1683704853057861,8.954314231872559,-8.8958740234375,-0.79345703125,18.8751220703125
7.209999900000001,-0.2513911724090576,0.9840168952941895,8.722076416015625,-11.23046875,5.859375,5.3558349609375
7.2299999,-0.11013327538967133,1.0055646896362305,8.647856712341309,-31.43310546875,-10.8795166015625,-16.9525146484375
7.249999900000001,0.05267243832349777,1.1971008777618408,8.683769226074219,-39.154052734375,-11.5814208984375,-4.974365234375
7.2699999,0.21547815203666687,1.5418659448623657,8.827422142028809,-29.815673828125,11.1236572265625,20.3857421875
7.289999900000001,0.35434186458587646,1.800439715385437,9.050082206726074,-20.2178955078125,24.6124267578125,19.95849609375
7.3099999,0.45010992884635925,1.721431016921997,9.423578262329102,-19.2108154296875,15.4876708984375,14.068603515625
7.329999900000001,0.49799394607543945,1.4413094520568848,9.923966407775879,-39.7491455078125,-2.8533935546875,5.2490234375
7.3499999,0.5195417404174805,1.1276689767837524,10.319009780883789,-56.5032958984375,-11.7645263671875,-4.4403076171875
7.369999900000001,0.5171475410461426,0.9576807022094727,10.448296546936035,-46.356201171875,-10.31494140625,1.5411376953125
7.3899999,0.47165772318840027,0.7781155705451965,10.429142951965332,-31.890869140625,8.758544921875,9.6282958984375
7.409999900000001,0.3878606855869293,0.5817909836769104,10.302249908447266,-22.3236083984375,22.2320556640625,9.674072265625
7.4299999,0.3280056416988373,0.4213795065879822,10.02452278137207,-22.979736328125,11.7950439453125,-11.3983154296875
7.449999900000001,0.30885201692581177,0.22744916379451752,9.931148529052734,-9.8876953125,24.5513916015625,-15.31982421875
7.4699999,0.35673606395721436,0.31603461503982544,9.835380554199219,-7.50732421875,22.3388671875,-10.5743408203125
7.489999900000001,0.4405331015586853,0.4812345504760742,9.75397777557373,-13.7786865234375,-2.532958984375,-0.30517578125
7.5099999,0.4668693244457245,0.6488286852836609,9.720458984375,-15.7470703125,-2.9449462890625,10.986328125
7.529999900000001,0.4357447028160095,0.6607996821403503,9.703699111938477,-12.420654296875,19.6533203125,7.62939453125
7.5499999,0.26096799969673157,0.3208230137825012,9.823410034179688,-1.52587890625,7.01904296875,-4.5928955078125
7.569999900000001,0.19632454216480255,0.16519992053508759,10.02452278137207,-5.6610107421875,-6.103515625,-2.1514892578125
7.5899999000000005,0.15322890877723694,0.10534487664699554,10.170568466186523,-12.8021240234375,-5.06591796875,5.859375
7.609999900000001,0.15083470940589905,0.19393034279346466,10.199298858642578,-16.0980224609375,-2.25830078125,5.767822265625
7.6299999000000005,0.16519992053508759,0.2346317619085312,10.113107681274414,6.011962890625,0.5035400390625,23.223876953125
7.649999900000001,0.22266076505184174,0.2777273952960968,9.928754806518555,13.7939453125,-4.33349609375,32.7911376953125
7.6699999000000005,0.30885201692581177,0.2561795711517334,9.763554573059082,12.5885009765625,-4.8065185546875,25.81787109375
7.6899999,0.40222588181495667,0.17956513166427612,9.586383819580078,1.64794921875,-12.6190185546875,17.7764892578125
7.709999900000001,0.4908113479614258,0.07661445438861847,9.442731857299805,-3.96728515625,-19.7296142578125,13.763427734375
7.7299999,0.5626373887062073,0.023942016065120697,9.409213066101074,6.6375732421875,-11.5203857421875,8.6517333984375
7.749999900000001,0.6009446382522583,0.08379705995321274,9.375694274902344,3.9520263671875,-12.969970703125,4.8980712890625
7.7699999,0.6105214357376099,0.2059013396501541,9.32302188873291,-11.260986328125,-20.782470703125,19.0277099609375
7.789999900000001,0.586579442024231,0.38307225704193115,9.251194953918457,-13.12255859375,-3.9825439453125,29.4342041015625
7.8099999,0.5434837937355042,0.4596867263317108,9.165003776550293,-7.415771484375,19.1802978515625,29.144287109375
7.829999900000001,0.4908113479614258,0.42616790533065796,9.23682975769043,0.5340576171875,27.557373046875,20.93505859375
7.8499999,0.44771572947502136,0.24420857429504395,9.548076629638672,8.2244873046875,24.0478515625,23.529052734375
7.869999900000001,0.4381389021873474,-0.0454898327589035,10.053253173828125,5.8135986328125,8.60595703125,24.23095703125
7.8899999,0.40701428055763245,-0.24420857429504395,10.491392135620117,-4.364013671875,-13.5040283203125,8.3160400390625
7.909999900000001,0.4189853072166443,-0.3064578175544739,10.790667533874512,-5.2032470703125,-12.3138427734375,-2.532958984375
7.9299999,0.43095630407333374,-0.1843535304069519,10.860098838806152,11.749267578125,3.9825439453125,11.8865966796875
7.949999900000001,0.4668693244457245,0.004788403399288654,10.759542465209961,16.7694091796875,0.152587890625,27.7557373046875
7.9699999,0.5123591423034668,0.26336219906806946,10.563218116760254,3.082275390625,-9.9029541015625,13.8092041015625
7.989999900000001,0.5315127968788147,0.38307225704193115,10.350133895874023,2.5787353515625,-7.6751708984375,6.7596435546875
8.0099999,0.5099649429321289,0.5339069962501526,10.093954086303711,5.523681640625,-5.5694580078125,5.4473876953125
8.0299999,0.4668693244457245,0.7086837291717529,9.840168952941895,2.1514892578125,-4.638671875,8.4686279296875
8.049999900000001,0.40701428055763245,0.8762778043746948,9.643844604492188,3.570556640625,12.359619140625,15.838623046875
8.069999900000001,0.33758243918418884,0.9193734526634216,9.545681953430176,12.3443603515625,20.416259765625,20.538330078125
8.0899999,0.2753331959247589,0.8858546018600464,9.622296333312988,8.48388671875,11.0321044921875,8.60595703125
8.1099999,0.22505496442317963,0.7781155705451965,9.746794700622559,0.6866455078125,-6.7138671875,-0.9307861328125
8.129999900000001,0.21787235140800476,0.7182605266571045,9.928754806518555,1.52587890625,-10.2691650390625,-1.861572265625
8.149999900000001,0.24181437492370605,0.706289529800415,9.986215591430664,4.9896240234375,-5.2337646484375,3.7841796875
8.1699999,0.2801215946674347,0.6584054827690125,9.90241813659668,-0.67138671875,-5.889892578125,4.3487548828125
8.1899999,0.3064578175544739,0.49559974670410156,9.84256362915039,-0.9307861328125,-4.6539306640625,-1.1138916015625
8.2099999,0.3232172429561615,0.3256114423274994,9.832986831665039,1.64794921875,-8.36181640625,-15.8843994140625
8.229999900000001,0.3495534360408783,0.22744916379451752,9.854534149169922,5.43212890625,-19.0887451171875,-16.5252685546875
8.2499999,0.40462008118629456,0.28730419278144836,9.928754806518555,11.6424560546875,-17.0440673828125,-4.5013427734375
8.2699999,0.5003881454467773,0.4405331015586853,9.962273597717285,17.0440673828125,-7.232666015625,7.1563720703125
8.2899999,0.5985504388809204,0.569819986820221,9.921571731567383,17.39501953125,-7.5225830078125,6.6986083984375
8.309999900000001,0.6799532771110535,0.6368576288223267,9.876082420349121,17.08984375,-8.087158203125,1.8310546875
8.3299999,0.706289529800415,0.5746083855628967,9.806650161743164,23.651123046875,-5.1422119140625,5.4779052734375
8.3499999,0.6703764796257019,0.43335050344467163,9.725247383117676,22.94921875,-5.0811767578125,3.9520263671875
8.3699999,0.5770025849342346,0.29209262132644653,9.691728591918945,11.53564453125,-1.922607421875,-14.404296875
8.389999900000001,0.4692635238170624,0.19393034279346466,9.737217903137207,1.190185546875,2.74658203125,-25.69580078125
8.4099999,0.40462008118629456,0.31603461503982544,9.864110946655273,-2.166748046875,1.9378662109375,-30.70068359375
8.4299999,0.4141969084739685,0.629675030708313,10.000580787658691,1.861572265625,0.152587890625,-23.406982421875
8.4499999,0.5003881454467773,0.9409212470054626,10.08437728881836,7.720947265625,3.8604736328125,-4.3182373046875
8.469999900000001,0.586579442024231,1.0319008827209473,10.093954086303711,2.685546875,7.3089599609375,2.7618408203125
8.4899999,0.6488286852836609,0.849941611289978,10.046070098876953,-4.425048828125,2.777099609375,-9.1552734375
8.5099999,0.6655880808830261,0.5913678407669067,9.959878921508789,-7.2479248046875,-4.669189453125,-24.2919921875
8.5299999,0.6440402865409851,0.4165911078453064,9.847352027893066,-1.77001953125,-2.99072265625,-13.336181640625
8.549999900000001,0.6153098344802856,0.40940847992897034,9.742006301879883,5.5694580078125,6.16455078125,4.9285888671875
8.569999900000001,0.5889736413955688,0.5051765441894531,9.641449928283691,6.7138671875,8.148193359375,3.41796875
8.5899999,0.5626373887062073,0.6177040338516235,9.603142738342285,-1.434326171875,4.0435791015625,-9.185791015625
8.6099999,0.5410895943641663,0.768538773059845,9.63187313079834,-2.7313232421875,3.6163330078125,-8.5296630859375
8.629999900000001,0.524330198764801,0.9289502501487732,9.694122314453125,14.0838623046875,5.828857421875,9.1094970703125
8.649999900000001,0.49799394607543945,1.1085153818130493,9.787496566772461,19.10400390625,7.0343017578125,14.2364501953125
8.6699999,0.4644751250743866,1.139639973640442,9.861717224121094,10.80322265625,4.39453125,9.735107421875
8.6899999,0.40462008118629456,1.0342950820922852,9.892841339111328,-1.495361328125,3.173828125,4.1351318359375
8.709999900000001,0.3471592366695404,0.8810662031173706,9.90241813659668,-6.2103271484375,5.157470703125,-3.2806396484375
8.729999900000001,0.304063618183136,0.811634361743927,9.864110946655273,-0.762939453125,3.7689208984375,-4.791259765625
8.7499999,0.2849099934101105,0.7805097699165344,9.876082420349121,7.7667236328125,5.340576171875,3.662109375
8.7699999,0.2777273952960968,0.7374141216278076,9.931148529052734,8.3160400390625,3.9215087890625,6.8817138671875
8.7899999,0.304063618183136,0.7206547260284424,10.010157585144043,2.5634765625,-0.6256103515625,-5.340576171875
8.809999900000001,0.33997663855552673,0.730231523513794,10.055646896362305,-5.67626953125,-5.2642822265625,-13.6871337890625
8.8299999,0.395043283700943,0.768538773059845,10.072406768798828,-0.0457763671875,-2.777099609375,-2.197265625
8.8499999,0.45250412821769714,0.8834604024887085,10.038887977600098,6.28662109375,-0.5340576171875,3.143310546875
8.8699999,0.48602294921875,0.9672574996948242,9.967061996459961,2.716064453125,-3.7994384765625,-1.6632080078125
8.889999900000001,0.5027823448181152,0.993593692779541,9.895236015319824,-1.556396484375,-2.4871826171875,-1.5411376953125
8.9099999,0.49559974670410156,0.9696516990661621,9.823410034179688,-1.861572265625,0.8087158203125,3.631591796875
8.9299999,0.48602294921875,0.9145850539207458,9.78989028930664,1.5106201171875,2.8533935546875,3.8604736328125
8.9499999,0.47165772318840027,0.8259995579719543,9.81143856048584,1.495361328125,0.9307861328125,0.48828125
8.969999900000001,0.45489832758903503,0.7469909191131592,9.854534149169922,-1.64794921875,-1.708984375,-2.532958984375
8.9899999,0.44771572947502136,0.706289529800415,9.892841339111328,-4.6539306640625,-1.0833740234375,-0.152587890625
9.0099999,0.44771572947502136,0.7182605266571045,9.892841339111328,-4.8370361328125,1.03759765625,2.7008056640625
9.0299999,0.44771572947502136,0.7589619159698486,9.856928825378418,-4.82177734375,0.6866455078125,2.9144287109375
9.049999900000001,0.4405331015586853,0.7350199222564697,9.825803756713867,-3.387451171875,0.9765625,5.3863525390625
9.069999900000001,0.4141969084739685,0.6967126727104187,9.823410034179688,-3.387451171875,2.8533935546875,2.01416015625
9.0899999,0.38067805767059326,0.6703764796257019,9.854534149169922,-4.94384765625,2.0751953125,-4.364013671875
9.1099999,0.3423708379268646,0.5961562395095825,9.950302124023438,-2.3345947265625,1.739501953125,0.7476806640625
9.129999900000001,0.3208230137825012,0.586579442024231,10.031704902648926,-1.15966796875,0.701904296875,1.6632080078125
9.149999900000001,0.3208230137825012,0.5291185975074768,10.046070098876953,-2.13623046875,-2.899169921875,-0.67138671875
9.1699999,0.3447650372982025,0.4908113479614258,9.964667320251465,-4.4403076171875,-1.6632080078125,-3.0059814453125
9.1899999,0.37828385829925537,0.5099649429321289,9.797073364257812,-6.9122314453125,0.2593994140625,-7.4615478515625
9.209999900000001,0.40462008118629456,0.5674257874488831,9.63187313079834,-2.3040771484375,1.1749267578125,-2.7313232421875
9.229999900000001,0.4118026793003082,0.6512228846549988,9.560047149658203,0.6103515625,5.706787109375,1.52587890625
9.2499999,0.40222588181495667,0.727837324142456,9.5408935546875,-3.204345703125,3.7384033203125,0.6866455078125
9.2699999,0.38546648621559143,0.7733271718025208,9.600749015808105,-3.35693359375,1.8463134765625,-2.4261474609375
9.2899999,0.3758896589279175,0.8259995579719543,9.691728591918945,-0.4730224609375,4.1046142578125,-2.227783203125
9.309999900000001,0.37828385829925537,0.8690952062606812,9.765948295593262,-1.03759765625,2.5482177734375,2.3651123046875
9.3299999,0.38546648621559143,0.8738836050033569,9.837775230407715,-2.50244140625,0.457763671875,5.9967041015625
9.3499999,0.3926490843296051,0.7996633648872375,9.888052940368652,-1.861572265625,0.91552734375,3.5400390625
9.3699999,0.3998316824436188,0.6967126727104187,9.897629737854004,-3.265380859375,-0.0762939453125,-3.0364990234375
9.389999900000001,0.3998316824436188,0.608127236366272,9.897629737854004,-3.1585693359375,0.0762939453125,-4.913330078125
9.4099999,0.3974374830722809,0.569819986820221,9.911994934082031,0.5645751953125,2.685546875,0.3662109375
9.4299999,0.38546648621559143,0.5770025849342346,9.955090522766113,2.532958984375,2.3193359375,1.1138916015625
9.4499999,0.3758896589279175,0.6224924325942993,9.995792388916016,0.1068115234375,-1.5411376953125,-2.3193359375
9.469999900000001,0.363918662071228,0.6488286852836609,10.007762908935547,-1.739501953125,-3.60107421875,-1.8157958984375
9.4899999,0.3519476354122162,0.6847416758537292,9.96945571899414,-1.2664794921875,-1.9073486328125,1.0223388671875
9.5099999,0.3447650372982025,0.7134721279144287,9.8784761428833,-0.030517578125,-0.2899169921875,0.5645751953125
9.5299999,0.33758243918418884,0.7110779285430908,9.746794700622559,-1.068115234375,-1.190185546875,0.9613037109375
9.549999900000001,0.3256114423274994,0.6631938815116882,9.62947940826416,-1.5716552734375,-0.30517578125,1.40380859375
9.569999900000001,0.3232172429561615,0.6392518281936646,9.583989143371582,1.5716552734375,3.3721923828125,-2.13623046875
9.5899999,0.3232172429561615,0.608127236366272,9.579200744628906,3.204345703125,1.6632080078125,-3.082275390625
9.6099999,0.33279404044151306,0.629675030708313,9.703699111938477,1.861572265625,2.0904541015625,-1.40380859375
9.629999900000001,0.33518823981285095,0.6272808313369751,9.816226959228516,-1.46484375,-0.7171630859375,1.678466796875
9.649999900000001,0.3423708379268646,0.6248866319656372,9.919178009033203,-0.579833984375,-2.5482177734375,1.190185546875
9.6699999,0.3423708379268646,0.5961562395095825,9.96945571899414,2.1514892578125,-0.2288818359375,-3.60107421875
9.6899999,0.3423708379268646,0.5578489899635315,9.923966407775879,2.1820068359375,-3.692626953125,-2.7313232421875
9.709999900000001,0.3519476354122162,0.5841852426528931,9.895236015319824,0.9765625,-1.068115234375,-4.2572021484375
9.729999900000001,0.3519476354122162,0.5961562395095825,9.828198432922363,0.42724609375,-0.2593994140625,-1.5716552734375
9.7499999,0.35434186458587646,0.6560112833976746,9.797073364257812,-0.701904296875,-0.79345703125,-2.25830078125
9.7699999,0.3423708379268646,0.6607996821403503,9.80904483795166,0.30517578125,2.4261474609375,-1.0986328125
9.7899999,0.33039984107017517,0.629675030708313,9.861717224121094,1.5106201171875,1.8463134765625,0.18310546875
9.809999900000001,0.3280056416988373,0.5746083855628967,9.931148529052734,1.220703125,0.2593994140625,-3.1585693359375
9.8299999,0.33279404044151306,0.4908113479614258,9.986215591430664,-0.48828125,-2.74658203125,-4.5623779296875
9.8499999,0.3447650372982025,0.3447650372982025,10.029311180114746,0.2899169921875,-1.2359619140625,-3.7384033203125
9.8699999,0.3663128614425659,0.26575639843940735,10.065223693847656,-2.3345947265625,-1.678466796875,-11.16943359375
9.889999900000001,0.3734954595565796,0.12928688526153564,10.15141487121582,-5.9814453125,-3.265380859375,-12.5885009765625
9.9099999,0.35673606395721436,-0.08379705995321274,10.266336441040039,-0.3814697265625,-5.462646484375,-10.223388671875
9.9299999,0.31364041566848755,-0.2082955539226532,10.436325073242188,11.4288330078125,-1.434326171875,-28.717041015625
9.9499999,0.27054479718208313,-0.19871874153614044,10.594342231750488,17.3187255859375,0.91552734375,-40.924072265625
9.969999900000001,0.2298433631658554,-0.026336219161748886,10.685321807861328,13.48876953125,-7.1258544921875,-22.6287841796875
9.9899999,0.22744916379451752,0.3447650372982025,10.735600471496582,4.94384765625,-8.3770751953125,-10.4217529296875
10.0099999,0.2537853717803955,0.7038952708244324,10.680533409118652,-1.9073486328125,-10.8489990234375,-10.2386474609375
10.0299999,0.28730419278144836,0.9217676520347595,10.515334129333496,-6.9580078125,-17.3492431640625,-11.16943359375
10.049999900000001,0.33039984107017517,1.0055646896362305,10.280701637268066,-8.8653564453125,-17.6239013671875,-10.8642578125
10.069999900000001,0.3663128614425659,0.993593692779541,10.014945983886719,-8.5296630859375,-14.129638671875,-11.0321044921875
10.0899999,0.40462008118629456,0.9624691009521484,9.825803756713867,-8.8043212890625,-10.68115234375,-11.749267578125
10.1099999,0.4381389021873474,0.9361328482627869,9.715670585632324,-12.2528076171875,-13.18359375,-10.589599609375
10.129999900000001,0.47884035110473633,0.9433154463768005,9.658209800720215,-16.8609619140625,-17.4407958984375,-6.195068359375
10.149999900000001,0.5339069962501526,0.950498104095459,9.57201862335205,-18.096923828125,-13.6871337890625,-1.9989013671875
10.1699999,0.5889736413955688,0.9193734526634216,9.385271072387695,-18.6920166015625,-9.1552734375,-0.1220703125
10.1899999,0.646434485912323,0.8355764150619507,9.17697525024414,-17.7154541015625,-4.2572021484375,-2.01416015625
10.209999900000001,0.6847416758537292,0.7038952708244324,9.030928611755371,-16.815185546875,2.3956298828125,-3.8604736328125
10.229999900000001,0.7038952708244324,0.6177040338516235,8.999804496765137,-14.5263671875,3.2806396484375,-8.1939697265625
10.2499999,0.6871358752250671,0.5219359993934631,9.102754592895508,-10.498046875,3.4637451171875,-5.828857421875
10.2699999,0.6344634294509888,0.45250412821769714,9.327810287475586,-8.30078125,7.232666015625,-5.4168701171875
10.2899999,0.5770025849342346,0.3998316824436188,9.670180320739746,-8.2550048828125,11.749267578125,-13.4429931640625
10.309999900000001,0.5099649429321289,0.35913026332855225,10.050858497619629,-13.48876953125,5.3253173828125,-15.4876708984375
10.3299999,0.4644751250743866,0.3064578175544739,10.407594680786133,-15.07568359375,-5.43212890625,-8.1787109375
10.3499999,0.43335050344467163,0.24420857429504395,10.649409294128418,-10.55908203125,-6.317138671875,-7.2784423828125
10.3699999,0.3878606855869293,0.11013327538967133,10.723628997802734,-11.932373046875,-4.5623779296875,-12.5732421875
10.389999900000001,0.35913026332855225,-0.05027823522686958,10.673351287841797,-16.2200927734375,-5.1727294921875,-19.8211669921875
10.4099999,0.33279404044151306,-0.1173158809542656,10.474632263183594,-18.00537109375,-9.33837890625,-23.37646484375
10.4299999,0.3256114423274994,-0.2082955539226532,10.165780067443848,-6.5155029296875,-5.8135986328125,-10.7574462890625
10.4499999,0.33758243918418884,-0.26336219906806946,9.816226959228516,-4.08935546875,9.4146728515625,-13.5345458984375
10.469999900000001,0.37828385829925537,-0.3016694188117981,9.610325813293457,-13.3819580078125,21.7132568359375,-33.477783203125
10.4899999,0.4141969084739685,-0.3471592366695404,9.617507934570312,-17.7459716796875,14.3585205078125,-35.4766845703125
10.5099999,0.47405192255973816,-0.31603461503982544,9.821015357971191,-16.90673828125,-6.6070556640625,-24.2767333984375
10.5299999,0.507570743560791,-0.2777273952960968,10.17296314239502,-14.1448974609375,-8.7432861328125,-20.4315185546875
10.549999900000001,0.5051765441894531,-0.3878606855869293,10.462661743164062,-12.7716064453125,-9.368896484375,-19.83642578125
10.569999900000001,0.5027823448181152,-0.5339069962501526,10.575188636779785,-15.167236328125,-19.2413330078125,-32.16552734375
10.5899999,0.5291185975074768,-0.6272808313369751,10.651803016662598,-20.7672119140625,-17.303466796875,-44.586181640625
10.6099999,0.5817909836769104,-0.6200982332229614,10.647014617919922,-21.6064453125,-13.97705078125,-34.8052978515625
10.629999900000001,0.6416460275650024,-0.5889736413955688,10.591948509216309,-20.1263427734375,-23.3306884765625,-17.27294921875
10.649999900000001,0.7134721279144287,-0.5363011956214905,10.577583312988281,-14.8468017578125,-21.1944580078125,-22.7203369140625
10.6699999,0.7805097699165344,-0.586579442024231,10.54645824432373,-9.063720703125,-12.75634765625,-31.0211181640625
10.6899999,0.8451532125473022,-0.7829039692878723,10.556035041809082,-6.561279296875,-14.373779296875,-22.2015380859375
10.709999900000001,0.933738648891449,-0.9050082564353943,10.625467300415039,-5.7373046875,-26.9622802734375,-29.388427734375
10.729999900000001,1.0223240852355957,-1.0295066833496094,10.72841739654541,-7.6904296875,-38.1622314453125,-41.1529541015625
10.7499999,1.1085153818130493,-1.039083480834961,10.735600471496582,-14.7552490234375,-43.701171875,-35.5987548828125
10.7699999,1.137245774269104,-1.1851298809051514,10.769119262695312,-14.16015625,-38.909912109375,-24.810791015625
10.7899999,1.170764684677124,-1.3431471586227417,10.809821128845215,-6.5155029296875,-28.7017822265625,-35.797119140625
10.809999900000001,1.2234370708465576,-1.3934253454208374,10.797849655151367,-11.3983154296875,-41.046142578125,-71.380615234375
10.8299999,1.2689268589019775,-1.5298948287963867,10.960655212402344,-10.345458984375,-44.49462890625,-61.1572265625
10.8499999,1.3958195447921753,-1.3934253454208374,11.008539199829102,0.0457763671875,-44.00634765625,-50.750732421875
10.8699999,1.6065093278884888,-1.1180921792984009,10.87446403503418,-1.8157958984375,-58.4869384765625,-69.4122314453125
10.889999900000001,1.8171991109848022,-0.8882488012313843,10.723628997802734,-27.1453857421875,-56.2744140625,-72.0977783203125
10.9099999,2.0661959648132324,-0.6560112833976746,10.414777755737305,-38.8336181640625,-48.1109619140625,-58.59375
10.9299999,2.31758713722229,-0.3926490843296051,9.979032516479492,-44.830322265625,-64.02587890625,-59.539794921875
10.9499999,2.5282769203186035,-0.20111294090747833,9.500192642211914,-42.66357421875,-65.6585693359375,-60.9588623046875
10.969999900000001,2.760514497756958,-0.016759412363171577,8.937555313110352,-35.125732421875,-44.98291015625,-56.7169189453125
10.9899999,2.9735984802246094,0.2082955539226532,8.497021675109863,-29.6173095703125,-29.47998046875,-54.962158203125
11.0099999,3.1914708614349365,0.4189853072166443,8.214506149291992,-34.1339111328125,-35.247802734375,-48.797607421875
11.0299999,3.383007049560547,0.43095630407333374,8.159439086914062,-43.0145263671875,-45.7916259765625,-36.3311767578125
11.049999900000001,3.5003228187561035,0.1604115068912506,8.283937454223633,-54.19921875,-38.3148193359375,-33.8592529296875
11.069999900000001,3.6104562282562256,-0.22026655077934265,8.487444877624512,-51.7730712890625,-30.426025390625,-57.403564453125
11.0899999,3.6966474056243896,-0.706289529800415,8.71728801727295,-30.33447265625,-31.5093994140625,-59.87548828125
11.1099999,3.804386615753174,-0.9241618514060974,8.892065048217773,-27.3590087890625,-42.449951171875,-54.168701171875
11.129999900000001,3.847482204437256,-1.1085153818130493,8.96149730682373,-27.0843505859375,-46.9970703125,-53.52783203125
11.149999900000001,3.9217023849487305,-1.0247182846069336,8.889671325683594,-27.923583984375,-40.5426025390625,-64.117431640625
11.1699999,4.02465295791626,-0.8092401623725891,8.746018409729004,-20.0042724609375,-29.541015625,-78.8726806640625
11.1899999,4.197035789489746,-0.5003881454467773,8.485051155090332,-20.355224609375,-29.0679931640625,-53.4820556640625
11.209999900000001,4.501099109649658,0.033518824726343155,8.13789176940918,-29.083251953125,-25.909423828125,-38.8641357421875
11.229999900000001,4.812345504760742,0.4620809257030487,7.747636795043945,-22.5372314453125,-16.2811279296875,-35.369873046875
11.2499999,5.003881454467773,0.5482721924781799,7.433996200561523,-17.547607421875,-13.5040283203125,-23.223876953125
11.2699999,5.116408824920654,0.5602431893348694,7.266402244567871,-23.74267578125,-21.54541015625,-34.1339111328125
11.2899999,5.149928092956543,0.4405331015586853,7.247248649597168,-26.580810546875,-23.773193359375,-40.52734375
11.309999900000001,5.183446884155273,0.2968810200691223,7.331045627593994,-21.2554931640625,-14.2059326171875,-23.3306884765625
11.3299999,5.231330871582031,0.19153612852096558,7.350199222564697,-17.8680419921875,-14.312744140625,-18.5089111328125
11.3499999,5.279214859008789,0.06464344263076782,7.38132381439209,-17.5323486328125,-15.7623291015625,-28.5797119140625
11.3699999,5.295974254608154,-0.17956513166427612,7.457938194274902,-10.4217529296875,-10.5438232421875,-30.21240234375
11.389999900000001,5.279214859008789,-0.44771572947502136,7.553706169128418,-8.575439453125,-15.2435302734375,-29.47998046875
11.4099999,5.336675643920898,-0.569819986820221,7.627926826477051,-7.476806640625,-20.660400390625,-37.3382568359375
11.4299999,5.427655220031738,-0.7134721279144287,7.654263019561768,-1.434326171875,-18.5546875,-37.04833984375
11.4499999,5.513846397399902,-0.8427590131759644,7.647080421447754,6.28662109375,-17.913818359375,-38.1317138671875
11.469999900000001,5.595249176025391,-0.7637503147125244,7.603984832763672,10.6658935546875,-26.214599609375,-58.7005615234375
11.4899999,5.669469833374023,-0.48602294921875,7.398083209991455,11.16943359375,-39.520263671875,-69.2291259765625
11.5099999,5.7125654220581055,-0.09816227108240128,7.196970462799072,22.6287841796875,-33.416748046875,-59.8297119140625
11.5299999,5.810727596282959,0.4118026793003082,7.101202011108398,33.4930419921875,-17.63916015625,-61.09619140625
11.549999900000001,5.928043365478516,1.0749965906143188,7.038952827453613,19.22607421875,-47.332763671875,-91.156005859375
11.569999900000001,6.09324312210083,2.0183119773864746,6.9695210456848145,-13.3514404296875,-78.857421875,-112.9150390625
11.5899999,6.291962146759033,3.1962592601776123,6.813898086547852,4.852294921875,-57.0068359375,-85.601806640625
11.6099999,6.557718276977539,4.668693542480469,6.536170482635498,40.6646728515625,-33.38623046875,-60.821533203125
11.629999900000001,6.830657482147217,5.8657941818237305,6.0190229415893555,29.6630859375,-67.9931640625,-57.9986572265625
11.649999900000001,7.0557122230529785,6.509834289550781,5.669469833374023,26.2908935546875,-79.925537109375,-53.03955078125
11.6699999,7.137115478515625,6.430825710296631,5.224148273468018,56.82373046875,-81.8023681640625,-70.953369140625
11.6899999,6.7277069091796875,5.803544998168945,4.369418144226074,87.799072265625,-125.9002685546875,-123.8555908203125
11.709999900000001,5.856217384338379,5.439626216888428,2.7293899059295654,93.048095703125,-170.8221435546875,-226.2115478515625
11.729999900000001,4.369418144226074,7.304709434509277,-0.40940847992897034,63.4002685546875,-188.629150390625,-326.416015625
11.7499999,2.6815059185028076,14.15212631225586,-7.187393665313721,29.5257568359375,-217.1630859375,-384.765625
11.7699999,-0.5315127968788147,27.0808162689209,-19.31881332397461,-41.900634765625,-140.8538818359375,-341.217041015625
11.7899999,-8.777143478393555,42.48031997680664,-31.251514434814453,177.1697998046875,481.8267822265625,237.6556396484375
11.809999900000001,-22.41691017150879,52.67961883544922,-36.10456085205078,496.6583251953125,499.9847412109375,499.9847412109375
11.8299999,-40.47876739501953,52.80172348022461,-25.89568519592285,469.23828125,499.9847412109375,499.9847412109375
11.8499999,-57.566184997558594,40.04302215576172,-4.448426723480225,-380.7830810546875,499.9847412109375,428.985595703125
11.8699999,-67.22918701171875,13.28063678741455,23.001094818115234,-500,309.6466064453125,499.9847412109375
11.889999900000001,-63.80068588256836,-3.7038300037384033,43.96232986450195,328.5369873046875,244.6136474609375,-56.9610595703125
11.9099999,-51.5375862121582,-14.85362720489502,51.492095947265625,166.0003662109375,-50.96435546875,-183.3343505859375
11.9299999,-35.09181594848633,-18.22705841064453,44.90325164794922,-500,-230.9722900390625,499.9847412109375
11.9499999,-19.333179473876953,-14.231135368347168,32.120609283447266,-204.7119140625,36.712646484375,417.938232421875
11.969999900000001,-8.820239067077637,-13.201627731323242,16.05072784423828,192.9931640625,253.47900390625,-16.2353515625
11.9899999,-2.4875755310058594,-13.496114730834961,5.78678560256958,20.4925537109375,63.1561279296875,-15.3045654296875
12.0099999,0.6967126727104187,-12.083536148071289,2.0374655723571777,-113.8458251953125,-26.2451171875,109.344482421875
12.0299999,1.7549498081207275,-8.904036521911621,2.8107926845550537,-16.4947509765625,-38.0706787109375,100.2197265625
12.049999900000001,1.2976573705673218,-6.098031520843506,5.152322292327881,30.426025390625,-39.581298828125,-6.7291259765625
12.069999900000001,0.23942017555236816,-4.036623954772949,7.0317702293396,-55.2825927734375,-3.8604736328125,8.0108642578125
12.0899999,-0.6368576288223267,-2.609679937362671,8.597578048706055,-60.272216796875,26.702880859375,72.784423828125
12.1099999,-1.0749965906143188,-1.742978811264038,9.588777542114258,20.3399658203125,13.5040283203125,52.5970458984375
12.129999900000001,-1.2234370708465576,-1.9177556037902832,10.417171478271484,22.247314453125,-31.402587890625,-18.5089111328125
12.149999900000001,-1.0295066833496094,-2.4205379486083984,10.977415084838867,-3.662109375,-61.1572265625,-16.5252685546875
12.1699999,-0.6153098344802856,-1.845929503440857,10.556035041809082,-36.31591796875,-85.723876953125,-1.556396484375
12.1899999,-0.19153612852096558,-1.4269442558288574,10.33098030090332,-47.576904296875,2.38037109375,41.6259765625
12.209999900000001,0.028730420395731926,-0.9840168952941895,9.818621635437012,-41.015625,49.5758056640625,41.3665771484375
12.229999900000001,0.16519992053508759,-1.556231141090393,9.93593692779541,-0.4730224609375,36.07177734375,25.665283203125
12.2499999,0.24660277366638184,-2.1116859912872314,10.014945983886719,-8.148193359375,-14.4500732421875,-11.0931396484375
12.2699999,0.31842881441116333,-2.4420857429504395,10.201693534851074,-31.0516357421875,-19.6533203125,-16.7999267578125
12.289999900000002,0.2849099934101105,-2.52109432220459,10.199298858642578,-17.120361328125,22.705078125,19.9127197265625
12.309999900000001,0.26815059781074524,-1.9919757843017578,10.053253173828125,10.009765625,18.4783935546875,11.3067626953125
12.3299999,0.22026655077934265,-1.5179238319396973,10.06043529510498,8.1634521484375,6.927490234375,3.1280517578125
12.3499999,0.14844051003456116,-1.2880805730819702,10.199298858642578,-24.35302734375,-3.6773681640625,16.1895751953125
12.3699999,0.11971008777618408,-1.3431471586227417,10.374075889587402,-36.0260009765625,-16.7694091796875,10.589599609375
12.389999900000001,0.11971008777618408,-1.5490485429763794,10.558429718017578,-51.1016845703125,-47.7447509765625,-24.8565673828125
12.4099999,0.17477671802043915,-1.9919757843017578,10.587160110473633,-107.330322265625,-72.9827880859375,-38.5284423828125
12.4299999,0.26096799969673157,-1.889025092124939,10.046070098876953,-115.6463623046875,-81.207275390625,-31.829833984375
12.4499999,0.47405192255973816,-1.867477297782898,9.198522567749023,3.47900390625,-3.5400390625,21.1181640625
12.469999900000001,0.6200982332229614,-1.7621324062347412,8.161833763122559,38.9556884765625,74.70703125,37.6434326171875
12.4899999,0.6536170840263367,-1.9057846069335938,7.922413349151611,11.4593505859375,126.3275146484375,19.012451171875
12.5099999,0.5291185975074768,-2.3965959548950195,8.367734909057617,8.9263916015625,102.1575927734375,31.951904296875
12.5299999,0.5003881454467773,-2.940079689025879,9.610325813293457,-1.861572265625,5.06591796875,20.8282470703125
12.549999900000001,0.48602294921875,-3.138798475265503,10.508151054382324,-59.6466064453125,-103.08837890625,-56.121826171875
12.569999900000001,0.586579442024231,-3.3494882583618164,10.826580047607422,-105.438232421875,-118.499755859375,-87.249755859375
12.5899999,0.6200982332229614,-3.2824504375457764,10.467450141906738,-104.4158935546875,-33.5235595703125,-69.6258544921875
12.6099999,0.629675030708313,-3.098097085952759,9.787496566772461,-20.965576171875,16.6778564453125,-66.5130615234375
12.629999900000001,0.6153098344802856,-2.999934673309326,9.404424667358398,24.5361328125,7.5531005859375,-51.727294921875
12.649999900000001,0.8619126081466675,-3.0310592651367188,9.337387084960938,10.101318359375,-21.026611328125,-12.908935546875
12.6699999,1.2665326595306396,-3.3039982318878174,9.29189682006836,-64.3310546875,-69.1986083984375,21.453857421875
12.6899999,1.647210717201233,-3.5865142345428467,9.294290542602539,-134.1400146484375,-65.61279296875,8.1939697265625
12.709999900000001,1.800439715385437,-3.4979286193847656,9.196128845214844,-117.3248291015625,-24.2919921875,0.0152587890625
12.729999900000001,1.7860745191574097,-3.354276657104492,8.853757858276367,-34.698486328125,-16.3726806640625,59.234619140625
12.7499999,1.6974890232086182,-3.1699230670928955,8.607154846191406,28.961181640625,3.2806396484375,108.551025390625
12.7699999,1.580173134803772,-3.294421434402466,8.489839553833008,25.1007080078125,34.4085693359375,41.7327880859375
12.789999900000002,1.501164436340332,-4.01268196105957,8.463502883911133,-33.721923828125,24.3682861328125,-10.5133056640625
12.809999900000001,1.3287819623947144,-4.659116744995117,8.707711219787598,-55.6640625,-0.5645751953125,-15.44189453125
12.8299999,1.1659762859344482,-4.819528102874756,8.877699851989746,-18.707275390625,-12.4664306640625,-13.6566162109375
12.8499999,0.9744400978088379,-4.642356872558594,9.004592895507812,-0.7476806640625,-2.0294189453125,24.8870849609375
12.8699999,0.849941611289978,-4.304774761199951,8.983044624328613,1.708984375,3.997802734375,48.7823486328125
12.889999900000001,0.6416460275650024,-4.086902141571045,9.095572471618652,35.0341796875,3.4027099609375,24.2462158203125
12.9099999,0.6009446382522583,-3.8953661918640137,9.313444137573242,76.6448974609375,-5.8441162109375,-6.683349609375
12.9299999,0.3998316824436188,-3.955221176147461,9.502586364746094,32.8216552734375,-41.8853759765625,20.721435546875
12.9499999,0.40701428055763245,-3.957615375518799,9.514557838439941,28.778076171875,-29.876708984375,29.7393798828125
12.969999900000001,0.38546648621559143,-3.9839515686035156,9.198522567749023,49.6826171875,-3.2501220703125,-0.6561279296875
12.9899999,0.5123591423034668,-3.9217023849487305,8.741230010986328,81.9854736328125,29.6630859375,-30.82275390625
13.0099999,0.586579442024231,-3.7158010005950928,8.564059257507324,57.0526123046875,46.2188720703125,-13.5498046875
13.0299999,0.5722141861915588,-3.711012601852417,8.492233276367188,-4.150390625,3.692626953125,31.951904296875
13.049999900000001,0.6033388376235962,-3.622427225112915,8.755595207214355,23.4375,-8.7127685546875,-1.2969970703125
13.069999900000001,0.5315127968788147,-3.40216064453125,8.889671325683594,40.71044921875,-10.009765625,-38.818359375
13.0899999,0.5626373887062073,-3.1651346683502197,9.02135181427002,0.2593994140625,0.3204345703125,11.29150390625
13.1099999,0.5770025849342346,-2.964021682739258,9.042900085449219,-20.44677734375,11.444091796875,52.4444580078125
13.129999900000001,0.5793967843055725,-2.9065608978271484,9.258378028869629,11.0015869140625,15.9454345703125,5.9967041015625
13.149999900000001,0.49320554733276367,-3.0861260890960693,9.459490776062012,27.130126953125,5.79833984375,-30.5328369140625
13.1699999,0.4141969084739685,-3.1459810733795166,9.674968719482422,-15.2130126953125,-5.0506591796875,-0.9613037109375
13.1899999,0.27054479718208313,-3.117250680923462,9.6989107131958,-34.3475341796875,3.3721923828125,37.41455078125
13.209999900000001,0.17238251864910126,-3.004723072052002,9.643844604492188,16.1590576171875,23.0865478515625,15.68603515625
13.229999900000001,0.21547815203666687,-2.75812029838562,9.476250648498535,44.2047119140625,18.9361572265625,-36.5753173828125
13.2499999,0.38307225704193115,-2.319981336593628,9.35893440246582,-17.578125,4.82177734375,-17.486572265625
13.2699999,0.5410895943641663,-2.0159177780151367,9.296685218811035,-54.0008544921875,8.23974609375,60.455322265625
13.289999900000002,0.49559974670410156,-2.190694570541382,9.397241592407227,-27.5115966796875,28.6407470703125,72.93701171875
13.309999900000001,0.33758243918418884,-2.698265314102173,9.742006301879883,18.8446044921875,41.0919189453125,-9.33837890625
13.3299999,0.05746084079146385,-2.9305028915405273,10.230423927307129,-29.022216796875,1.983642578125,-69.1680908203125
13.3499999,-0.1628057211637497,-2.782062292098999,10.673351287841797,-93.719482421875,-43.548583984375,15.594482421875
13.3699999,-0.3471592366695404,-2.3367409706115723,10.788272857666016,-68.0389404296875,-52.3529052734375,106.99462890625
13.389999900000001,-0.4405331015586853,-2.22660756111145,10.553641319274902,-26.611328125,-26.8096923828125,74.15771484375
13.4099999,-0.44771572947502136,-2.427720546722412,10.213664054870605,-19.744873046875,2.62451171875,1.556396484375
13.4299999,-0.3256114423274994,-2.585737943649292,9.832986831665039,-55.6182861328125,-14.5416259765625,9.368896484375
13.4499999,-0.1604115068912506,-2.6144683361053467,9.564835548400879,-34.2864990234375,-36.43798828125,88.5467529296875
13.469999900000001,-0.0071826050989329815,-2.9544448852539062,9.421183586120605,21.8963623046875,-22.247314453125,123.7640380859375
13.4899999,0.11971008777618408,-3.751713991165161,9.368511199951172,43.7164306640625,1.8310546875,65.97900390625
13.5099999,0.36152446269989014,-4.347870349884033,9.378087997436523,-0.8697509765625,-19.3634033203125,-20.3704833984375
13.5299999,0.629675030708313,-4.54419469833374,9.385271072387695,-25.5279541015625,-52.4444580078125,12.4053955078125
13.549999900000001,0.7876923680305481,-4.273650169372559,9.253589630126953,19.287109375,-49.407958984375,105.8807373046875
13.569999900000001,0.7493851184844971,-4.252102375030518,8.949525833129883,47.607421875,-27.740478515625,101.409912109375
13.5899999,0.6871358752250671,-4.587290287017822,8.683769226074219,58.04443359375,4.791259765625,25.32958984375
13.6099999,0.7110779285430908,-4.730942726135254,8.456320762634277,21.2249755859375,-3.7078857421875,-28.8543701171875
13.629999900000001,0.8451532125473022,-4.446032524108887,8.327033042907715,4.8675537109375,-23.62060546875,24.383544921875
13.649999900000001,1.0989385843276978,-3.97916316986084,8.336610794067383,47.0733642578125,-4.8065185546875,91.7816162109375
13.6699999,1.3287819623947144,-3.734954595565796,8.432378768920898,63.2781982421875,11.53564453125,53.03955078125
13.6899999,1.5083470344543457,-3.77565598487854,8.547300338745117,29.8614501953125,-5.5084228515625,-15.7928466796875
13.709999900000001,1.644816517829895,-3.9671921730041504,8.676587104797363,3.265380859375,-20.3704833984375,1.7242431640625
13.729999900000001,1.7166426181793213,-4.003105163574219,8.791508674621582,28.6712646484375,0.335693359375,58.04443359375
13.7499999,1.723825216293335,-4.173093795776367,8.789113998413086,58.8531494140625,13.5955810546875,46.4630126953125
13.7699999,1.742978811264038,-4.414907932281494,8.643068313598633,63.4765625,6.9732666015625,-10.284423828125
13.789999900000002,1.8507179021835327,-4.206612586975098,8.580819129943848,14.83154296875,21.942138671875,-56.7779541015625
13.809999900000001,1.9967641830444336,-3.5745432376861572,8.542511940002441,-3.72314453125,37.41455078125,-4.241943359375
13.8299999,2.145204782485962,-2.7533318996429443,8.588001251220703,19.3939208984375,22.6898193359375,66.314697265625
13.8499999,2.2002713680267334,-2.454056739807129,8.822632789611816,40.924072265625,21.4080810546875,55.938720703125
13.8699999,2.1787235736846924,-2.9448680877685547,9.155426979064941,38.4063720703125,37.322998046875,4.2266845703125
13.889999900000001,2.0638017654418945,-3.689464807510376,9.466673851013184,7.0953369140625,37.7960205078125,-34.2559814453125
13.9099999,1.900996208190918,-4.175487995147705,9.856928825378418,-7.110595703125,31.7535400390625,-31.280517578125
13.9299999,1.721431016921997,-4.101267337799072,10.20887565612793,8.2244873046875,26.06201171875,-13.336181640625
13.9499999,1.5298948287963867,-3.7876269817352295,10.51054573059082,22.2625732421875,14.58740234375,-8.6669921875
13.969999900000001,1.3192051649093628,-3.529053211212158,10.548852920532227,25.7110595703125,1.739501953125,-15.4266357421875
13.9899999,1.1635819673538208,-3.3207578659057617,10.230423927307129,8.6822509765625,-6.2408447265625,-33.111572265625
14.0099999,1.0462661981582642,-3.1028854846954346,9.78989028930664,-15.380859375,24.383544921875,-45.196533203125
14.0299999,1.0007762908935547,-2.693476915359497,9.435548782348633,-7.6904296875,59.295654296875,-40.6951904296875
14.049999900000001,1.0271124839782715,-2.1164743900299072,9.41639518737793,15.1214599609375,43.243408203125,-30.1971435546875
14.069999900000001,1.0582371950149536,-1.6663644313812256,9.615114212036133,17.9290771484375,8.8348388671875,-9.6588134765625
14.0899999,1.0749965906143188,-1.5538369417190552,9.799467086791992,2.01416015625,-4.913330078125,2.9144287109375
14.1099999,1.0199298858642578,-1.7980455160140991,9.86889934539795,-18.24951171875,18.85986328125,-14.2822265625
14.129999900000001,0.9074024558067322,-2.1763293743133545,9.742006301879883,-15.0604248046875,27.77099609375,-33.599853515625
14.149999900000001,0.7589619159698486,-2.449268341064453,9.763554573059082,1.89208984375,27.4810791015625,-30.7769775390625
14.1699999,0.5817909836769104,-2.7772738933563232,10.093954086303711,20.263671875,29.144287109375,-13.2293701171875
14.1899999,0.4405331015586853,-2.7700912952423096,10.302249908447266,19.622802734375,-5.767822265625,-39.6728515625
14.209999900000001,0.3064578175544739,-2.9233202934265137,10.599130630493164,-28.7628173828125,-10.3302001953125,-60.2569580078125
14.229999900000001,0.23942017555236816,-2.7533318996429443,10.63743782043457,-21.2249755859375,-0.4730224609375,-46.630859375
14.2499999,0.13168109953403473,-2.784456491470337,10.292673110961914,-6.8511962890625,-18.4173583984375,-18.4326171875
14.2699999,0.15322890877723694,-2.6455929279327393,10.072406768798828,4.57763671875,11.962890625,-22.1710205078125
14.289999900000002,0.011971008032560349,-2.7437551021575928,9.84495735168457,21.8048095703125,64.7125244140625,-3.387451171875
14.309999900000001,0.011971008032560349,-2.9161376953125,10.316615104675293,63.6138916015625,56.1065673828125,27.7099609375
14.3299999,-0.14844051003456116,-2.9735984802246094,10.390835762023926,-0.152587890625,-49.4842529296875,-3.23486328125
14.3499999,-0.22266076505184174,-2.8658595085144043,10.884040832519531,-9.033203125,-35.7666015625,-25.7110595703125
14.3699999,-0.30885201692581177,-2.6647465229034424,10.548852920532227,-12.4053955078125,-35.0494384765625,-10.9100341796875
14.389999900000001,-0.31842881441116333,-2.3032219409942627,10.168174743652344,-16.510009765625,-13.885498046875,-4.1961669921875
14.4099999,-0.3064578175544739,-1.98958158493042,9.641449928283691,-11.8865966796875,-8.5906982421875,-1.52587890625
14.4299999,-0.3016694188117981,-1.8531121015548706,9.229647636413574,-10.3912353515625,-15.1824951171875,3.1890869140625
14.4499999,-0.31364041566848755,-1.9991583824157715,9.006986618041992,-4.45556640625,-3.3111572265625,9.9945068359375
14.469999900000001,-0.35913026332855225,-2.3702597618103027,8.841787338256836,3.7384033203125,0.9918212890625,4.3182373046875
14.4899999,-0.31603461503982544,-3.069366693496704,9.14345645904541,8.4075927734375,-12.1612548828125,-36.895751953125
14.5099999,-0.35673606395721436,-3.426102638244629,9.064447402954102,9.185791015625,-78.0792236328125,-100.4180908203125
14.5299999,-0.3447650372982025,-3.7612907886505127,9.05487060546875,-27.40478515625,-31.4483642578125,-71.3653564453125
14.549999900000001,-0.31603461503982544,-3.7277719974517822,9.016563415527344,44.9371337890625,67.5201416015625,-56.610107421875
14.569999900000001,-0.23702596127986908,-3.529053211212158,8.504204750061035,0.67138671875,14.1448974609375,-82.611083984375
14.5899999,-0.08140286058187485,-3.4404678344726562,8.425195693969727,0.18310546875,40.771484375,-74.554443359375
14.6099999,0.2059013396501541,-3.315969467163086,8.427590370178223,47.5921630859375,39.00146484375,-46.69189453125
14.629999900000001,0.5315127968788147,-3.2154128551483154,8.628703117370605,33.3251953125,-34.942626953125,-37.567138671875
14.649999900000001,0.7230489253997803,-3.1052796840667725,8.971074104309082,11.41357421875,-111.9842529296875,-37.5823974609375
14.6699999,0.849941611289978,-3.0526070594787598,9.339780807495117,34.11865234375,-138.5345458984375,-32.6690673828125
14.6899999,0.6631938815116882,-2.999934673309326,9.337387084960938,62.530517578125,-110.2142333984375,0.9002685546875
14.709999900000001,0.8571242094039917,-2.8347349166870117,9.512163162231445,87.2039794921875,-122.6654052734375,28.2745361328125
14.729999900000001,0.993593692779541,-2.631227731704712,9.437943458557129,55.17578125,-72.784423828125,-21.575927734375
14.7499999,1.5682021379470825,-2.2888567447662354,9.615114212036133,45.59326171875,12.664794921875,-52.8411865234375
14.7699999,2.075772762298584,-1.8818424940109253,9.806650161743164,57.31201171875,48.76708984375,-30.6396484375
14.789999900000002,2.473210334777832,-1.5083470344543457,10.041281700134277,49.13330078125,71.624755859375,-14.6026611328125
14.809999900000001,2.5306711196899414,-1.1659762859344482,10.228029251098633,9.6435546875,82.1990966796875,-20.8587646484375
14.8299999,2.492363929748535,-0.9265560507774353,10.407594680786133,-29.541015625,59.5855712890625,-22.03369140625
14.8499999,2.1978771686553955,-0.8475474119186401,10.371682167053223,-28.411865234375,36.31591796875,-23.4375
14.8699999,1.8602946996688843,-0.9217676520347595,10.196905136108398,-8.331298828125,1.6021728515625,-22.9034423828125
14.889999900000001,1.5179238319396973,-1.0654197931289673,9.959878921508789,5.2032470703125,-26.9317626953125,-15.2130126953125
14.9099999,1.2497732639312744,-1.2090718746185303,9.763554573059082,2.9754638671875,-24.7802734375,-4.7760009765625
14.9299999,1.048660397529602,-1.2689268589019775,9.636661529541016,-31.7230224609375,9.674072265625,-11.260986328125
14.9499999,1.048660397529602,-1.2713210582733154,9.732429504394531,-22.735595703125,35.9039306640625,-23.0865478515625
14.969999900000001,1.039083480834961,-1.2042834758758545,9.782708168029785,-17.486572265625,42.66357421875,-32.3638916015625
14.9899999,1.1228805780410767,-1.2090718746185303,9.885659217834473,-25.482177734375,28.25927734375,-50.10986328125
15.0099999,1.1228805780410767,-1.3239935636520386,9.837775230407715,-33.75244140625,26.824951171875,-42.8619384765625
15.0299999,1.0606313943862915,-1.5466543436050415,9.646238327026367,-46.20361328125,43.212890625,-9.27734375
15.049999900000001,0.9552865028381348,-1.800439715385437,9.457097053527832,-44.9676513671875,54.74853515625,9.002685546875
15.069999900000001,0.8068459630012512,-1.9488801956176758,9.255983352661133,-21.1334228515625,50.3082275390625,-5.37109375
15.0899999,0.6871358752250671,-2.0039467811584473,9.20091724395752,16.4642333984375,53.924560546875,-33.966064453125
15.1099999,0.5147533416748047,-1.9584569931030273,9.181763648986816,15.3656005859375,73.6846923828125,-44.25048828125
15.129999900000001,0.2968810200691223,-2.0207061767578125,9.165003776550293,-13.4429931640625,95.27587890625,-38.5589599609375
15.149999900000001,-0.021547814831137657,-2.0877439975738525,9.08838939666748,-13.427734375,112.0758056640625,-23.5595703125
15.1699999,-0.363918662071228,-2.1763293743133545,9.016563415527344,16.6473388671875,115.570068359375,-25.8026123046875
15.1899999,-0.768538773059845,-2.1523873805999756,9.097966194152832,69.9005126953125,119.44580078125,-39.9322509765625
15.209999900000001,-1.0989385843276978,-2.0661959648132324,9.277531623840332,90.1641845703125,106.4300537109375,-33.1878662109375
15.229999900000001,-1.4173674583435059,-1.8171991109848022,9.524134635925293,82.6263427734375,41.7022705078125,-0.4119873046875
15.2499999,-1.5753847360610962,-1.6065093278884888,9.703699111938477,72.265625,-15.5029296875,16.021728515625
15.2699999,-1.7405846118927002,-1.3024457693099976,9.749189376831055,70.037841796875,-25.726318359375,16.9830322265625
15.289999900000002,-1.800439715385437,-0.8930372595787048,9.694122314453125,61.737060546875,-1.9989013671875,11.8865966796875
15.309999900000001,-1.8579005002975464,-0.40940847992897034,9.634267807006836,46.4324951171875,14.404296875,0.9613037109375
15.3299999,-1.9153614044189453,0.11013327538967133,9.619902610778809,59.967041015625,11.3067626953125,-12.237548828125
15.3499999,-1.946485996246338,0.545877993106842,9.677363395690918,85.8917236328125,9.9945068359375,-22.4761962890625
15.3699999,-1.9943699836730957,0.8188169598579407,9.804255485534668,66.6351318359375,5.6610107421875,-17.1661376953125
15.389999900000001,-2.0254945755004883,0.9552865028381348,9.96945571899414,26.4129638671875,-22.4151611328125,-2.197265625
15.4099999,-2.0925323963165283,1.0582371950149536,10.122684478759766,14.617919921875,-47.3785400390625,4.7149658203125
15.4299999,-2.1499931812286377,1.1420341730117798,10.182539939880371,21.91162109375,-36.92626953125,-0.1220703125
15.4499999,-2.1308395862579346,1.2258312702178955,10.194510459899902,31.3720703125,4.6234130859375,1.2969970703125
15.469999900000001,-2.1164743900299072,1.3862427473068237,10.105925559997559,45.1812744140625,28.6407470703125,12.4969482421875
15.4899999,-2.0398597717285156,1.5322890281677246,10.074800491333008,44.921875,34.698486328125,11.383056640625
15.5099999,-1.9919757843017578,1.742978811264038,9.967061996459961,29.1748046875,37.200927734375,-1.7242431640625
15.5299999,-1.944091796875,1.9273324012756348,9.861717224121094,11.138916015625,27.9083251953125,-12.1002197265625
15.549999900000001,-1.9608511924743652,1.987187385559082,9.742006301879883,5.2642822265625,11.016845703125,-12.6495361328125
15.569999900000001,-1.8794482946395874,1.920149803161621,9.536105155944824,5.55419921875,14.0533447265625,0.7476806640625
15.5899999,-1.8411411046981812,1.8411411046981812,9.337387084960938,-7.9193115234375,3.3721923828125,16.05224609375
15.6099999,-1.7764976024627686,1.7573440074920654,9.23682975769043,-16.448974609375,-5.5084228515625,15.68603515625
15.629999900000001,-1.699883222579956,1.6424223184585571,9.284713745117188,9.918212890625,-5.43212890625,19.47021484375
15.649999900000001,-1.7812861204147339,1.659181833267212,9.423578262329102,32.9132080078125,-38.177490234375,59.6160888671875
15.6699999,-1.8315643072128296,1.3623007535934448,9.998186111450195,49.3927001953125,-44.158935546875,88.043212890625
15.6899999,-1.8938134908676147,1.1300631761550903,9.84495735168457,37.0330810546875,-92.1630859375,46.56982421875
15.709999900000001,-1.86508309841156,0.6943184733390808,10.316615104675293,-8.1787109375,-14.2669677734375,0.48828125
15.729999900000001,-1.745373010635376,0.4118026793003082,10.06043529510498,-11.9781494140625,2.50244140625,-22.0489501953125
15.7499999,-1.479616641998291,0.3447650372982025,9.96945571899414,-5.279541015625,-16.3421630859375,-29.9530029296875
15.7699999,-1.2497732639312744,0.43095630407333374,9.880870819091797,-14.6942138671875,-3.326416015625,-29.9530029296875
15.789999900000002,-1.0247182846069336,0.6655880808830261,9.682151794433594,-24.688720703125,-9.002685546875,-37.7044677734375
15.809999900000001,-0.8667010068893433,0.9864110946655273,9.57201862335205,-27.7099609375,-13.9923095703125,-45.8526611328125
15.8299999,-0.8762778043746948,1.4077905416488647,9.536105155944824,-21.8353271484375,-16.3116455078125,-43.9300537109375
15.8499999,-0.9720458984375,1.8962076902389526,9.531316757202148,-11.6119384765625,-13.9923095703125,-30.1513671875
15.869999900000002,-1.139639973640442,2.363077163696289,9.615114212036133,-14.068603515625,-4.94384765625,-23.1475830078125
15.889999900000001,-1.2976573705673218,2.559401512145996,9.639056205749512,-26.1993408203125,-7.476806640625,-25.7720947265625
15.9099999,-1.4173674583435059,2.6001031398773193,9.823410034179688,-33.294677734375,-12.9547119140625,-40.1458740234375
15.9299999,-1.4963760375976562,2.4660277366638184,9.907206535339355,-37.017822265625,-28.4881591796875,-46.4324951171875
15.9499999,-1.4748282432556152,2.387019157409668,10.108319282531738,-41.1376953125,-22.6898193359375,-35.7513427734375
15.969999900000001,-1.436521053314209,2.4205379486083984,10.134655952453613,-41.50390625,-15.716552734375,-26.275634765625
15.9899999,-1.3263877630233765,2.209848165512085,10.223240852355957,-29.327392578125,-4.150390625,-11.71875
16.0099999,-1.2473790645599365,1.824381709098816,10.211270332336426,-22.7508544921875,0.4425048828125,-14.6484375
16.0299999,-1.1444283723831177,1.280897855758667,10.24000072479248,-22.003173828125,-7.659912109375,-31.9671630859375
16.0499999,-1.1085153818130493,0.7589619159698486,10.273519515991211,-35.70556640625,-13.61083984375,-36.1480712890625
16.0699999,-1.070208191871643,0.507570743560791,10.199298858642578,-35.5224609375,-13.7176513671875,-25.57373046875
16.089999900000002,-1.0893617868423462,0.33279404044151306,10.20648193359375,-18.9361572265625,7.50732421875,-14.007568359375
16.109999900000002,-1.1348515748977661,0.363918662071228,10.201693534851074,-11.71875,2.8533935546875,-25.604248046875
16.1299999,-1.2090718746185303,0.4189853072166443,10.309432983398438,-17.15087890625,-15.1214599609375,-36.102294921875
16.1499999,-1.2497732639312744,0.5123591423034668,10.467450141906738,-9.735107421875,-12.8936767578125,-20.904541015625
16.1699999,-1.280897855758667,0.5027823448181152,10.735600471496582,-6.0272216796875,-2.7618408203125,-6.6070556640625
16.1899999,-1.3024457693099976,0.2537853717803955,11.044452667236328,-17.02880859375,-19.378662109375,-22.308349609375
16.2099999,-1.2880805730819702,-0.27054479718208313,11.310209274291992,-19.8974609375,-42.17529296875,-41.6259765625
16.2299999,-1.2282254695892334,-0.751779317855835,11.365275382995605,-23.2086181640625,-42.5567626953125,-49.98779296875
16.249999900000002,-1.0438719987869263,-1.0989385843276978,11.382035255432129,-27.64892578125,-11.6729736328125,-42.8314208984375
16.269999900000002,-0.8188169598579407,-1.278503656387329,11.164162635803223,-25.2532958984375,-16.3116455078125,-41.0308837890625
16.2899999,-0.6177040338516235,-1.4772224426269531,11.192893028259277,-23.8189697265625,-45.0439453125,-55.2825927734375
16.3099999,-0.47165772318840027,-1.357512354850769,11.192893028259277,-24.0020751953125,-61.2030029296875,-78.125
16.3299999,-0.45010992884635925,-1.3311761617660522,11.233593940734863,-29.96826171875,-50.59814453125,-72.235107421875
16.3499999,-0.4884171485900879,-1.039083480834961,11.341333389282227,-35.09521484375,-33.294677734375,-67.1844482421875
16.3699999,-0.47165772318840027,-0.5841852426528931,11.238382339477539,-22.5677490234375,-52.215576171875,-79.7271728515625
16.3899999,-0.5195417404174805,-0.31124621629714966,11.228805541992188,-29.1290283203125,-59.8297119140625,-78.643798828125
16.4099999,-0.5746083855628967,-0.24181437492370605,11.238382339477539,-10.3302001953125,-42.8314208984375,-76.7974853515625
16.429999900000002,-0.6248866319656372,-0.21308395266532898,11.252747535705566,12.14599609375,-36.31591796875,-95.15380859375
16.4499999,-0.6177040338516235,-0.37828385829925537,11.3269681930542,-6.0577392578125,-54.6417236328125,-115.5242919921875
16.4699999,-0.5195417404174805,-0.5817909836769104,11.384428977966309,-42.90771484375,-78.0792236328125,-118.10302734375
16.4899999,-0.26575639843940735,-0.5793967843055725,11.152191162109375,-68.4051513671875,-91.8121337890625,-122.955322265625
16.5099999,0.15562310814857483,-0.43095630407333374,10.733205795288086,-85.7086181640625,-83.953857421875,-126.708984375
16.5299999,0.629675030708313,-0.22744916379451752,10.287884712219238,-73.1048583984375,-78.4759521484375,-117.8436279296875
16.5499999,1.0845733880996704,-0.33518823981285095,9.979032516479492,-32.1807861328125,-84.2132568359375,-104.3548583984375
16.5699999,1.6759412288665771,-0.26096799969673157,9.670180320739746,-15.3961181640625,-101.2115478515625,-121.7041015625
16.589999900000002,2.2194249629974365,-0.3423708379268646,9.428366661071777,-52.5970458984375,-101.3641357421875,-124.176025390625
16.609999900000002,2.7509377002716064,-0.22744916379451752,9.078812599182129,-62.0269775390625,-89.874267578125,-99.8992919921875
16.6299999,3.2537200450897217,0.07182604819536209,8.683769226074219,-34.3475341796875,-79.9560546875,-87.0208740234375
16.6499999,3.507505416870117,0.10295066982507706,8.552088737487793,-22.186279296875,-77.117919921875,-86.822509765625
16.6699999,3.555389642715454,0.05746084079146385,8.53293514251709,-19.6075439453125,-93.5516357421875,-103.69873046875
16.6899999,3.5889084339141846,0.07661445438861847,8.573636054992676,-5.3863525390625,-97.59521484375,-115.29541015625
16.7099999,3.5386300086975098,0.035913024097681046,8.585607528686523,-6.591796875,-95.2606201171875,-102.783203125
16.7299999,3.5697548389434814,0.2513911724090576,8.38449478149414,-14.34326171875,-104.9957275390625,-106.4605712890625
16.749999900000002,3.7014358043670654,0.6991068720817566,7.91283655166626,-10.3607177734375,-107.5439453125,-121.03271484375
16.769999900000002,3.9001545906066895,1.2330138683319092,7.218518257141113,-11.3372802734375,-93.75,-109.92431640625
16.7899999,4.177882194519043,1.9081788063049316,6.327875137329102,2.8076171875,-83.6944580078125,-92.59033203125
16.8099999,4.599261283874512,2.7892448902130127,5.339069843292236,16.90673828125,-83.0535888671875,-93.3074951171875
16.8299999,4.99669885635376,3.6559460163116455,4.553771495819092,6.4544677734375,-81.7108154296875,-79.2083740234375
16.8499999,5.497087001800537,4.922478675842285,3.7612907886505127,-19.1650390625,-82.2601318359375,-59.5855712890625
16.8699999,5.817910194396973,6.172252178192139,3.3039982318878174,-3.9215087890625,-61.126708984375,-26.8096923828125
16.8899999,6.050147533416748,7.201758861541748,3.0621838569641113,82.3516845703125,-28.4423828125,-4.8980712890625
16.9099999,6.028599739074707,7.467514991760254,3.2393548488616943,91.4306640625,-20.69091796875,-18.1732177734375
16.929999900000002,5.944802761077881,7.237671852111816,3.5865142345428467,54.99267578125,-42.1600341796875,-55.3131103515625
16.9499999,5.9304375648498535,6.63433313369751,3.890577793121338,52.459716796875,-57.1441650390625,-63.3697509765625
16.9699999,5.9974751472473145,6.00226354598999,3.823540210723877,53.985595703125,-56.6253662109375,-53.3447265625
16.9899999,6.026205539703369,5.5114521980285645,2.9975404739379883,55.938720703125,-55.4962158203125,-75.8209228515625
17.0099999,5.698200225830078,5.367800235748291,1.6927006244659424,78.2012939453125,-25.5889892578125,-123.5504150390625
17.0299999,5.020640850067139,7.089231014251709,-0.933738648891449,87.0361328125,-7.8277587890625,-190.5364990234375
17.0499999,4.271255970001221,12.966996192932129,-6.8378400802612305,50.23193359375,30.426025390625,-223.1903076171875
17.0699999,4.086902141571045,25.1558780670166,-19.156007766723633,13.824462890625,148.01025390625,-154.0374755859375
17.089999900000002,-0.7469909191131592,40.979156494140625,-33.2291259765625,150.20751953125,499.9847412109375,272.7508544921875
17.109999900000002,-11.954249382019043,54.470481872558594,-41.30955505371094,305.511474609375,499.9847412109375,499.9847412109375
17.1299999,-28.936321258544922,58.29402160644531,-38.20906448364258,281.5399169921875,499.9847412109375,499.9847412109375
17.1499999,-50.33808898925781,42.26005554199219,-21.057003021240234,-500,499.9847412109375,499.9847412109375
17.1699999,-65.6346435546875,19.00996208190918,3.2561142444610596,-498.687744140625,499.9847412109375,379.6234130859375
17.1899999,-65.94110107421875,1.3335703611373901,28.488605499267578,499.9847412109375,274.0478515625,18.646240234375
17.2099999,-58.50710678100586,-13.594277381896973,40.71579360961914,-139.5263671875,-38.8946533203125,248.7030029296875
17.2299999,-40.926483154296875,-14.530409812927246,43.421241760253906,-500,-81.6192626953125,217.71240234375
17.249999900000002,-23.683443069458008,-13.254301071166992,33.868377685546875,0.4730224609375,-28.01513671875,56.09130859375
17.269999900000002,-11.590330123901367,-14.67406177520752,20.058622360229492,26.153564453125,56.640625,12.7105712890625
17.2899999,-3.227383852005005,-12.60547161102295,8.62630844116211,-61.3250732421875,64.5904541015625,36.5753173828125
17.3099999,-0.031124621629714966,-9.651026725769043,3.181894063949585,-141.2353515625,23.5137939453125,67.0623779296875
17.3299999,0.33279404044151306,-5.8657941818237305,1.8531121015548706,-109.43603515625,-43.7469482421875,24.7802734375
17.3499999,-1.2545616626739502,-3.734954595565796,3.064578056335449,-71.8841552734375,-30.670166015625,-14.22119140625
17.3699999,-2.7509377002716064,-2.5450363159179688,4.378994941711426,-17.669677734375,-16.1285400390625,-14.3280029296875
17.3899999,-3.667917013168335,-1.843535304069519,6.009446144104004,11.5814208984375,-23.5595703125,-2.99072265625
17.409999900000003,-4.24970817565918,-1.742978811264038,7.7883381843566895,-27.4200439453125,-21.636962890625,4.8828125
17.429999900000002,-4.460397720336914,-1.8363527059555054,9.069235801696777,-23.8800048828125,-35.125732421875,-6.8511962890625
17.4499999,-4.304774761199951,-1.7621324062347412,9.763554573059082,1.5716552734375,-32.2265625,-19.744873046875
17.4699999,-4.017470359802246,-1.7597382068634033,10.086771965026855,-17.6239013671875,-1.0833740234375,1.9073486328125
17.4899999,-3.5458126068115234,-1.5610195398330688,10.216058731079102,-34.66796875,3.7384033203125,18.3868408203125
17.5099999,-3.0358476638793945,-1.3551181554794312,10.321403503417969,-20.355224609375,-21.942138671875,8.2550048828125
17.5299999,-2.6599581241607666,-1.2401964664459229,10.340557098388672,-6.744384765625,-32.928466796875,1.4801025390625
17.5499999,-2.4468741416931152,-1.2832920551300049,10.295066833496094,-16.4947509765625,-14.7705078125,22.8729248046875
17.5699999,-2.296039342880249,-1.3910311460494995,9.979032516479492,8.7127685546875,-10.4522705078125,38.055419921875
17.589999900000002,-2.1092917919158936,-1.45806884765625,9.765948295593262,21.7742919921875,-11.6424560546875,12.8936767578125
17.609999900000002,-1.944091796875,-1.7573440074920654,9.658209800720215,-13.885498046875,-12.4053955078125,-11.749267578125
17.6299999,-1.6687586307525635,-1.7381904125213623,9.548076629638672,-31.5704345703125,-21.1029052734375,-13.73291015625
17.6499999,-1.4460978507995605,-1.5682021379470825,9.509769439697266,-19.775390625,-14.3280029296875,3.814697265625
17.6699999,-1.3670891523361206,-1.414973258972168,9.516951560974121,-19.500732421875,-0.0152587890625,14.373779296875
17.6899999,-1.3862427473068237,-1.5155296325683594,9.586383819580078,-24.4140625,7.4615478515625,5.55419921875
17.7099999,-1.460463047027588,-1.778891921043396,9.720458984375,-2.8076171875,-0.9918212890625,-7.62939453125
17.7299999,-1.434126853942871,-1.8698714971542358,9.871294021606445,1.5716552734375,-12.908935546875,-12.5732421875
17.749999900000002,-1.316810965538025,-1.6711528301239014,9.962273597717285,-20.8587646484375,-12.0086669921875,0.3814697265625
17.769999900000002,-1.2018892765045166,-1.3910311460494995,9.962273597717285,-44.3267822265625,-6.6680908203125,13.6566162109375
17.7899999,-1.1659762859344482,-1.2258312702178955,9.825803756713867,-24.1546630859375,-12.908935546875,14.5111083984375
17.8099999,-1.139639973640442,-1.213860273361206,9.624691009521484,4.1961669921875,-15.80810546875,10.19287109375
17.8299999,-1.137245774269104,-1.3431471586227417,9.318233489990234,-20.93505859375,-8.7127685546875,11.627197265625
17.8499999,-1.1803414821624756,-1.4484920501708984,9.210494041442871,-66.0858154296875,5.523681640625,11.444091796875
17.8699999,-1.2425906658172607,-1.6184803247451782,9.167398452758789,-44.0216064453125,-1.556396484375,7.9498291015625
17.8899999,-1.3646949529647827,-1.6543933153152466,9.119514465332031,7.6446533203125,-23.895263671875,2.4871826171875
17.909999900000003,-1.4197616577148438,-1.8291701078414917,9.220070838928223,13.4735107421875,-5.340576171875,6.439208984375
17.929999900000002,-1.4508862495422363,-1.7860745191574097,9.248801231384277,-9.002685546875,17.9595947265625,3.4637451171875
17.9499999,-1.4197616577148438,-1.8483237028121948,9.361329078674316,-14.251708984375,9.002685546875,-0.091552734375
17.9699999,-1.4245500564575195,-1.889025092124939,9.68933391571045,9.7503662109375,-1.739501953125,2.6397705078125
17.9899999,-1.482010841369629,-2.0254945755004883,10.0580415725708,11.7950439453125,-10.2081298828125,4.82177734375
18.0099999,-1.4891934394836426,-2.121262788772583,10.321403503417969,-4.7149658203125,-14.9383544921875,4.974365234375
18.0299999,-1.4891934394836426,-2.2888567447662354,10.38844108581543,-11.9781494140625,-18.6767578125,4.8828125
18.0499999,-1.4772224426269531,-2.4444799423217773,10.146626472473145,-3.143310546875,-21.30126953125,-1.4190673828125
18.0699999,-1.5059528350830078,-2.561795711517334,9.737217903137207,-2.44140625,-10.772705078125,-5.7525634765625
18.089999900000002,-1.558625340461731,-2.626439332962036,9.334992408752441,-16.41845703125,12.481689453125,-1.434326171875
18.109999900000002,-1.6208745241165161,-2.604891538619995,9.047688484191895,-13.48876953125,15.1824951171875,2.6702880859375
18.1299999,-1.721431016921997,-2.5929205417633057,9.11233139038086,8.2550048828125,9.3231201171875,0.1983642578125
18.1499999,-1.8124107122421265,-2.5282769203186035,9.411606788635254,15.31982421875,-1.0986328125,-5.0506591796875
18.1699999,-1.9297266006469727,-2.408566951751709,9.828198432922363,0,-5.3863525390625,-2.4871826171875
18.1899999,-2.051830768585205,-2.300827741622925,10.201693534851074,-12.0086669921875,-5.9051513671875,5.7373046875
18.2099999,-2.1356279850006104,-2.231395959854126,10.223240852355957,-6.6375732421875,-8.60595703125,4.5623779296875
18.2299999,-2.140416383743286,-2.231395959854126,10.031704902648926,-5.67626953125,0.9002685546875,-7.232666015625
18.249999900000002,-2.0853497982025146,-2.2218191623687744,9.651026725769043,-4.791259765625,6.1798095703125,-10.3759765625
18.269999900000002,-1.9488801956176758,-2.1332337856292725,9.361329078674316,6.072998046875,7.4920654296875,-1.3427734375
18.2899999,-1.8195933103561401,-1.9105730056762695,9.361329078674316,22.15576171875,6.7291259765625,5.2642822265625
18.3099999,-1.745373010635376,-1.699883222579956,9.634267807006836,10.7269287109375,6.4697265625,4.0740966796875
18.3299999,-1.7334020137786865,-1.6089035272598267,10.086771965026855,-25.9552001953125,10.589599609375,3.4942626953125
18.3499999,-1.7908629179000854,-1.6160861253738403,10.441113471984863,-25.482177734375,7.1563720703125,6.16455078125
18.3699999,-1.8148049116134644,-1.6519991159439087,10.618284225463867,8.270263671875,2.25830078125,6.16455078125
18.3899999,-1.7405846118927002,-1.623268723487854,10.584765434265137,13.5650634765625,5.9356689453125,5.43212890625
18.409999900000003,-1.5682021379470825,-1.5849615335464478,10.316615104675293,-7.049560546875,4.5013427734375,8.7738037109375
18.429999900000002,-1.357512354850769,-1.599326729774475,10.067618370056152,-24.23095703125,6.866455078125,9.6282958984375
18.4499999,-1.1971008777618408,-1.764526605606079,9.81143856048584,-8.3465576171875,1.0528564453125,6.866455078125
18.4699999,-1.1228805780410767,-2.0398597717285156,9.622296333312988,21.3165283203125,-7.781982421875,0.6256103515625
18.4899999,-0.9959878921508789,-2.0901381969451904,9.607931137084961,14.0228271484375,-2.0904541015625,-8.11767578125
18.5099999,-0.8140285611152649,-1.9057846069335938,9.521739959716797,-22.52197265625,1.15966796875,-3.2196044921875
18.5299999,-0.6344634294509888,-1.5610195398330688,9.495404243469238,-23.468017578125,-1.0223388671875,15.167236328125
18.5499999,-0.5817909836769104,-1.4077905416488647,9.512163162231445,10.80322265625,1.03759765625,26.031494140625
18.5699999,-0.6703764796257019,-1.455674648284912,9.464279174804688,17.9595947265625,-6.8817138671875,16.29638671875
18.589999900000002,-0.8643068075180054,-1.7980455160140991,9.586383819580078,1.03759765625,-5.67626953125,7.8887939453125
18.609999900000002,-1.0438719987869263,-2.051830768585205,9.672574996948242,-0.0152587890625,-11.260986328125,6.072998046875
18.6299999,-1.091755986213684,-2.073378562927246,9.81143856048584,14.95361328125,-21.331787109375,4.6234130859375
18.6499999,-1.036689281463623,-1.8387469053268433,9.926360130310059,18.12744140625,-23.193359375,9.063720703125
18.6699999,-0.8571242094039917,-1.4628572463989258,9.99339771270752,-4.241943359375,-26.1993408203125,15.625
18.6899999,-0.6631938815116882,-1.1875240802764893,9.959878921508789,-26.9927978515625,-32.623291015625,18.98193359375
18.7099999,-0.4692635238170624,-1.094150185585022,9.806650161743164,-20.9197998046875,-31.951904296875,16.9525146484375
18.7299999,-0.2992752194404602,-1.194706678390503,9.624691009521484,-12.8936767578125,-19.439697265625,11.6729736328125
18.749999900000002,-0.16759411990642548,-1.4245500564575195,9.404424667358398,-14.4500732421875,-4.6539306640625,12.3291015625
18.769999900000002,-0.07182604819536209,-1.7836803197860718,9.275136947631836,-8.30078125,-0.213623046875,17.8375244140625
18.7899999,0.040701430290937424,-2.073378562927246,9.272743225097656,15.5029296875,-5.1116943359375,6.988525390625
18.8099999,0.12689268589019775,-2.250549554824829,9.445125579833984,9.3841552734375,-11.41357421875,-6.9427490234375
18.8299999,0.181959331035614,-2.3750481605529785,9.636661529541016,-23.86474609375,-15.7623291015625,0.06103515625
18.8499999,0.19871874153614044,-2.3989901542663574,9.780313491821289,-33.6151123046875,-10.6353759765625,5.3863525390625
18.8699999,0.15083470940589905,-2.425326347351074,9.921571731567383,-18.8140869140625,9.82666015625,-1.46484375
18.8899999,0.05267243832349777,-2.4181437492370605,9.785101890563965,4.39453125,0.06103515625,-8.026123046875
18.909999900000003,0.05746084079146385,-2.3343467712402344,9.785101890563965,16.11328125,-6.4239501953125,-7.0648193359375
18.929999900000002,0.12449848651885986,-1.9943699836730957,9.634267807006836,14.5111083984375,-17.2119140625,-6.7138671875
18.9499999,0.2298433631658554,-1.6136919260025024,9.469067573547363,8.636474609375,-16.754150390625,5.2032470703125
18.9699999,0.1628057211637497,-1.3551181554794312,9.41400146484375,-11.23046875,4.364013671875,14.3890380859375
18.9899999,-0.08619125932455063,-1.522712230682373,9.53849983215332,-21.8048095703125,15.106201171875,12.02392578125
19.0099999,-0.3998316824436188,-1.8602946996688843,9.739612579345703,-7.080078125,3.173828125,-9.3994140625
19.0299999,-0.6536170840263367,-2.3726539611816406,9.979032516479492,14.312744140625,-9.1552734375,-14.5263671875
19.0499999,-0.7541735172271729,-2.7078421115875244,10.072406768798828,19.7906494140625,-6.7138671875,-7.50732421875
19.0699999,-0.6991068720817566,-2.738966703414917,9.988609313964844,17.5628662109375,-7.5225830078125,-8.8043212890625
19.089999900000002,-0.608127236366272,-2.557007312774658,9.821015357971191,24.0936279296875,-12.3138427734375,-17.913818359375
19.109999900000002,-0.524330198764801,-2.1571757793426514,9.782708168029785,13.671875,-2.471923828125,-24.017333984375
19.1299999,-0.5386953949928284,-1.7357962131500244,9.727641105651855,-9.6893310546875,7.7667236328125,-8.4075927734375
19.1499999,-0.6512228846549988,-1.4508862495422363,9.742006301879883,-3.2958984375,13.3514404296875,8.4991455078125
19.1699999,-0.7206547260284424,-1.158793568611145,9.761159896850586,20.99609375,11.1541748046875,-5.3253173828125
19.1899999,-0.7445967197418213,-1.0773907899856567,9.720458984375,20.7366943359375,-2.3956298828125,-9.490966796875
19.2099999,-0.730231523513794,-1.139639973640442,9.607931137084961,-4.1351318359375,-5.06591796875,7.6141357421875
19.2299999,-0.7493851184844971,-1.403002142906189,9.560047149658203,-17.333984375,8.97216796875,12.0086669921875
19.249999900000002,-0.8667010068893433,-1.8531121015548706,9.583989143371582,-3.265380859375,4.9591064453125,-0.4425048828125
19.269999900000002,-1.0031704902648926,-2.296039342880249,9.636661529541016,5.828857421875,-15.625,-14.892578125
19.2899999,-1.0438719987869263,-2.5091233253479004,9.720458984375,0.1373291015625,-27.2674560546875,-9.368896484375
19.3099999,-0.9911994934082031,-2.518700122833252,9.725247383117676,-25.8331298828125,-27.2064208984375,2.044677734375
19.3299999,-0.9481038451194763,-2.518700122833252,9.718064308166504,-38.330078125,-29.6630859375,-0.3662109375
19.3499999,-0.9026140570640564,-2.5330653190612793,9.770736694335938,-24.8260498046875,-47.9888916015625,-23.2391357421875
19.3699999,-0.8307880163192749,-2.5067291259765625,9.746794700622559,-12.359619140625,-61.6912841796875,-26.5045166015625
19.3899999,-0.7086837291717529,-2.4396915435791016,9.694122314453125,-13.9007568359375,-37.994384765625,-4.69970703125
19.409999900000003,-0.569819986820221,-2.432508945465088,9.624691009521484,-13.275146484375,-3.448486328125,11.41357421875
19.429999900000002,-0.4141969084739685,-2.47560453414917,9.531316757202148,-2.5787353515625,-9.3536376953125,-1.007080078125
19.4499999,-0.2777273952960968,-2.5785553455352783,9.488221168518066,0.4119873046875,-22.6593017578125,-13.2293701171875
19.4699999,-0.11971008777618408,-2.631227731704712,9.473855972290039,-13.3056640625,-20.1568603515625,-5.79833984375
19.4899999,0,-2.736572504043579,9.435548782348633,-14.0533447265625,-11.505126953125,5.462646484375
19.5099999,0.17956513166427612,-3.0573954582214355,9.385271072387695,1.556396484375,-24.078369140625,-27.64892578125
19.5299999,0.3280056416988373,-3.050212860107422,9.30386734008789,-12.14599609375,-18.2952880859375,-20.7672119140625
19.5499999,0.5410895943641663,-2.875436305999756,9.205705642700195,-16.998291015625,-2.0751953125,8.453369140625
19.5699999,0.6871358752250671,-2.8395233154296875,9.215282440185547,-9.979248046875,5.4473876953125,22.186279296875
19.589999900000002,0.7350199222564697,-2.9089550971984863,9.241618156433105,0.67138671875,-6.8359375,-0.9002685546875
19.609999900000002,0.7134721279144287,-3.1292216777801514,9.299078941345215,-1.28173828125,-8.9874267578125,-21.7742919921875
19.6299999,0.6248866319656372,-3.4524388313293457,9.337387084960938,-20.4925537109375,6.256103515625,-5.2032470703125
19.6499999,0.5123591423034668,-3.8522706031799316,9.375694274902344,-18.37158203125,0.91552734375,1.373291015625
19.6699999,0.4141969084739685,-4.225766181945801,9.567230224609375,6.0882568359375,-6.317138671875,-30.4412841796875
19.6899999,0.37828385829925537,-4.431667327880859,9.68933391571045,9.063720703125,-15.9912109375,-50.96435546875
19.7099999,0.4884171485900879,-4.20421838760376,9.761159896850586,-15.6097412109375,2.4871826171875,-39.154052734375
19.7299999,0.629675030708313,-3.7445313930511475,9.567230224609375,-12.7105712890625,18.9208984375,-9.8876953125
19.749999900000002,0.7110779285430908,-3.332728862762451,9.406818389892578,14.678955078125,19.59228515625,-9.918212890625
19.769999900000002,0.6560112833976746,-3.1747114658355713,9.394847869873047,19.6685791015625,12.0697021484375,-28.38134765625
19.7899999,0.6009446382522583,-3.0789434909820557,9.385271072387695,1.0833740234375,1.373291015625,-34.149169921875
19.8099999,0.5913678407669067,-2.9328970909118652,9.378087997436523,-18.5699462890625,5.6915283203125,-20.3857421875
19.8299999,0.6584054827690125,-2.801215887069702,9.272743225097656,-18.6920166015625,11.1236572265625,-5.0048828125
19.8499999,0.7589619159698486,-2.75812029838562,9.133879661560059,-10.07080078125,10.498046875,-11.2152099609375
19.8699999,0.8762778043746948,-2.9712042808532715,9.023746490478516,-6.2408447265625,3.143310546875,-17.3187255859375
19.8899999,0.9911994934082031,-3.138798475265503,8.968679428100586,-19.683837890625,2.74658203125,-15.5029296875
19.909999900000003,1.0965443849563599,-3.2106244564056396,8.98543930053711,-24.5513916015625,17.608642578125,-14.6026611328125
19.929999900000002,1.091755986213684,-3.220201253890991,8.975862503051758,-19.683837890625,18.402099609375,-5.1116943359375
19.9499999,0.9217676520347595,-3.335123062133789,9.114726066589355,-28.6102294921875,17.6239013671875,-7.7667236328125
19.9699999,0.6416460275650024,-3.584120035171509,9.327810287475586,-31.524658203125,18.6767578125,-22.8424072265625
19.9899999,0.3734954595565796,-3.7421371936798096,9.433155059814453,-18.6614990234375,6.8359375,-42.4346923828125
20.0099999,0.16998831927776337,-3.866635799407959,9.59835433959961,-5.1116943359375,20.5535888671875,-37.5823974609375
20.0299999,0.05506663769483566,-3.9600095748901367,9.679757118225098,-7.5836181640625,30.8990478515625,-25.115966796875
20.0499999,0.05027823522686958,-3.8810009956359863,9.682151794433594,-23.01025390625,21.9879150390625,-44.5098876953125
20.0699999,0.13407529890537262,-3.907337188720703,9.622296333312988,-22.76611328125,19.4244384765625,-55.7403564453125
20.089999900000002,0.2777273952960968,-4.046200752258301,9.5408935546875,-5.0201416015625,17.486572265625,-41.656494140625
20.109999900000002,0.43095630407333374,-4.098873138427734,9.519346237182617,4.547119140625,0.762939453125,-53.1158447265625
20.1299999,0.4812345504760742,-4.405331134796143,9.660603523254395,26.85546875,-8.4686279296875,-67.9779052734375
