# Time (seconds),Accel_X,Accel_Y,Accel_Z,Gyro_X,Gyro_Y,Gyro_Z
0.0099999,4.78122091293335,-9.23682975769043,3.3710360527038574,-274.1241455078125,-49.0264892578125,-103.759765625
0.029999900000000003,4.4508209228515625,-8.147468566894531,1.7980455160140991,-137.6190185546875,36.19384765625,-106.7962646484375
0.0499999,4.266467571258545,-7.024587631225586,0.6200982332229614,-77.1484375,65.0787353515625,-101.837158203125
0.0699999,4.151545524597168,-5.971138954162598,-0.15562310814857483,-56.2286376953125,70.3277587890625,-99.6856689453125
0.08999990000000001,4.062960147857666,-5.0469770431518555,-0.4572925269603729,-52.9327392578125,101.318359375,-104.9957275390625
0.10999990000000001,4.048594951629639,-4.41969633102417,-0.5602431893348694,-61.82861328125,123.8250732421875,-67.9473876953125
0.1299999,4.046200752258301,-4.05817174911499,-0.524330198764801,-51.8646240234375,146.331787109375,-36.3311767578125
0.14999990000000002,4.05817174911499,-4.017470359802246,-0.3519476354122162,-42.8009033203125,197.509765625,-30.1971435546875
0.1699999,3.9911341667175293,-4.228160381317139,-0.004788403399288654,-12.5885009765625,261.7645263671875,-20.0653076171875
0.1899999,3.866635799407959,-4.359841346740723,0.7445967197418213,-42.633056640625,274.3072509765625,4.6844482421875
0.20999990000000002,3.466804027557373,-4.355052947998047,2.0207061767578125,-161.834716796875,193.6798095703125,56.0760498046875
0.2299999,2.9879636764526367,-4.587290287017822,3.4380736351013184,-190.0482177734375,89.4775390625,94.6044921875
0.2499999,2.5761611461639404,-4.853046894073486,4.687847137451172,-114.92919921875,54.4281005859375,47.7447509765625
0.2699999,2.0422539710998535,-5.396530628204346,5.30076265335083,45.5322265625,109.527587890625,9.2926025390625
0.28999990000000003,1.7262194156646729,-6.098031520843506,5.264849662780762,-10.6658935546875,113.006591796875,55.023193359375
0.3099999,1.4437036514282227,-6.868964672088623,4.790797710418701,-34.72900390625,104.9957275390625,102.4017333984375
0.3299999,1.158793568611145,-7.759607791900635,4.311957359313965,-108.7646484375,96.0540771484375,102.6611328125
0.34999990000000003,0.9959878921508789,-8.552088737487793,3.88818359375,-7.3699951171875,140.045166015625,47.6531982421875
0.3699999,0.7733271718025208,-9.129091262817383,3.821146011352539,-34.1339111328125,155.8685302734375,18.0816650390625
0.3899999,0.5889736413955688,-9.251194953918457,4.041412353515625,-63.6138916015625,131.9122314453125,28.2440185546875
0.40999990000000003,0.4141969084739685,-9.229647636413574,4.584896087646484,-23.8800048828125,92.6361083984375,51.239013671875
0.4299999,0.2825157940387726,-9.241618156433105,5.231330871582031,53.3905029296875,57.31201171875,80.99365234375
0.4499999,0.18914192914962769,-9.421183586120605,5.7125654220581055,160.1104736328125,53.5125732421875,85.38818359375
0.4699999,0.16519992053508759,-9.66299819946289,5.8873419761657715,100.64697265625,35.6903076171875,67.7642822265625
0.4899999,0.17717093229293823,-9.816226959228516,5.815515995025635,84.04541015625,42.083740234375,56.3507080078125
0.5099999,0.19871874153614044,-9.854534149169922,5.762843608856201,49.49951171875,76.1566162109375,54.4891357421875
0.5299999,0.13168109953403473,-9.749189376831055,5.904101371765137,55.450439453125,82.70263671875,48.3245849609375
0.5499999,0.004788403399288654,-9.488221168518066,6.282385349273682,120.3155517578125,59.3719482421875,29.1290283203125
0.5699999,-0.19871874153614044,-9.265560150146484,6.933608055114746,136.4288330078125,32.2723388671875,42.66357421875
0.5899998999999999,-0.28730419278144836,-9.227252960205078,7.587224960327148,134.4146728515625,-0.4730224609375,91.2322998046875
0.6099998999999999,-0.2082955539226532,-9.330204010009766,8.176198959350586,148.92578125,-18.2952880859375,67.56591796875
0.6299999,0.016759412363171577,-9.3828763961792,8.470685958862305,143.06640625,-23.2391357421875,-36.3006591796875
0.6499999,0.07900865375995636,-8.975862503051758,8.24084186553955,172.6226806640625,-15.838623046875,-94.6807861328125
0.6699999,-0.13407529890537262,-8.214506149291992,7.702147006988525,109.4818115234375,16.7083740234375,-63.934326171875
0.6899999,-0.8762778043746948,-7.453149795532227,7.151480674743652,99.9755859375,42.0379638671875,46.173095703125
0.7099999,-1.290474772453308,-6.971915245056152,6.873753070831299,178.16162109375,59.4024658203125,100.5096435546875
0.7299998999999999,-1.2832920551300049,-6.993463039398193,7.06528902053833,110.015869140625,23.74267578125,32.1807861328125
0.7499998999999999,-0.7445967197418213,-7.0341644287109375,7.3023152351379395,24.169921875,13.8397216796875,-51.9256591796875
0.7699999,0.21547815203666687,-6.8378400802612305,7.319074630737305,-26.458740234375,37.90283203125,-87.2802734375
0.7899999,0.6584054827690125,-6.361393928527832,6.97430944442749,-18.6004638671875,66.497802734375,-57.0526123046875
0.8099999,0.40940847992897034,-5.7772088050842285,6.517016887664795,-20.4925537109375,129.5318603515625,-32.440185546875
0.8299999,-0.10534487664699554,-5.20978307723999,6.184223175048828,8.148193359375,208.4808349609375,-12.2222900390625
0.8499998999999999,-0.950498104095459,-5.020640850067139,6.186617374420166,59.4940185546875,258.7738037109375,36.529541015625
0.8699998999999999,-1.6831238269805908,-5.183446884155273,6.687005519866943,-15.9759521484375,270.6146240234375,17.6544189453125
0.8899999,-2.33913516998291,-5.762843608856201,7.709329605102539,-106.8267822265625,203.857421875,-11.444091796875
0.9099999,-2.9544448852539062,-6.232107162475586,9.05247688293457,-61.95068359375,97.076416015625,-44.2352294921875
0.9299999,-3.5218706130981445,-6.457161903381348,10.20648193359375,52.337646484375,3.936767578125,-20.8587646484375
0.9499999,-3.7181951999664307,-6.145915985107422,10.757147789001465,148.406982421875,-10.8489990234375,47.149658203125
0.9699998999999999,-3.603273630142212,-5.602431774139404,10.096348762512207,171.356201171875,17.059326171875,69.793701171875
0.9899998999999999,-3.179499864578247,-5.523423194885254,8.556877136230469,72.3419189453125,77.4688720703125,28.6407470703125
1.0099999,-2.8443117141723633,-5.003881454467773,7.85537576675415,-46.4324951171875,158.5235595703125,-60.943603515625
1.0299999,-2.5737667083740234,-4.965574264526367,6.971915245056152,69.122314453125,51.9561767578125,-35.003662109375
1.0499999,-2.6647465229034424,-4.402936935424805,7.390900611877441,97.16796875,8.544921875,-20.782470703125
1.0699999,-2.8395233154296875,-3.7205893993377686,7.879317760467529,39.12353515625,53.5736083984375,-32.9742431640625
1.0899999,-3.047818660736084,-3.2178070545196533,7.979874134063721,34.8968505859375,45.1202392578125,-34.97314453125
1.1099999,-3.28963303565979,-2.8419175148010254,8.17141056060791,28.0609130859375,48.9501953125,-26.9927978515625
1.1299999,-3.5434184074401855,-2.736572504043579,8.281543731689453,28.778076171875,43.792724609375,-22.5677490234375
1.1499999,-3.9193081855773926,-2.7964274883270264,8.307879447937012,68.84765625,20.4925537109375,-39.7491455078125
1.1699998999999999,-4.247313976287842,-2.942473888397217,8.391676902770996,67.3980712890625,23.9715576171875,-45.0897216796875
1.1899998999999999,-4.446032524108887,-3.043030261993408,8.281543731689453,57.4493408203125,32.8521728515625,-37.139892578125
1.2099999,-4.580107688903809,-2.8874073028564453,8.161833763122559,50.3692626953125,20.56884765625,-37.7655029296875
1.2299999,-4.505887508392334,-2.741360902786255,7.953537940979004,74.951171875,4.608154296875,-15.1519775390625
1.2499999,-4.481945514678955,-2.382230758666992,7.8098859786987305,85.9375,-4.5013427734375,-3.41796875
1.2699999,-4.326322555541992,-2.1045033931732178,7.601590633392334,64.910888671875,-0.4730224609375,3.4027099609375
1.2899999,-4.218583583831787,-1.742978811264038,7.450755596160889,35.9344482421875,-2.99072265625,-2.5787353515625
1.3099999,-3.957615375518799,-1.4484920501708984,7.448361396789551,34.942626953125,-3.5247802734375,-16.11328125
1.3299999,-3.9432501792907715,-1.2210428714752197,7.558494567871094,86.5325927734375,-21.1334228515625,-49.4232177734375
1.3499999,-3.780444383621216,-1.1803414821624756,8.037335395812988,158.6456298828125,-31.707763671875,-92.28515625
1.3699999,-3.97916316986084,-1.359906554222107,8.59997272491455,156.3873291015625,-59.3414306640625,-33.50830078125
1.3899999,-4.1395745277404785,-1.7525556087493896,9.294290542602539,135.0860595703125,-49.285888671875,-1.800537109375
1.4099999,-4.383783340454102,-2.0829553604125977,9.892841339111328,126.5106201171875,-37.567138671875,-19.9127197265625
1.4299998999999999,-4.608838081359863,-2.341529369354248,10.429142951965332,71.1212158203125,-33.1268310546875,-5.950927734375
1.4499999,-4.6734819412231445,-2.298433542251587,10.939107894897461,82.977294921875,-36.5447998046875,-3.8299560546875
1.4699999,-4.546588897705078,-2.0254945755004883,11.4849853515625,163.9862060546875,-59.722900390625,-36.56005859375
1.4899999,-4.266467571258545,-1.6304513216018677,11.973402976989746,229.6295166015625,-103.8360595703125,-42.3126220703125
1.5099999,-3.869029998779297,-0.9888052940368652,12.27507209777832,251.007080078125,-120.941162109375,-33.050537109375
1.5299999,-3.4189200401306152,-0.16759411990642548,12.382811546325684,255.4473876953125,-115.8905029296875,-22.94921875
1.5499999,-2.9903578758239746,0.8762778043746948,12.476184844970703,273.1781005859375,-109.1156005859375,-11.444091796875
1.5699999,-2.631227731704712,2.188300371170044,12.392388343811035,333.892822265625,-132.9803466796875,-16.510009765625
1.5899999,-2.3511061668395996,3.6798880100250244,11.8225679397583,362.884521484375,-162.41455078125,-13.00048828125
1.6099999,-2.1045033931732178,5.202600479125977,10.699687004089355,259.5977783203125,-142.9595947265625,5.5999755859375
1.6299999,-1.7812861204147339,6.572083473205566,9.141061782836914,119.140625,-96.5118408203125,1.068115234375
1.6499999,-1.3910311460494995,7.51779317855835,7.603984832763672,73.211669921875,-71.8231201171875,-45.562744140625
1.6699999,-1.0103530883789062,7.91283655166626,6.892906665802002,102.8900146484375,-61.3861083984375,-91.400146484375
1.6899998999999999,-0.8020575642585754,7.773972988128662,6.701370716094971,171.3409423828125,-90.423583984375,-131.072998046875
1.7099999,-0.9911994934082031,7.486668586730957,6.382941722869873,224.12109375,-149.6429443359375,-150.970458984375
1.7299999,-1.170764684677124,7.343016624450684,5.52821159362793,323.5626220703125,-66.7266845703125,-93.6737060546875
1.7499999,-1.4269442558288574,7.0772600173950195,4.120420932769775,179.779052734375,48.64501953125,9.33837890625
1.7699999,-1.4437036514282227,7.101202011108398,2.473210334777832,36.80419921875,69.1375732421875,16.54052734375
1.7899999,-1.3311761617660522,7.024587631225586,1.4413094520568848,-3.1585693359375,83.0078125,34.454345703125
1.8099999,-1.2761094570159912,7.041347026824951,1.2258312702178955,-35.400390625,84.77783203125,70.4498291015625
1.8299999,-1.3407529592514038,7.228095054626465,1.9536685943603516,-50.048828125,65.582275390625,95.8404541015625
1.8499999,-1.4915876388549805,7.462726593017578,3.4404678344726562,-16.754150390625,35.2630615234375,110.1226806640625
1.8699999,-1.6663644313812256,7.613561630249023,4.865017890930176,83.5723876953125,-4.33349609375,103.118896484375
1.8899999,-1.7286136150360107,7.625532627105713,5.856217384338379,112.091064453125,-27.7557373046875,70.5108642578125
1.9099999,-1.659181833267212,7.587224960327148,5.949591159820557,84.4268798828125,-13.85498046875,35.5072021484375
1.9299998999999999,-1.4676456451416016,7.47230339050293,5.281609058380127,56.7626953125,2.471923828125,33.3251953125
1.9499999,-1.1899182796478271,7.194576263427734,4.54419469833374,55.6182861328125,4.69970703125,39.6575927734375
1.9699999,-0.8762778043746948,6.976703643798828,4.019864559173584,89.35546875,2.01416015625,21.881103515625
1.9899999,-0.5530605912208557,6.904877662658691,3.5673606395721436,106.231689453125,-17.51708984375,-2.7618408203125
2.0099999,-0.2513911724090576,7.043741226196289,3.224989652633667,70.831298828125,-15.411376953125,-3.692626953125
2.0299999,0.0454898327589035,7.51779317855835,2.7676970958709717,49.1485595703125,-2.105712890625,-4.2724609375
2.0499999,0.24660277366638184,8.020575523376465,2.030282974243164,3.9520263671875,-36.712646484375,-48.828125
2.0699999,0.31842881441116333,8.202534675598145,1.3886369466781616,-197.9522705078125,-61.004638671875,-73.028564453125
2.0899999,0.2849099934101105,7.9415669441223145,1.3670891523361206,-405.8380126953125,-0.48828125,-80.7037353515625
2.1099999,-0.07900865375995636,7.42681360244751,2.387019157409668,-396.6522216796875,46.32568359375,-80.99365234375
2.1299999,-0.48602294921875,6.931213855743408,5.116408824920654,-146.484375,54.7637939453125,-43.243408203125
2.1499999,-1.1085153818130493,6.821080684661865,7.560888767242432,214.7979736328125,-49.5452880859375,20.172119140625
2.1699999,-1.5514427423477173,7.177816867828369,9.459490776062012,304.901123046875,-89.4775390625,93.9483642578125
2.1899999,-1.4915876388549805,7.747636795043945,9.327810287475586,248.931884765625,-36.2396240234375,122.161865234375
2.2099999,-1.0749965906143188,8.35336971282959,7.620744228363037,153.4423828125,-34.576416015625,85.3271484375
2.2299999,-0.28969839215278625,8.760383605957031,5.446808815002441,95.5963134765625,-40.22216796875,43.64013671875
2.2499999,0.42856210470199585,9.129091262817383,3.536235809326172,67.6727294921875,-25.299072265625,14.95361328125
2.2699999,0.8355764150619507,9.476250648498535,2.188300371170044,48.1414794921875,-15.7623291015625,8.36181640625
2.2899999,0.9457096457481384,9.90241813659668,1.4221558570861816,24.96337890625,-12.1612548828125,10.2996826171875
2.3099999,0.8690952062606812,10.316615104675293,1.2090718746185303,-0.518798828125,-7.26318359375,14.9688720703125
2.3299999,0.751779317855835,10.630255699157715,1.2952631711959839,-5.615234375,-7.537841796875,23.956298828125
2.3499999,0.6919242739677429,10.654197692871094,1.525106430053711,10.833740234375,-10.1776123046875,34.11865234375
2.3699999,0.7158663272857666,10.366893768310547,1.7884687185287476,-1.8157958984375,1.556396484375,43.3807373046875
2.3899999,0.9672574996948242,8.705317497253418,2.0470423698425293,-44.9066162109375,18.035888671875,26.67236328125
2.4099999,1.1348515748977661,7.637503623962402,2.408566951751709,-53.314208984375,26.6571044921875,3.1890869140625
2.4299999,1.3024457693099976,6.878541469573975,2.8778305053710938,-16.4794921875,6.16455078125,-24.505615234375
2.4499999,1.4844050407409668,6.653486728668213,3.4811692237854004,35.5987548828125,-33.6456298828125,-33.9508056640625
2.4699999,1.6735470294952393,7.041347026824951,3.7612907886505127,47.1649169921875,-56.8389892578125,-20.3399658203125
2.4899999,1.8794482946395874,7.953537940979004,3.7828385829925537,16.9219970703125,-38.818359375,-1.0223388671875
2.5099999,2.073378562927246,8.971074104309082,3.4332852363586426,-4.7454833984375,-29.2205810546875,5.5084228515625
2.5299999,2.231395959854126,9.78989028930664,3.021482467651367,7.3394775390625,-40.496826171875,5.9814453125
2.5499999,2.2697031497955322,10.223240852355957,2.6623523235321045,15.5181884765625,-56.70166015625,-3.387451171875
2.5699999,2.22660756111145,10.402806282043457,2.4420857429504395,8.1634521484375,-54.9774169921875,-1.7852783203125
2.5899999,2.22660756111145,10.467450141906738,2.1763293743133545,14.9993896484375,-54.8095703125,19.2413330078125
2.6099999,2.255337953567505,10.517727851867676,2.006340980529785,0.5645751953125,-72.8759765625,29.205322265625
2.6299999,2.583343744277954,10.486603736877441,1.7836803197860718,8.697509765625,-87.09716796875,50.933837890625
2.6499999,2.96162748336792,10.20887565612793,1.482010841369629,37.9638671875,-70.220947265625,61.6302490234375
2.6699999,3.3279404640197754,9.6989107131958,1.2880805730819702,26.763916015625,-2.197265625,48.64501953125
2.6899999,3.603273630142212,8.959102630615234,1.3048399686813354,-21.66748046875,34.5611572265625,46.5240478515625
2.7099999,3.689464807510376,8.322244644165039,1.601720929145813,-27.2674560546875,32.2265625,31.341552734375
2.7299999,3.670311212539673,7.972691535949707,2.1811177730560303,-5.67626953125,28.5797119140625,1.89208984375
2.7499999,3.665522813796997,8.008605003356934,2.80361008644104,-4.1046142578125,11.1083984375,-6.7291259765625
2.7699999,3.6080620288848877,8.47547435760498,3.177105665206909,10.589599609375,0.1678466796875,-2.25830078125
2.7899999,3.5745432376861572,9.102754592895508,3.157952070236206,30.853271484375,4.9591064453125,11.199951171875
2.8099999,3.5218706130981445,9.684545516967773,2.920926094055176,29.4189453125,26.9317626953125,20.69091796875
2.8299999,3.4404678344726562,9.955090522766113,2.5905263423919678,35.0341796875,33.9813232421875,23.74267578125
2.8499999,3.3638534545898438,9.8784761428833,2.3080103397369385,56.1065673828125,13.824462890625,23.284912109375
2.8699999,3.248931646347046,9.560047149658203,2.2577321529388428,49.072265625,4.7149658203125,18.5546875
2.8899999,3.090914487838745,9.172186851501465,2.2816741466522217,47.0733642578125,17.242431640625,14.58740234375
2.9099999,2.9233202934265137,8.81784439086914,2.2673089504241943,60.4248046875,11.993408203125,21.7742919921875
2.9299999,2.7485435009002686,8.540117263793945,2.2697031497955322,37.322998046875,4.0435791015625,25.0091552734375
2.9499999,2.6144683361053467,8.324639320373535,2.094926595687866,44.9981689453125,-1.3275146484375,18.1732177734375
2.9699999,2.5474305152893066,8.17380428314209,1.8842366933822632,51.94091796875,3.6163330078125,10.5438232421875
2.9899999,2.5115175247192383,8.030152320861816,1.656787633895874,45.9747314453125,6.2408447265625,9.3536376953125
3.0099999,2.4899697303771973,7.9176249504089355,1.4676456451416016,57.2967529296875,-1.7852783203125,7.7667236328125
3.0299999,2.473210334777832,7.857769966125488,1.3766659498214722,73.822021484375,-4.0740966796875,2.2125244140625
3.0499999,2.432508945465088,7.728483200073242,1.1994950771331787,54.962158203125,-14.068603515625,4.6539306640625
3.0699999,2.403778553009033,7.556100368499756,1.0199298858642578,9.5977783203125,-15.869140625,2.5482177734375
3.0899999,2.406172752380371,7.441178798675537,0.7781155705451965,0.7781982421875,-2.960205078125,-16.3116455078125
3.1099999,2.4372973442077637,7.378929615020752,0.629675030708313,3.6163330078125,-0.244140625,-30.181884765625
3.1299999,2.5234885215759277,7.448361396789551,0.5027823448181152,-1.220703125,-8.23974609375,-41.168212890625
3.1499999,2.564189910888672,7.812280178070068,0.7110779285430908,-17.0440673828125,-3.9215087890625,-63.0950927734375
3.1699999,2.6384103298187256,8.339004516601562,0.7038952708244324,58.563232421875,-15.19775390625,-61.0809326171875
3.1899999,2.671929121017456,8.99740982055664,0.5051765441894531,67.535400390625,-28.0609130859375,-43.7469482421875
3.2099999,2.626439332962036,9.615114212036133,0.12210428714752197,-25.0244140625,-15.4876708984375,-33.9508056640625
3.2299999,2.5737667083740234,10.012551307678223,-0.2849099934101105,-60.3485107421875,25.69580078125,-21.5606689453125
3.2499999,2.477998733520508,10.079588890075684,-0.6033388376235962,-3.753662109375,14.8468017578125,-13.1378173828125
3.2699999,2.3798365592956543,9.952696800231934,-0.4836287498474121,12.1002197265625,-24.627685546875,-26.3214111328125
3.2899999,2.3367409706115723,9.780313491821289,-0.42377370595932007,16.5252685546875,-43.51806640625,-40.52734375
3.3099999,2.31758713722229,9.6989107131958,-0.4165911078453064,9.82666015625,-33.3404541015625,-41.717529296875
3.3299999000000002,2.2649147510528564,9.727641105651855,-0.5985504388809204,-7.14111328125,-33.4625244140625,-42.8619384765625
3.3499999,2.1978771686553955,9.81143856048584,-0.8547300100326538,-1.556396484375,-40.9698486328125,-44.6014404296875
3.3699999,2.0901381969451904,9.773131370544434,-0.9888052940368652,25.7568359375,-40.83251953125,-55.9844970703125
3.3899999,1.9776105880737305,9.75637149810791,-1.070208191871643,42.1905517578125,-50.9796142578125,-75.50048828125
3.4099999,1.8339585065841675,9.701305389404297,-1.0749965906143188,34.2864990234375,-80.5511474609375,-81.0089111328125
3.4299999,1.5131354331970215,9.737217903137207,-1.1899182796478271,33.4014892578125,-88.6688232421875,-89.4927978515625
3.4499999,1.2856862545013428,9.852140426635742,-1.2856862545013428,18.280029296875,-59.2498779296875,-77.1942138671875
3.4699999,0.9002198576927185,9.888052940368652,-1.3982137441635132,11.0321044921875,-41.80908203125,-63.690185546875
3.4899999,0.5602431893348694,9.806650161743164,-1.4628572463989258,26.2603759765625,-52.9632568359375,-60.516357421875
3.5099999,0.2825157940387726,9.567230224609375,-1.5107412338256836,25.57373046875,-57.1136474609375,-45.7763671875
3.5299999,0.019153613597154617,9.327810287475586,-1.6328455209732056,25.909423828125,-26.824951171875,-35.9344482421875
3.5499999,-0.12689268589019775,9.071630477905273,-1.6927006244659424,25.1922607421875,5.55419921875,-29.4647216796875
3.5699999,-0.19871874153614044,8.923190116882324,-1.7310078144073486,38.8946533203125,-0.885009765625,-32.135009765625
3.5899999,-0.20111294090747833,8.901641845703125,-1.5945383310317993,41.3818359375,-5.462646484375,-47.91259765625
3.6099999,-0.21547815203666687,8.999804496765137,-1.4939818382263184,36.5753173828125,-5.0048828125,-45.22705078125
3.6299999,-0.31842881441116333,9.14345645904541,-1.434126853942871,31.43310546875,-6.9122314453125,-28.6102294921875
3.6499999,-0.47644615173339844,9.397241592407227,-1.4915876388549805,67.19970703125,-7.049560546875,-25.0091552734375
3.6699999,-0.7110779285430908,9.619902610778809,-1.764526605606079,121.9329833984375,-18.463134765625,-30.120849609375
3.6899999,-0.9624691009521484,9.768342971801758,-2.279279947280884,122.0550537109375,-30.3192138671875,-19.561767578125
3.7099999,-1.1755530834197998,9.907206535339355,-3.066972494125366,79.0863037109375,-29.815673828125,-8.0718994140625
3.7299999,-1.2689268589019775,9.988609313964844,-3.952826976776123,30.0445556640625,-12.3291015625,6.6680908203125
3.7499999,-1.3000515699386597,9.909601211547852,-4.6040496826171875,11.04736328125,13.5955810546875,21.728515625
3.7699999,-1.2737152576446533,9.77791976928711,-4.965574264526367,35.0341796875,21.3470458984375,15.106201171875
3.7899999,-1.2042834758758545,9.567230224609375,-4.946420669555664,34.637451171875,23.162841796875,11.6119384765625
3.8099999,-1.1276689767837524,9.411606788635254,-4.757278919219971,20.4925537109375,30.914306640625,15.9454345703125
3.8299999000000002,-1.0989385843276978,9.241618156433105,-4.443638324737549,1.5716552734375,33.0047607421875,24.200439453125
3.8499999,-1.0989385843276978,9.184157371520996,-4.216189384460449,-19.6990966796875,23.3917236328125,37.4755859375
3.8699999,-1.070208191871643,9.119514465332031,-3.864241600036621,-58.502197265625,26.9927978515625,58.380126953125
3.8899999,-0.9959878921508789,9.002198219299316,-3.5242648124694824,-59.50927734375,2.5177001953125,69.7021484375
3.9099999,-0.6655880808830261,8.83699893951416,-3.069366693496704,-45.013427734375,-55.572509765625,57.403564453125
3.9299999,-0.26815059781074524,8.743624687194824,-2.647987127304077,-15.0909423828125,-70.61767578125,18.73779296875
3.9499999,0.11013327538967133,8.564059257507324,-2.250549554824829,-24.871826171875,-47.0428466796875,4.6539306640625
3.9699999,0.38307225704193115,8.559270858764648,-1.8171991109848022,-102.0355224609375,-24.017333984375,-1.3275146484375
3.9899999,0.40701428055763245,8.633491516113281,-1.4269442558288574,-103.8360595703125,-21.759033203125,-19.1497802734375
4.0099999,0.33518823981285095,8.765172004699707,-1.0271124839782715,-87.432861328125,-42.29736328125,-33.0810546875
4.029999900000001,0.24899697303771973,8.992621421813965,-0.7445967197418213,-52.6580810546875,-37.4298095703125,-30.6549072265625
4.0499999,0.1388636976480484,9.318233489990234,-0.689530074596405,-14.556884765625,-14.7247314453125,-51.910400390625
4.069999900000001,0.019153613597154617,9.758766174316406,-0.7996633648872375,-9.46044921875,-0.6561279296875,-84.1217041015625
4.0899999000000005,-0.05506663769483566,10.192116737365723,-0.8834604024887085,-33.599853515625,-5.4779052734375,-62.2100830078125
4.1099999,-0.2537853717803955,10.618284225463867,-1.01753568649292,-21.1639404296875,-18.341064453125,-42.7703857421875
4.1299999000000005,-0.4572925269603729,10.99656867980957,-1.070208191871643,-12.02392578125,-24.84130859375,-43.9453125
4.1499999,-0.6919242739677429,11.298237800598145,-1.170764684677124,-29.998779296875,-29.8919677734375,-18.157958984375
4.1699999000000005,-1.0342950820922852,11.461043357849121,-1.3335703611373901,-40.252685546875,-29.266357421875,15.8843994140625
4.1899999,-1.3551181554794312,11.530475616455078,-1.4053963422775269,-58.6090087890625,-26.3519287109375,36.2701416015625
4.209999900000001,-1.6352397203445435,11.41555404663086,-1.3934253454208374,-77.667236328125,-48.2025146484375,52.67333984375
4.2299999,-1.8267759084701538,11.109095573425293,-1.2449848651885986,-73.577880859375,-62.92724609375,63.812255859375
4.249999900000001,-1.8387469053268433,10.716446876525879,-0.9074024558067322,-34.48486328125,-49.8809814453125,62.4542236328125
4.2699999,-1.745373010635376,10.18493366241455,-0.4572925269603729,-12.3443603515625,-41.6259765625,63.751220703125
4.289999900000001,-1.5682021379470825,9.787496566772461,0.05027823522686958,14.0838623046875,-50.9796142578125,61.065673828125
4.3099999,-1.460463047027588,9.710882186889648,0.5554547905921936,54.443359375,-45.4254150390625,53.192138671875
4.329999900000001,-1.4293384552001953,9.911994934082031,0.8140285611152649,69.091796875,-53.741455078125,70.6939697265625
4.3499999,-1.2258312702178955,10.163386344909668,0.5602431893348694,82.0465087890625,-79.1778564453125,99.5941162109375
4.369999900000001,-0.8475474119186401,10.285490036010742,-0.2059013396501541,56.3201904296875,-79.2999267578125,87.09716796875
4.3899999,-0.33279404044151306,10.24000072479248,-1.1061211824417114,-7.5225830078125,-39.5355224609375,48.4161376953125
4.409999900000001,0.2825157940387726,10.04846477508545,-2.032677173614502,-9.27734375,-28.0914306640625,49.3316650390625
4.4299999,0.6512228846549988,10.041281700134277,-2.6192567348480225,18.3563232421875,-12.298583984375,47.54638671875
4.449999900000001,0.7829039692878723,10.050858497619629,-2.7700912952423096,-39.00146484375,2.532958984375,35.858154296875
4.4699999,0.7158663272857666,9.998186111450195,-2.669534921646118,-79.071044921875,9.9334716796875,30.0750732421875
4.489999900000001,0.6057330369949341,9.84495735168457,-2.0661959648132324,-52.398681640625,19.4854736328125,33.050537109375
4.5099999,0.5650315880775452,9.569623947143555,-1.256955862045288,-60.9130859375,-17.2882080078125,27.03857421875
4.529999900000001,0.5410895943641663,9.318233489990234,-0.43335050344467163,-59.1583251953125,-49.8046875,5.6304931640625
4.5499999,0.6392518281936646,9.44752025604248,0.13407529890537262,-61.95068359375,-24.4140625,10.68115234375
4.569999900000001,0.7829039692878723,9.514557838439941,0.3734954595565796,-54.9163818359375,-4.4097900390625,51.605224609375
4.5899999000000005,0.9361328482627869,9.823410034179688,0.4572925269603729,-20.0347900390625,5.279541015625,43.45703125
4.609999900000001,1.1109095811843872,9.995792388916016,0.45489832758903503,-24.3072509765625,-20.6298828125,33.8897705078125
4.6299999000000005,1.4844050407409668,9.821015357971191,0.6392518281936646,-37.4908447265625,-40.985107421875,36.2091064453125
4.6499999,1.659181833267212,9.746794700622559,0.5985504388809204,21.0418701171875,-53.28369140625,-20.904541015625
4.6699999000000005,1.8507179021835327,9.775525093078613,0.3208230137825012,58.8836669921875,-50.0640869140625,-54.99267578125
4.6899999,1.9847931861877441,10.122684478759766,0.021547814831137657,69.6868896484375,33.9508056640625,9.70458984375
4.709999900000001,1.965639591217041,10.759542465209961,-0.4812345504760742,103.668212890625,65.5975341796875,91.7816162109375
4.7299999,2.1475989818573,11.494562149047852,-0.6416460275650024,81.5887451171875,60.7757568359375,166.046142578125
4.749999900000001,2.3343467712402344,11.671732902526855,-0.5961562395095825,46.81396484375,-29.6478271484375,219.8944091796875
4.7699999,2.7916390895843506,11.592724800109863,-0.507570743560791,22.3541259765625,-55.5572509765625,168.15185546875
4.789999900000001,3.1699230670928955,10.953473091125488,-0.44771572947502136,23.834228515625,13.2293701171875,101.1962890625
4.8099999,3.6391866207122803,10.08437728881836,-0.42377370595932007,30.6243896484375,54.7027587890625,89.1265869140625
4.829999900000001,3.9647979736328125,9.239224433898926,-0.38546648621559143,38.0859375,60.5621337890625,72.6776123046875
4.8499999,4.273650169372559,8.540117263793945,-0.2513911724090576,30.303955078125,54.290771484375,46.5545654296875
4.869999900000001,4.4723687171936035,7.905653953552246,0.043095629662275314,19.8516845703125,51.1016845703125,51.513671875
4.8899999,4.855441093444824,7.726089000701904,0.1364694982767105,35.7513427734375,39.276123046875,35.3546142578125
4.909999900000001,4.900930881500244,7.783549785614014,0.0071826050989329815,68.023681640625,13.2598876953125,-52.947998046875
4.9299999,4.970362663269043,8.042123794555664,-0.31124621629714966,42.7398681640625,73.1353759765625,-10.8795166015625
4.949999900000001,4.855441093444824,8.360552787780762,-0.6823474764823914,3.7078857421875,116.424560546875,54.0618896484375
4.9699999,4.843470096588135,8.494627952575684,-0.6607996821403503,-6.500244140625,145.751953125,52.337646484375
4.989999900000001,4.970362663269043,8.406042098999023,-0.24899697303771973,-10.9100341796875,124.2523193359375,50.872802734375
5.0099999,5.22175407409668,8.118738174438477,0.5530605912208557,-36.285400390625,98.57177734375,56.1370849609375
5.029999900000001,5.657498836517334,7.783549785614014,1.6280571222305298,-71.83837890625,115.6005859375,54.351806640625
5.0499999,5.995080947875977,7.479485988616943,2.58813214302063,-63.0950927734375,85.4339599609375,10.25390625
5.069999900000001,6.260837554931641,7.314286231994629,3.4524388313293457,-54.0771484375,45.745849609375,-21.3165283203125
5.0899999000000005,6.469132900238037,7.091625213623047,4.141968727111816,-94.1619873046875,28.594970703125,27.984619140625
5.109999900000001,6.536170482635498,7.110779285430908,4.525041103363037,-136.993408203125,36.19384765625,0.30517578125
5.1299999000000005,6.586448669433594,7.06528902053833,4.721365928649902,-138.8397216796875,31.1279296875,-38.787841796875
5.1499999,6.691793918609619,6.794744491577148,4.699818134307861,-110.504150390625,20.111083984375,-83.3587646484375
5.1699999000000005,6.339846134185791,6.754043102264404,4.738125324249268,-119.140625,-7.9345703125,-195.4193115234375
5.1899999,5.60722017288208,6.766014099121094,4.776432514190674,-123.3978271484375,-25.8026123046875,-206.4056396484375
5.209999900000001,4.532223701477051,7.024587631225586,4.764461517333984,-105.712890625,-49.6368408203125,-108.9935302734375
5.2299999,3.117250680923462,7.592013359069824,4.632780075073242,-81.939697265625,-46.20361328125,-65.4144287109375
5.249999900000001,2.0853497982025146,7.977479934692383,4.290409564971924,-55.572509765625,-27.6336669921875,-37.6434326171875
5.2699999,1.3982137441635132,7.927201747894287,3.931279182434082,-48.8433837890625,-21.0723876953125,-7.354736328125
5.289999900000001,1.1468225717544556,7.5968017578125,3.533841609954834,-19.561767578125,-34.66796875,0.5035400390625
5.3099999,1.2545616626739502,7.017405033111572,3.24414324760437,-22.9644775390625,-36.468505859375,5.0201416015625
5.329999900000001,1.6089035272598267,6.524199485778809,3.184288263320923,-50.689697265625,-9.09423828125,16.693115234375
5.3499999,2.0925323963165283,6.291962146759033,3.2800562381744385,-7.6751708984375,10.2691650390625,19.4549560546875
5.369999900000001,2.6623523235321045,6.196194171905518,3.7158010005950928,-6.8206787109375,-15.5792236328125,27.8472900390625
5.3899999,3.2369606494903564,6.2632317543029785,4.268861770629883,-37.261962890625,-44.097900390625,27.9083251953125
5.409999900000001,3.7445313930511475,6.366182327270508,4.81473970413208,-34.1796875,-52.8717041015625,21.7437744140625
5.4299999,4.158728122711182,6.3302693367004395,4.989516258239746,2.227783203125,-57.464599609375,19.8516845703125
5.449999900000001,4.381389141082764,6.253654956817627,4.955997467041016,34.4390869140625,-45.8526611328125,23.0712890625
5.4699999,4.505887508392334,6.150704383850098,4.60165548324585,39.947509765625,-38.3758544921875,21.4691162109375
5.489999900000001,4.594472885131836,5.966350555419922,4.268861770629883,28.0914306640625,-36.834716796875,14.6942138671875
5.5099999,4.651933670043945,5.882553577423096,3.9911341667175293,45.7763671875,-45.684814453125,2.410888671875
5.529999900000001,4.721365928649902,5.8873419761657715,3.797203779220581,84.8388671875,-61.9964599609375,-7.99560546875
5.5499999,4.850652694702148,5.959167957305908,3.598485231399536,71.2432861328125,-60.6536865234375,-11.3677978515625
5.569999900000001,4.797980308532715,6.0836663246154785,3.35667085647583,10.1318359375,-57.6171875,-2.593994140625
5.5899999000000005,4.738125324249268,6.232107162475586,2.8347349166870117,-23.345947265625,-82.000732421875,1.922607421875
5.609999900000001,4.6734819412231445,6.5050458908081055,2.3104045391082764,-30.670166015625,-76.1566162109375,-2.0904541015625
5.6299999000000005,4.637568473815918,6.7061591148376465,1.8722656965255737,-32.257080078125,-47.4395751953125,18.2647705078125
5.6499999,4.745307922363281,6.9240312576293945,1.7477672100067139,-17.8375244140625,-51.6357421875,33.0352783203125
5.6699999000000005,5.0469770431518555,6.979097843170166,1.9919757843017578,27.4200439453125,-63.7359619140625,28.80859375
5.6899999,5.34625244140625,6.797138690948486,2.4181437492370605,59.173583984375,-82.1075439453125,22.76611328125
5.709999900000001,5.705382823944092,6.4834980964660645,2.6168625354766846,65.4754638671875,-105.0262451171875,0.0457763671875
5.7299999,5.849034786224365,6.270414352416992,2.4133553504943848,63.0035400390625,-108.8104248046875,-31.463623046875
5.749999900000001,5.770026206970215,6.081272125244141,1.5155296325683594,40.3900146484375,-123.0010986328125,-26.702880859375
5.7699999,5.355829238891602,5.872976779937744,0.42856210470199585,-3.7384033203125,-131.805419921875,-21.1334228515625
5.789999900000001,4.8602294921875,5.904101371765137,-0.9193734526634216,8.087158203125,-137.9241943359375,-35.6292724609375
5.8099999,4.570530891418457,5.6910176277160645,-2.0877439975738525,-7.50732421875,-139.739990234375,-49.896240234375
5.829999900000001,4.376600742340088,5.743690013885498,-2.5713725090026855,-42.5262451171875,-82.183837890625,-94.390869140625
5.8499999,4.594472885131836,5.509057998657227,-2.940079689025879,-27.0233154296875,-77.20947265625,-125.6866455078125
5.869999900000001,4.534617900848389,5.499481201171875,-2.456450939178467,-107.879638671875,-66.7572021484375,-124.81689453125
5.8899999,4.309563159942627,5.686229228973389,-2.185906171798706,-97.6409912109375,-43.6248779296875,-129.791259765625
5.909999900000001,3.5913026332855225,6.4380083084106445,-2.027888774871826,-21.5301513671875,-31.3568115234375,-127.960205078125
5.9299999,2.516305923461914,7.680599212646484,-2.38462495803833,-8.6212158203125,-18.9971923828125,-95.39794921875
5.949999900000001,1.4987702369689941,9.162610054016113,-2.964021682739258,-38.726806640625,14.8468017578125,-55.999755859375
5.9699999,0.6991068720817566,10.18493366241455,-3.2824504375457764,-87.371826171875,56.610107421875,-21.54541015625
5.989999900000001,0.28730419278144836,10.60152530670166,-3.3494882583618164,-91.6900634765625,27.0233154296875,-19.0277099609375
6.0099999,0.3423708379268646,10.520122528076172,-2.9975404739379883,-52.9327392578125,12.603759765625,-43.15185546875
6.029999900000001,0.5985504388809204,10.15141487121582,-2.4372973442077637,-25.45166015625,47.5616455078125,-45.0592041015625
6.0499999,1.0534487962722778,9.780313491821289,-1.7980455160140991,-37.750244140625,57.3577880859375,-9.2315673828125
6.069999900000001,1.5131354331970215,9.394847869873047,-0.9983820915222168,-52.55126953125,50.96435546875,9.9334716796875
6.0899999000000005,1.8794482946395874,9.009381294250488,-0.09816227108240128,-59.26513671875,52.2003173828125,-13.36669921875
6.109999900000001,2.0877439975738525,8.688557624816895,0.7110779285430908,-51.8341064453125,77.392578125,-54.13818359375
6.1299999000000005,1.9967641830444336,8.552088737487793,1.45806884765625,-53.955078125,108.7799072265625,-57.373046875
6.149999900000001,1.766920804977417,8.743624687194824,1.9919757843017578,-59.14306640625,106.9488525390625,-31.3262939453125
6.1699999000000005,1.3982137441635132,9.131484985351562,2.4420857429504395,-53.9093017578125,99.2584228515625,-8.9111328125
6.1899999,1.015141487121582,9.605537414550781,2.717418909072876,-40.6646728515625,109.039306640625,-2.166748046875
6.209999900000001,0.7398083209991455,10.043676376342773,3.0621838569641113,-8.60595703125,134.9639892578125,-10.833740234375
6.2299999,0.4884171485900879,10.244789123535156,3.426102638244629,17.9290771484375,118.4539794921875,-23.0865478515625
6.249999900000001,0.3208230137825012,10.417171478271484,3.7852327823638916,47.8363037109375,70.3582763671875,-50.140380859375
6.2699999,0.09816227108240128,10.577583312988281,3.9647979736328125,83.526611328125,56.2286376953125,-71.5484619140625
6.289999900000001,-0.1867477297782898,10.769119262695312,3.7469255924224854,92.803955078125,60.0433349609375,-53.802490234375
6.3099999,-0.5291185975074768,10.936713218688965,3.2345664501190186,79.7576904296875,73.028564453125,-42.8619384765625
6.329999900000001,-0.9026140570640564,11.05402946472168,2.499546527862549,78.9642333984375,81.0089111328125,-59.63134765625
6.3499999,-1.2665326595306396,11.21444034576416,1.7381904125213623,82.1533203125,90.9881591796875,-70.86181640625
6.369999900000001,-1.5466543436050415,11.420342445373535,1.1228805780410767,54.962158203125,100.189208984375,-31.219482421875
6.3899999,-1.7094600200653076,11.738770484924316,0.8212111592292786,29.2205810546875,111.541748046875,3.1890869140625
6.409999900000001,-1.7118542194366455,11.868058204650879,0.9265560507774353,19.1497802734375,105.743408203125,10.3759765625
6.4299999,-1.6184803247451782,11.676521301269531,1.314416766166687,22.247314453125,85.9222412109375,0.1220703125
6.449999900000001,-1.5466543436050415,11.255142211914062,1.623268723487854,37.3077392578125,71.136474609375,-7.8887939453125
6.4699999,-1.5610195398330688,10.828974723815918,1.6855180263519287,45.7305908203125,76.141357421875,-2.1820068359375
6.489999900000001,-1.659181833267212,10.402806282043457,1.501164436340332,23.92578125,83.49609375,15.380859375
6.5099999,-1.7764976024627686,10.050858497619629,1.2521674633026123,11.1236572265625,85.02197265625,16.41845703125
6.529999900000001,-1.8626888990402222,9.763554573059082,1.05105459690094,18.1121826171875,82.70263671875,7.2479248046875
6.5499999,-1.8722656965255737,9.557653427124023,0.9840168952941895,26.8707275390625,87.5244140625,7.99560546875
6.569999900000001,-1.7932571172714233,9.493009567260742,1.0678139925003052,36.285400390625,100.1739501953125,9.6282958984375
6.5899999000000005,-1.5705963373184204,9.545681953430176,1.41257905960083,32.1807861328125,98.3734130859375,1.312255859375
6.609999900000001,-1.2689268589019775,9.550470352172852,1.900996208190918,19.4091796875,77.392578125,-4.2266845703125
6.6299999000000005,-0.9289502501487732,9.634267807006836,2.3319525718688965,21.331787109375,56.9915771484375,-11.0931396484375
6.649999900000001,-0.6153098344802856,9.713275909423828,2.5785553455352783,25.1007080078125,58.9752197265625,-6.4544677734375
6.6699999000000005,-0.3471592366695404,9.81143856048584,2.58813214302063,19.53125,62.7899169921875,1.0528564453125
6.6899999,-0.1628057211637497,9.852140426635742,2.4444799423217773,28.839111328125,48.9349365234375,-4.364013671875
6.709999900000001,-0.08858546614646912,9.763554573059082,2.188300371170044,40.6494140625,30.9295654296875,-8.3465576171875
6.7299999,-0.10295066982507706,9.617507934570312,1.8626888990402222,36.956787109375,27.9998779296875,-1.068115234375
6.749999900000001,-0.16998831927776337,9.406818389892578,1.5275006294250488,21.2249755859375,39.8101806640625,6.195068359375
6.7699999,-0.14844051003456116,9.258378028869629,1.3072341680526733,20.6146240234375,39.5965576171875,-3.0670166015625
6.789999900000001,-0.014365210197865963,9.0859956741333,1.3120225667953491,24.1546630859375,21.9573974609375,-9.6282958984375
6.8099999,0.12689268589019775,8.954314231872559,1.381454348564148,16.021728515625,0.3509521484375,-8.5601806640625
6.829999900000001,0.22026655077934265,8.980650901794434,1.37906014919281,-1.495361328125,-10.3302001953125,-9.7503662109375
6.8499999,0.17238251864910126,9.081207275390625,1.173158884048462,-16.4642333984375,-16.0064697265625,-7.568359375
6.869999900000001,0.023942016065120697,9.311050415039062,0.7757213711738586,-9.7198486328125,-21.7742919921875,-9.21630859375
6.8899999,-0.19871874153614044,9.512163162231445,0.3208230137825012,-2.838134765625,-24.7955322265625,-4.119873046875
6.909999900000001,-0.45489832758903503,9.636661529541016,-0.06703764945268631,-14.2364501953125,-19.53125,9.21630859375
6.9299999,-0.730231523513794,9.732429504394531,-0.33518823981285095,-32.6690673828125,-12.237548828125,19.683837890625
6.949999900000001,-0.9265560507774353,9.799467086791992,-0.36152446269989014,-52.1240234375,-3.0975341796875,29.5867919921875
6.9699999,-0.9816226959228516,9.943120002746582,-0.14604631066322327,-62.2100830078125,7.7362060546875,25.69580078125
6.989999900000001,-0.8810662031173706,10.218452453613281,0.26575639843940735,-49.774169921875,12.8326416015625,10.894775390625
7.0099999,-0.7015010714530945,10.57040023803711,0.7398083209991455,-29.35791015625,6.7138671875,-0.152587890625
7.029999900000001,-0.524330198764801,10.948684692382812,1.1228805780410767,-16.5863037109375,0.823974609375,-7.476806640625
7.0499999,-0.43335050344467163,11.195286750793457,1.2713210582733154,-0.18310546875,-2.8533935546875,-16.3421630859375
7.069999900000001,-0.4429273009300232,11.219228744506836,1.1899182796478271,14.892578125,-2.7313232421875,-22.5830078125
7.0899999000000005,-0.49320554733276367,11.018115997314453,0.9576807022094727,13.4124755859375,-0.2288818359375,-16.1895751953125
7.109999900000001,-0.5674257874488831,10.704475402832031,0.6440402865409851,4.2266845703125,-2.2125244140625,-5.7830810546875
7.1299999000000005,-0.6200982332229614,10.366893768310547,0.3519476354122162,-1.2054443359375,-2.6397705078125,2.0904541015625
7.149999900000001,-0.6584054827690125,10.065223693847656,0.10534487664699554,-2.99072265625,-4.180908203125,9.521484375
7.1699999000000005,-0.6967126727104187,9.837775230407715,-0.0933738648891449,-0.4119873046875,-5.9356689453125,11.53564453125
7.1899999,-0.7422025203704834,9.646238327026367,-0.24899697303771973,5.401611328125,-5.4779052734375,6.16455078125
7.209999900000001,-0.8140285611152649,9.524134635925293,-0.38546648621559143,11.5203857421875,-5.3253173828125,0.79345703125
7.2299999,-0.9193734526634216,9.464279174804688,-0.5291185975074768,14.984130859375,-3.72314453125,0.42724609375
7.249999900000001,-1.0606313943862915,9.490615844726562,-0.6847416758537292,15.1214599609375,-3.4637451171875,1.52587890625
7.2699999,-1.1899182796478271,9.576807022094727,-0.7876923680305481,12.359619140625,2.044677734375,-2.4261474609375
7.289999900000001,-1.2737152576446533,9.68933391571045,-0.7829039692878723,4.669189453125,7.14111328125,-4.57763671875
7.3099999,-1.278503656387329,9.768342971801758,-0.6560112833976746,3.692626953125,7.843017578125,-3.8909912109375
7.329999900000001,-1.2186486721038818,9.751583099365234,-0.44771572947502136,5.9356689453125,2.5482177734375,-3.5858154296875
7.3499999,-1.1348515748977661,9.63187313079834,-0.23702596127986908,8.2244873046875,0.213623046875,-5.889892578125
7.369999900000001,-1.0845733880996704,9.464279174804688,-0.10295066982507706,10.0860595703125,1.2054443359375,-6.6375732421875
7.3899999,-1.0654197931289673,9.299078941345215,-0.08379705995321274,7.293701171875,-2.2735595703125,-1.1749267578125
7.409999900000001,-1.0606313943862915,9.205705642700195,-0.08619125932455063,1.7852783203125,-2.0751953125,1.800537109375
7.4299999,-1.0438719987869263,9.186552047729492,-0.07661445438861847,-3.5247802734375,-2.7618408203125,1.2359619140625
7.449999900000001,-1.036689281463623,9.229647636413574,-0.06464344263076782,-4.852294921875,-5.67626953125,-2.3193359375
7.4699999,-1.0462661981582642,9.387664794921875,-0.07900865375995636,2.0294189453125,0.6561279296875,-12.8326416015625
7.489999900000001,-1.0821791887283325,9.550470352172852,-0.1149216815829277,4.4097900390625,7.32421875,-10.8642578125
7.5099999,-1.1180921792984009,9.694122314453125,-0.17956513166427612,-0.8087158203125,4.8370361328125,-2.532958984375
7.529999900000001,-1.1348515748977661,9.758766174316406,-0.2082955539226532,-1.861572265625,-2.1209716796875,-3.204345703125
7.5499999,-1.1348515748977661,9.720458984375,-0.16519992053508759,-6.011962890625,-5.401611328125,-5.9661865234375
7.569999900000001,-1.139639973640442,9.646238327026367,-0.13168109953403473,-12.054443359375,-8.36181640625,-0.8544921875
7.5899999000000005,-1.1540051698684692,9.59835433959961,-0.08140286058187485,-15.3656005859375,-10.0860595703125,5.2642822265625
7.609999900000001,-1.170764684677124,9.581595420837402,-0.016759412363171577,-15.8233642578125,-4.4403076171875,6.1187744140625
7.6299999000000005,-1.170764684677124,9.603142738342285,0.05746084079146385,-19.0277099609375,-5.7373046875,7.904052734375
7.649999900000001,-1.1635819673538208,9.667786598205566,0.20111294090747833,-19.7296142578125,-2.4566650390625,1.708984375
7.6699999000000005,-1.1276689767837524,9.708487510681152,0.38067805767059326,-21.8963623046875,-3.11279296875,2.166748046875
7.6899999,-1.0893617868423462,9.739612579345703,0.5793967843055725,-14.9993896484375,-4.7760009765625,3.60107421875
7.709999900000001,-1.0438719987869263,9.653421401977539,0.7972691655158997,-7.2021484375,-2.4871826171875,4.4097900390625
7.7299999,-1.0031704902648926,9.526528358459473,0.9888052940368652,-0.732421875,-0.9307861328125,2.44140625
7.749999900000001,-0.9600749015808105,9.418789863586426,1.137245774269104,-4.150390625,-6.9580078125,-5.0048828125
7.7699999,-0.9313444495201111,9.387664794921875,1.2066776752471924,-10.07080078125,-13.153076171875,-3.8299560546875
7.789999900000001,-0.8906430602073669,9.509769439697266,1.216254472732544,-12.603759765625,-13.9007568359375,1.1749267578125
7.8099999,-0.8259995579719543,9.780313491821289,1.161187767982483,-17.9901123046875,-15.5029296875,7.2479248046875
7.829999900000001,-0.6871358752250671,10.1753568649292,1.1492167711257935,-14.6484375,-11.6424560546875,5.2490234375
7.8499999,-0.4884171485900879,10.584765434265137,1.1971008777618408,-9.0789794921875,-12.9852294921875,9.7503662109375
7.869999900000001,-0.2561795711517334,10.910377502441406,1.2976573705673218,-1.0986328125,-17.9290771484375,15.19775390625
7.8899999,-0.002394201699644327,11.063606262207031,1.460463047027588,0.91552734375,-19.775390625,15.3961181640625
7.909999900000001,0.2298433631658554,11.02051067352295,1.6855180263519287,-1.6021728515625,-17.059326171875,19.9737548828125
7.9299999,0.4429273009300232,10.848128318786621,1.944091796875,-14.190673828125,-31.0821533203125,23.0560302734375
7.949999900000001,0.6416460275650024,10.644620895385742,2.2433669567108154,-34.1949462890625,-44.7845458984375,24.6429443359375
7.9699999,0.8092401623725891,10.486603736877441,2.4803929328918457,-32.989501953125,-46.6461181640625,25.787353515625
7.989999900000001,0.9768342971801758,10.433931350708008,2.691082715988159,-19.9432373046875,-34.4696044921875,21.2554931640625
8.0099999,1.1444283723831177,10.517727851867676,2.911349296569824,-17.791748046875,-27.9693603515625,19.6380615234375
8.0299999,1.335964560508728,10.702081680297852,3.1890766620635986,-30.303955078125,-43.1365966796875,22.216796875
8.049999900000001,1.5059528350830078,10.931924819946289,3.49314022064209,-34.423828125,-58.258056640625,20.5841064453125
8.069999900000001,1.647210717201233,11.149797439575195,3.7158010005950928,-20.6451416015625,-60.8673095703125,23.9410400390625
8.0899999,1.7142484188079834,11.329362869262695,3.794809579849243,-12.26806640625,-55.1300048828125,26.6571044921875
8.1099999,1.6974890232086182,11.422736167907715,3.7181951999664307,-9.5367431640625,-58.3648681640625,28.74755859375
8.129999900000001,1.5921441316604614,11.508927345275879,3.4356794357299805,8.2550048828125,-68.7408447265625,29.23583984375
8.149999900000001,1.4317326545715332,11.578359603881836,3.021482467651367,17.3797607421875,-64.5294189453125,36.31591796875
8.1699999,1.2665326595306396,11.621455192565918,2.6144683361053467,5.096435546875,-49.9114990234375,46.234130859375
8.1899999,1.1300631761550903,11.597513198852539,2.274491548538208,3.72314453125,-46.478271484375,41.2139892578125
8.2099999,1.015141487121582,11.42752456665039,2.070984363555908,19.71435546875,-56.9000244140625,39.6575927734375
8.229999900000001,0.8786720037460327,11.128249168395996,1.900996208190918,36.651611328125,-61.737060546875,43.0450439453125
8.2499999,0.6919242739677429,10.718840599060059,1.6112977266311646,36.4990234375,-56.7169189453125,48.8433837890625
8.2699999,0.45010992884635925,10.259154319763184,1.1324573755264282,32.53173828125,-52.42919921875,54.62646484375
8.2899999,0.22266076505184174,9.792284965515137,0.49559974670410156,35.064697265625,-48.5687255859375,56.7626953125
8.309999900000001,0.06703764945268631,9.313444137573242,-0.11013327538967133,24.4293212890625,-34.942626953125,58.3038330078125
8.3299999,0.009576806798577309,8.858546257019043,-0.5506663918495178,10.4522705078125,-19.4854736328125,57.708740234375
8.3499999,0.07182604819536209,8.429984092712402,-0.7996633648872375,13.397216796875,-21.5606689453125,55.145263671875
8.3699999,0.24660277366638184,8.054094314575195,-0.8092401623725891,15.594482421875,-23.8800048828125,51.4373779296875
8.389999900000001,0.5171475410461426,7.762001991271973,-0.689530074596405,6.6680908203125,-17.1966552734375,45.684814453125
8.4099999,0.8355764150619507,7.55131196975708,-0.5339069962501526,-4.852294921875,-9.490966796875,46.4630126953125
8.4299999,1.1803414821624756,7.457938194274902,-0.35913026332855225,-6.77490234375,-6.9580078125,44.98291015625
8.4499999,1.5418659448623657,7.443572998046875,-0.08619125932455063,-9.521484375,-8.8653564453125,36.712646484375
8.469999900000001,1.8579005002975464,7.422025203704834,0.16759411990642548,-7.6751708984375,-13.427734375,31.18896484375
8.4899999,2.140416383743286,7.400477409362793,0.3734954595565796,0.42724609375,-17.1966552734375,25.9246826171875
8.5099999,2.389413356781006,7.3669586181640625,0.4429273009300232,-1.3427734375,-17.578125,23.13232421875
8.5299999,2.5977089405059814,7.338228225708008,0.3734954595565796,-6.7901611328125,-13.5650634765625,23.345947265625
8.549999900000001,2.779668092727661,7.3238630294799805,0.23942017555236816,-11.7340087890625,-10.589599609375,22.0489501953125
8.569999900000001,2.935291290283203,7.319074630737305,0.15801730751991272,-10.6658935546875,-10.5133056640625,18.49365234375
8.5899999,3.0526070594787598,7.297526836395264,0.13407529890537262,-13.519287109375,-16.0980224609375,17.15087890625
8.6099999,3.095702886581421,7.292738437652588,0.08858546614646912,-11.810302734375,-19.195556640625,14.16015625
8.629999900000001,3.117250680923462,7.328651428222656,-0.009576806798577309,-8.11767578125,-13.671875,8.5906982421875
8.649999900000001,3.1028854846954346,7.417236804962158,-0.19632454216480255,-2.5787353515625,-5.9967041015625,4.0435791015625
8.6699999,3.1244332790374756,7.51779317855835,-0.42377370595932007,4.913330078125,-2.105712890625,2.9296875
8.6899999,3.141192674636841,7.594407558441162,-0.6129156351089478,4.1351318359375,2.7313232421875,2.471923828125
8.709999900000001,3.2178070545196533,7.671022415161133,-0.6991068720817566,-7.415771484375,4.4708251953125,1.129150390625
8.729999900000001,3.2992098331451416,7.716512203216553,-0.6224924325942993,-12.664794921875,10.6658935546875,-0.732421875
8.7499999,3.375824451446533,7.690176010131836,-0.45250412821769714,-11.383056640625,7.0343017578125,-0.2288818359375
8.7699999,3.44765043258667,7.615955829620361,-0.2849099934101105,-8.4686279296875,-0.8544921875,-3.692626953125
8.7899999,3.490746021270752,7.46033239364624,-0.17717093229293823,-13.916015625,2.3345947265625,-9.1705322265625
8.809999900000001,3.507505416870117,7.285555839538574,-0.181959331035614,-23.345947265625,8.85009765625,-8.1329345703125
8.8299999,3.5266590118408203,7.206547260284424,-0.3016694188117981,-41.7633056640625,10.6658935546875,-3.448486328125
8.8499999,3.5865142345428467,7.252037048339844,-0.3711012601852417,-75.5462646484375,21.78955078125,1.953125
8.8699999,3.691859006881714,7.362170219421387,-0.35913026332855225,-94.7113037109375,31.7230224609375,4.3792724609375
8.889999900000001,3.8522706031799316,7.491456985473633,-0.2346317619085312,-91.3238525390625,31.9366455078125,0.518798828125
8.9099999,4.1156325340271,7.599195957183838,0.21547815203666687,-93.8568115234375,32.2723388671875,-8.4228515625
8.9299999,4.412513732910156,7.599195957183838,0.8547300100326538,-74.4171142578125,22.2015380859375,-18.829345703125
8.9499999,4.714183330535889,7.5848307609558105,1.4245500564575195,-34.5001220703125,0.9002685546875,-26.2603759765625
8.969999900000001,4.946420669555664,7.5848307609558105,1.867477297782898,-35.64453125,1.9378662109375,-27.0843505859375
8.9899999,5.066130638122559,7.625532627105713,2.0398597717285156,-44.6624755859375,10.7879638671875,-26.397705078125
9.0099999,5.109226226806641,7.752425193786621,2.0829553604125977,-32.2723388671875,5.340576171875,-29.8004150390625
9.0299999,4.999093055725098,7.879317760467529,2.0614075660705566,-14.404296875,-7.32421875,-29.72412109375
9.049999900000001,4.8722004890441895,8.166622161865234,1.9752163887023926,-22.1405029296875,-16.7083740234375,-31.9976806640625
9.069999900000001,4.654327869415283,8.580819129943848,1.778891921043396,-34.8968505859375,-0.1220703125,-28.3355712890625
9.0899999,4.431667327880859,9.093177795410156,1.5083470344543457,-33.87451171875,5.8746337890625,-15.5029296875
9.1099999,4.206612586975098,9.569623947143555,1.3096283674240112,-3.7994384765625,-7.6751708984375,-18.768310546875
9.129999900000001,3.9911341667175293,9.928754806518555,1.2090718746185303,28.2745361328125,-18.4326171875,-27.6947021484375
9.149999900000001,3.711012601852417,9.880870819091797,1.3215993642807007,42.66357421875,-7.4920654296875,-20.0347900390625
9.1699999,3.332728862762451,9.509769439697266,1.314416766166687,67.5048828125,-11.1846923828125,-23.7579345703125
9.1899999,2.808398485183716,8.980650901794434,1.1563993692398071,86.944580078125,-10.162353515625,-36.529541015625
9.209999900000001,2.2409727573394775,8.427590370178223,0.8236053586006165,79.8797607421875,10.711669921875,-34.97314453125
9.229999900000001,1.7381904125213623,8.034940719604492,0.4908113479614258,69.5953369140625,33.966064453125,-29.84619140625
9.2499999,1.4101848602294922,7.9415669441223145,0.28730419278144836,71.2890625,41.0919189453125,-36.9415283203125
9.2699999,1.278503656387329,7.922413349151611,0.33758243918418884,67.138671875,42.17529296875,-45.3948974609375
9.2899999,1.3192051649093628,8.058882713317871,0.5530605912208557,78.582763671875,65.85693359375,-66.4825439453125
9.309999900000001,1.3766659498214722,8.307879447937012,0.768538773059845,98.0224609375,86.0137939453125,-83.831787109375
9.3299999,1.45806884765625,8.719682693481445,1.0247182846069336,71.3653564453125,78.3233642578125,-71.319580078125
9.3499999,1.482010841369629,9.169792175292969,1.3910311460494995,33.75244140625,75.408935546875,-54.4586181640625
9.3699999,1.3982137441635132,9.50737476348877,1.8076223134994507,25.5279541015625,63.4002685546875,-55.572509765625
9.389999900000001,1.2521674633026123,9.780313491821289,2.1787235736846924,31.097412109375,52.55126953125,-71.533203125
9.4099999,1.094150185585022,9.947908401489258,2.300827741622925,12.51220703125,58.9141845703125,-71.929931640625
9.4299999,0.9074024558067322,10.046070098876953,2.367865562438965,-41.4581298828125,66.2689208984375,-43.9453125
9.4499999,0.6560112833976746,10.134655952453613,1.9081788063049316,-67.6422119140625,10.894775390625,-21.3775634765625
9.469999900000001,0.3926490843296051,10.098742485046387,1.7286136150360107,-127.166748046875,13.4124755859375,-16.2200927734375
9.4899999,0.05985504388809204,9.986215591430664,1.6304513216018677,-162.4298095703125,37.7655029296875,-7.8582763671875
9.5099999,-0.19153612852096558,9.904812812805176,1.9991583824157715,-126.7547607421875,38.543701171875,-15.411376953125
9.5299999,-0.3495534360408783,9.90241813659668,2.6144683361053467,-85.5255126953125,24.658203125,-25.665283203125
9.549999900000001,-0.3878606855869293,9.967061996459961,3.4356794357299805,-130.1116943359375,29.022216796875,-8.0108642578125
9.569999900000001,-0.363918662071228,10.074800491333008,4.120420932769775,-168.1976318359375,47.0733642578125,10.5743408203125
9.5899999,-0.2944868206977844,10.08437728881836,4.766855716705322,-148.895263671875,48.3551025390625,9.1094970703125
9.6099999,-0.2106897532939911,10.077195167541504,5.305551052093506,-71.5789794921875,44.891357421875,-6.591796875
9.629999900000001,-0.1149216815829277,9.921571731567383,5.8203043937683105,-31.31103515625,39.48974609375,3.326416015625
9.649999900000001,-0.08619125932455063,9.825803756713867,6.179434776306152,-19.1192626953125,23.74267578125,18.951416015625
9.6699999,-0.08379705995321274,9.679757118225098,6.1985883712768555,-2.5482177734375,-7.3394775390625,20.843505859375
9.6899999,-0.20111294090747833,9.588777542114258,5.961562156677246,5.79833984375,2.288818359375,16.3726806640625
9.709999900000001,-0.33518823981285095,9.497797966003418,5.453991413116455,12.7716064453125,30.5328369140625,13.7481689453125
9.729999900000001,-0.5003881454467773,9.430760383605957,4.948814868927002,12.6495361328125,39.2608642578125,9.7198486328125
9.7499999,-0.6560112833976746,9.332598686218262,4.596867084503174,3.4332275390625,41.046142578125,6.53076171875
9.7699999,-0.7805097699165344,9.248801231384277,4.517858505249023,33.111572265625,30.5633544921875,-10.5438232421875
9.7899999,-0.8954314589500427,9.107542991638184,4.599261283874512,81.5887451171875,22.8118896484375,-18.9208984375
9.809999900000001,-1.0247182846069336,8.949525833129883,4.639962673187256,95.39794921875,14.2822265625,-16.3726806640625
9.8299999,-1.1444283723831177,8.889671325683594,4.606443881988525,96.954345703125,18.5546875,-25.4058837890625
9.8499999,-1.2449848651885986,8.875306129455566,4.355052947998047,83.5723876953125,19.95849609375,-27.89306640625
9.8699999,-1.314416766166687,8.973467826843262,3.9600095748901367,38.604736328125,16.7999267578125,-13.73291015625
9.889999900000001,-1.3239935636520386,9.155426979064941,3.5960910320281982,-2.6397705078125,27.6947021484375,-6.89697265625
9.9099999,-1.2737152576446533,9.378087997436523,3.339911460876465,-1.2664794921875,31.3720703125,-4.0283203125
9.9299999,-1.1875240802764893,9.560047149658203,3.335123062133789,14.373779296875,22.918701171875,1.0986328125
9.9499999,-1.091755986213684,9.68694019317627,3.490746021270752,28.472900390625,15.5181884765625,3.143310546875
9.969999900000001,-1.036689281463623,9.66539192199707,3.6583402156829834,23.529052734375,13.5040283203125,4.364013671875
9.9899999,-1.0438719987869263,9.516951560974121,3.713406801223755,10.7269287109375,15.3350830078125,4.94384765625
10.0099999,-1.0989385843276978,9.251194953918457,3.646369218826294,4.2724609375,17.1356201171875,3.997802734375
10.0299999,-1.1635819673538208,8.96389102935791,3.509899616241455,2.1209716796875,15.716552734375,0.6103515625
10.049999900000001,-1.2066776752471924,8.724471092224121,3.383007049560547,4.608154296875,14.892578125,-2.62451171875
10.069999900000001,-1.216254472732544,8.592789649963379,3.308786630630493,-0.18310546875,12.420654296875,-2.227783203125
10.0899999,-1.1994950771331787,8.595184326171875,3.2752678394317627,-2.5177001953125,7.0343017578125,-1.983642578125
10.1099999,-1.161187767982483,8.700529098510742,3.2537200450897217,3.9825439453125,2.8533935546875,-3.8604736328125
10.129999900000001,-1.113303780555725,8.887276649475098,3.2178070545196533,3.173828125,-0.4730224609375,-3.72314453125
10.149999900000001,-1.070208191871643,9.157821655273438,3.1531636714935303,3.814697265625,-2.38037109375,-5.1727294921875
10.1699999,-1.0223240852355957,9.488221168518066,3.07415509223938,16.0980224609375,-4.2877197265625,-7.32421875
10.1899999,-1.0007762908935547,9.804255485534668,2.935291290283203,13.85498046875,-5.5999755859375,-4.1351318359375
10.209999900000001,-0.9792284965515137,10.0580415725708,2.8371291160583496,0.213623046875,-1.8768310546875,0.274658203125
10.229999900000001,-0.9600749015808105,10.134655952453613,2.715024709701538,7.2479248046875,-2.13623046875,2.655029296875
10.2499999,-0.9457096457481384,10.02691650390625,2.564189910888672,21.9573974609375,-7.6751708984375,2.716064453125
10.2699999,-0.9169792532920837,9.770736694335938,2.4396915435791016,11.16943359375,-6.6070556640625,3.448486328125
10.2899999,-0.8906430602073669,9.430760383605957,2.3798365592956543,1.3580322265625,-3.0975341796875,0.9765625
10.309999900000001,-0.8738836050033569,9.074024200439453,2.3965959548950195,7.62939453125,-8.392333984375,-3.1280517578125
10.3299999,-0.8810662031173706,8.760383605957031,2.4684219360351562,11.016845703125,-16.78466796875,-7.904052734375
10.3499999,-0.912190854549408,8.530540466308594,2.542642116546631,5.7525634765625,-18.0511474609375,-12.6953125
10.3699999,-0.9026140570640564,8.367734909057617,2.647987127304077,3.60107421875,-14.09912109375,-17.730712890625
10.389999900000001,-0.8307880163192749,8.257601737976074,2.7006595134735107,19.6075439453125,-19.134521484375,-26.9012451171875
10.4099999,-0.6200982332229614,8.169015884399414,2.892195701599121,34.3780517578125,-28.0609130859375,-40.1611328125
10.4299999,-0.2082955539226532,8.157045364379883,3.3423056602478027,32.77587890625,-32.4249267578125,-63.7969970703125
10.4499999,0.35913026332855225,8.365341186523438,3.9600095748901367,38.7420654296875,-53.558349609375,-85.8001708984375
10.469999900000001,0.9600749015808105,9.136273384094238,4.630385875701904,98.7396240234375,-88.043212890625,-104.3548583984375
10.4899999,1.4628572463989258,10.584765434265137,5.408501625061035,143.5089111328125,-113.983154296875,-106.75048828125
10.5099999,1.6328455209732056,12.993332862854004,5.521028995513916,157.012939453125,-148.9410400390625,-94.4671630859375
10.5299999,1.3287819623947144,16.352397918701172,4.436455726623535,178.7872314453125,-168.212890625,-50.0946044921875
10.549999900000001,0.6799532771110535,19.974824905395508,2.0638017654418945,125.79345703125,-139.6484375,43.5333251953125
10.569999900000001,-0.28969839215278625,23.27164077758789,-0.8667010068893433,57.9681396484375,-81.0089111328125,115.570068359375
10.5899999,-1.4772224426269531,25.428815841674805,-3.8331170082092285,93.44482421875,-58.9752197265625,141.8914794921875
10.6099999,-2.829946517944336,26.094404220581055,-6.260837554931641,138.5345458984375,-62.1185302734375,176.1627197265625
10.629999900000001,-4.395754337310791,25.39769172668457,-7.407660007476807,94.512939453125,-17.1661376953125,234.4970703125
10.649999900000001,-6.200982570648193,23.345861434936523,-8.018181800842285,102.96630859375,23.651123046875,289.00146484375
10.6699999,-8.224082946777344,20.377050399780273,-8.070854187011719,137.1917724609375,40.6036376953125,308.5174560546875
10.6899999,-10.424354553222656,16.780960083007812,-7.623138427734375,52.886962890625,75.0885009765625,307.0831298828125
10.709999900000001,-12.69405746459961,12.832921028137207,-7.285555839538574,-47.210693359375,104.1412353515625,318.023681640625
10.729999900000001,-14.784195899963379,8.83939266204834,-7.19936466217041,-97.4578857421875,112.85400390625,317.0166015625
10.7499999,-16.577451705932617,4.321534156799316,-7.053318023681641,-119.903564453125,134.8419189453125,310.1806640625
10.7699999,-17.767370223999023,-1.0749965906143188,-6.751648902893066,-64.39208984375,190.2008056640625,251.6632080078125
10.7899999,-18.3324031829834,-7.412448406219482,-6.538564682006836,11.4288330078125,211.761474609375,125.3509521484375
10.809999900000001,-18.133684158325195,-13.481749534606934,-6.509834289550781,111.0076904296875,264.4500732421875,1.0833740234375
10.8299999,-17.544710159301758,-17.73624610900879,-5.906495571136475,116.4398193359375,379.5318603515625,-95.0164794921875
10.8499999,-17.173608779907227,-19.73540496826172,-4.714183330535889,63.2781982421875,439.1326904296875,-142.791748046875
10.8699999,-16.989255905151367,-18.614917755126953,-1.0438719987869263,-20.538330078125,484.527587890625,-265.4876708984375
10.889999900000001,-16.95573616027832,-15.524003982543945,4.692635536193848,-137.6800537109375,499.9847412109375,-401.702880859375
10.9099999,-17.094600677490234,-11.372458457946777,13.098677635192871,-167.5262451171875,499.9847412109375,-367.034912109375
10.9299999,-16.203956604003906,-5.329493045806885,23.714567184448242,21.6064453125,430.2520751953125,-420.5322265625
10.9499999,-14.745888710021973,2.1092917919158936,34.047943115234375,113.8153076171875,183.1817626953125,-439.2852783203125
10.969999900000001,-12.595894813537598,10.654197692871094,42.58805847167969,-72.2198486328125,-92.559814453125,-287.3687744140625
10.9899999,-10.11550235748291,19.352333068847656,45.92797088623047,-42.48046875,-225.067138671875,-190.673828125
11.0099999,-7.85537576675415,26.898855209350586,43.31589889526367,117.889404296875,-286.102294921875,-148.3917236328125
11.0299999,-6.19379997253418,32.055965423583984,35.939361572265625,52.2003173828125,-321.2127685546875,-68.6187744140625
11.049999900000001,-5.295974254608154,34.521995544433594,25.558103561401367,-40.7867431640625,-361.51123046875,37.04833984375
11.069999900000001,-5.145139217376709,34.26342010498047,14.990097045898438,-72.75390625,-351.3336181640625,125.579833984375
11.0899999,-5.556941986083984,31.486146926879883,5.284003257751465,-61.82861328125,-322.6470947265625,172.5311279296875
11.1099999,-6.217741966247559,27.02574920654297,-2.604891538619995,-48.4771728515625,-266.9219970703125,185.8062744140625
11.129999900000001,-6.72531270980835,21.830331802368164,-8.329427719116211,-10.3607177734375,-186.9659423828125,181.243896484375
11.149999900000001,-6.801927089691162,16.572664260864258,-11.745953559875488,74.1729736328125,-89.569091796875,179.8248291015625
11.1699999,-6.502651691436768,11.537657737731934,-12.959814071655273,101.50146484375,-6.378173828125,179.229736328125
11.1899999,-5.796362400054932,6.878541469573975,-11.915942192077637,62.835693359375,73.486328125,153.045654296875
11.209999900000001,-4.833893299102783,2.846705913543701,-8.707711219787598,45.7305908203125,134.9945068359375,101.1199951171875
11.229999900000001,-3.5673606395721436,-0.17956513166427612,-3.9217023849487305,22.5677490234375,137.8021240234375,48.0194091796875
11.2499999,-2.0254945755004883,-1.6687586307525635,1.4173674583435059,-25.1312255859375,76.11083984375,23.2086181640625
11.2699999,-0.4189853072166443,-1.6711528301239014,5.872976779937744,-14.4805908203125,27.008056640625,20.8587646484375
11.2899999,1.01753568649292,-0.5003881454467773,8.516175270080566,11.7034912109375,43.5638427734375,24.6734619140625
11.309999900000001,2.0590133666992188,1.1037269830703735,9.394847869873047,-42.17529296875,56.8389892578125,30.1513671875
11.3299999,2.695871114730835,2.6168625354766846,9.078812599182129,-49.49951171875,42.3431396484375,12.4359130859375
11.3499999,2.9975404739379883,3.7277719974517822,8.339004516601562,4.608154296875,29.815673828125,-12.02392578125
11.3699999,3.1004912853240967,4.5154643058776855,7.568071365356445,16.1285400390625,33.599853515625,-16.8304443359375
11.389999900000001,3.0861260890960693,5.200206279754639,6.962338447570801,-8.331298828125,38.0401611328125,-7.75146484375
11.4099999,2.964021682739258,5.7987565994262695,6.574477672576904,-1.4190673828125,33.0047607421875,-5.67626953125
11.4299999,2.8107926845550537,6.325480937957764,6.493074893951416,19.256591796875,22.064208984375,-11.8560791015625
11.4499999,2.6360161304473877,6.847416877746582,6.53377628326416,17.02880859375,20.08056640625,-19.4549560546875
11.469999900000001,2.499546527862549,7.328651428222656,6.493074893951416,10.5743408203125,22.5830078125,-10.711669921875
11.4899999,2.406172752380371,7.702147006988525,6.457161903381348,15.594482421875,35.8428955078125,-0.6866455078125
11.5099999,2.3558945655822754,7.879317760467529,6.45476770401001,18.9361572265625,36.224365234375,-0.1068115234375
11.5299999,2.3104045391082764,7.843404769897461,6.524199485778809,20.599365234375,23.3306884765625,-6.439208984375
11.549999900000001,2.27209734916687,7.73087739944458,6.603208065032959,32.2723388671875,17.9290771484375,-7.110595703125
11.569999900000001,2.2242133617401123,7.620744228363037,6.603208065032959,32.89794921875,26.0162353515625,0.640869140625
11.5899999,2.1715409755706787,7.644686222076416,6.53377628326416,30.426025390625,31.9366455078125,4.180908203125
11.6099999,2.126051187515259,7.752425193786621,6.5912370681762695,29.9530029296875,31.3720703125,1.0986328125
11.629999900000001,2.075772762298584,7.833827972412109,6.746860504150391,13.427734375,17.7154541015625,6.9427490234375
11.649999900000001,2.054224967956543,7.8745293617248535,7.015010833740234,-3.7994384765625,9.5672607421875,12.4359130859375
11.6699999,2.0422539710998535,7.812280178070068,7.204153060913086,-11.6729736328125,7.38525390625,9.5977783203125
11.6899999,2.027888774871826,7.618350028991699,7.218518257141113,-0.030517578125,2.2430419921875,6.6070556640625
11.709999900000001,2.0231003761291504,7.38132381439209,7.113173484802246,6.8206787109375,0.152587890625,4.21142578125
11.729999900000001,1.9967641830444336,7.1921820640563965,6.897695064544678,4.4097900390625,-3.47900390625,2.5634765625
11.7499999,1.968033790588379,7.101202011108398,6.619967937469482,6.6986083984375,-3.7078857421875,2.9296875
11.7699999,1.9177556037902832,7.062894821166992,6.36378812789917,1.6326904296875,-2.6092529296875,5.1116943359375
11.7899999,1.8483237028121948,7.06528902053833,6.141127586364746,0.396728515625,-3.84521484375,7.537841796875
11.809999900000001,1.764526605606079,7.038952827453613,6.009446144104004,6.89697265625,-6.500244140625,5.4473876953125
11.8299999,1.6663644313812256,6.979097843170166,5.856217384338379,14.129638671875,-12.847900390625,4.0283203125
11.8499999,1.5753847360610962,6.912060260772705,5.693411827087402,15.167236328125,-9.9029541015625,4.1961669921875
11.8699999,1.5107412338256836,6.854599475860596,5.489904403686523,6.7596435546875,-1.922607421875,4.0130615234375
11.889999900000001,1.479616641998291,6.809109687805176,5.315127849578857,1.251220703125,-0.4730224609375,2.74658203125
11.9099999,1.4963760375976562,6.8162922859191895,5.274426460266113,4.1351318359375,-1.3885498046875,0.701904296875
11.9299999,1.5634137392044067,6.888118267059326,5.382165431976318,8.148193359375,-2.410888671875,-0.6103515625
11.9499999,1.6519991159439087,7.060500621795654,5.602431774139404,9.857177734375,-4.1961669921875,-1.64794921875
11.969999900000001,1.7501614093780518,7.297526836395264,5.839457988739014,18.524169921875,-7.9193115234375,-1.5716552734375
11.9899999,1.843535304069519,7.592013359069824,5.992686748504639,23.468017578125,-10.55908203125,-0.6866455078125
12.0099999,1.9177556037902832,7.857769966125488,5.9519853591918945,25.6500244140625,-9.5367431640625,3.448486328125
12.0299999,1.9752163887023926,8.061277389526367,5.781997203826904,20.1873779296875,-0.91552734375,9.1400146484375
12.049999900000001,2.008735179901123,8.149862289428711,5.626373767852783,4.57763671875,7.2479248046875,11.444091796875
12.069999900000001,2.027888774871826,8.097189903259277,5.57370138168335,7.354736328125,3.570556640625,10.009765625
12.0899999,2.056619167327881,7.893682956695557,5.600037574768066,18.6309814453125,-4.6234130859375,8.5601806640625
12.1099999,2.097320795059204,7.637503623962402,5.652710437774658,15.655517578125,-2.7313232421875,7.26318359375
12.129999900000001,2.126051187515259,7.362170219421387,5.671864032745361,4.608154296875,6.4849853515625,7.232666015625
12.149999900000001,2.1140801906585693,7.16584587097168,5.698200225830078,-2.227783203125,6.34765625,7.4310302734375
12.1699999,2.0661959648132324,7.0772600173950195,5.700594425201416,-0.67138671875,-2.349853515625,5.2642822265625
12.1899999,2.013523578643799,7.084442615509033,5.65031623840332,-3.0364990234375,-4.3182373046875,2.6397705078125
12.209999900000001,2.0015525817871094,7.161057472229004,5.530605792999268,-8.8348388671875,5.828857421875,2.3345947265625
12.229999900000001,2.054224967956543,7.295132637023926,5.430049419403076,-12.26806640625,11.0626220703125,2.5482177734375
12.2499999,2.1595699787139893,7.42681360244751,5.463568210601807,-7.8582763671875,6.04248046875,1.8157958984375
12.2699999,2.2840683460235596,7.5632829666137695,5.501875400543213,0.396728515625,-4.3792724609375,3.143310546875
12.289999900000002,2.4181437492370605,7.6566572189331055,5.530605792999268,4.5013427734375,1.52587890625,2.1514892578125
12.309999900000001,2.5330653190612793,7.682993412017822,5.456385612487793,-3.7689208984375,11.749267578125,4.241943359375
12.3299999,2.6216509342193604,7.644686222076416,5.386953830718994,-7.3394775390625,14.9078369140625,4.2724609375
12.3499999,2.671929121017456,7.558494567871094,5.4444146156311035,3.631591796875,11.1846923828125,0.946044921875
12.3699999,2.6862943172454834,7.469909191131592,5.530605792999268,11.1846923828125,4.791259765625,-0.9613037109375
12.389999900000001,2.691082715988159,7.422025203704834,5.592854976654053,3.021240234375,6.8206787109375,-0.1068115234375
12.4099999,2.6862943172454834,7.429207801818848,5.5760955810546875,-13.7481689453125,12.4359130859375,3.326416015625
12.4299999,2.671929121017456,7.4986395835876465,5.571307182312012,-15.716552734375,12.298583984375,3.96728515625
12.4499999,2.650381326675415,7.618350028991699,5.6670756340026855,-10.1470947265625,6.378173828125,1.0528564453125
12.469999900000001,2.6001031398773193,7.7763671875,5.825092792510986,-6.9732666015625,-1.129150390625,2.0294189453125
12.4899999,2.5306711196899414,7.924807548522949,6.004657745361328,1.0986328125,-3.1890869140625,4.8675537109375
12.5099999,2.451662540435791,8.02536392211914,6.121973514556885,8.819580078125,-3.6773681640625,5.3253173828125
12.5299999,2.3798365592956543,8.04930591583252,6.086060523986816,8.36181640625,-11.627197265625,4.486083984375
12.549999900000001,2.3271639347076416,8.039729118347168,5.8442463874816895,4.1961669921875,-16.143798828125,6.3629150390625
12.569999900000001,2.3080103397369385,8.015787124633789,5.549759387969971,-14.373779296875,-4.1351318359375,10.3607177734375
12.5899999,2.298433542251587,7.965508937835693,5.310339450836182,-28.533935546875,5.7220458984375,15.472412109375
12.6099999,2.298433542251587,7.908048152923584,5.2672438621521,-15.472412109375,2.5177001953125,15.8233642578125
12.629999900000001,2.300827741622925,7.817068576812744,5.384559631347656,-2.777099609375,-6.2408447265625,11.3525390625
12.649999900000001,2.298433542251587,7.747636795043945,5.456385612487793,1.77001953125,-7.7362060546875,11.41357421875
12.6699999,2.2912509441375732,7.723694801330566,5.463568210601807,-6.256103515625,7.26318359375,15.9759521484375
12.6899999,2.2433669567108154,7.7213006019592285,5.451597213745117,-11.77978515625,16.845703125,22.003173828125
12.709999900000001,2.1715409755706787,7.690176010131836,5.609614372253418,-10.6201171875,9.9945068359375,22.6287841796875
12.729999900000001,2.10210919380188,7.627926826477051,5.849034786224365,4.6539306640625,-3.570556640625,16.2353515625
12.7499999,2.049436569213867,7.508216381072998,5.942408561706543,25.634765625,-9.9639892578125,15.8538818359375
12.7699999,2.0374655723571777,7.364564418792725,5.913678169250488,11.505126953125,4.7149658203125,18.00537109375
12.789999900000002,2.0446481704711914,7.247248649597168,5.839457988739014,6.195068359375,16.510009765625,15.6402587890625
12.809999900000001,2.0901381969451904,7.141903877258301,5.932831764221191,27.618408203125,7.5225830078125,10.833740234375
12.8299999,2.161964178085327,7.115567684173584,5.916072368621826,50.5523681640625,-19.4549560546875,9.3841552734375
12.8499999,2.2864625453948975,7.182605266571045,5.8203043937683105,36.407470703125,-15.13671875,12.7716064453125
12.8699999,2.4157495498657227,7.3023152351379395,5.492298603057861,7.476806640625,7.1563720703125,17.730712890625
12.889999900000001,2.535459518432617,7.47230339050293,5.145139217376709,-0.4425048828125,8.453369140625,19.0582275390625
12.9099999,2.6216509342193604,7.666234016418457,5.0685248374938965,3.7384033203125,-5.9356689453125,14.6331787109375
12.9299999,2.719813108444214,7.850587368011475,5.16429328918457,18.37158203125,-18.73779296875,16.5557861328125
12.9499999,2.80361008644104,7.9846625328063965,5.2265424728393555,20.1568603515625,-21.3775634765625,23.3001708984375
12.969999900000001,2.913743495941162,8.04930591583252,5.0900726318359375,20.2789306640625,-16.876220703125,22.369384765625
12.9899999,3.0190882682800293,8.006210327148438,4.750096321105957,24.4293212890625,-10.6048583984375,17.39501953125
13.0099999,3.136404275894165,7.86734676361084,4.3861775398254395,12.7716064453125,-4.913330078125,15.167236328125
13.0299999,3.2776620388031006,7.647080421447754,4.19224739074707,-10.101318359375,-1.6937255859375,18.9056396484375
13.049999900000001,3.4380736351013184,7.398083209991455,4.211400985717773,-18.5089111328125,-9.3231201171875,18.829345703125
13.069999900000001,3.600879430770874,7.1251444816589355,4.32871675491333,-0.1068115234375,-21.453857421875,10.040283203125
13.0899999,3.7493197917938232,6.871358871459961,4.390965938568115,21.54541015625,-20.4925537109375,4.2572021484375
13.1099999,3.8762125968933105,6.6846113204956055,4.247313976287842,21.8353271484375,-11.4898681640625,3.7384033203125
13.129999900000001,3.976768970489502,6.567295074462891,4.031835556030273,2.532958984375,-1.9073486328125,3.0059814453125
13.149999900000001,4.043806552886963,6.540958881378174,3.9001545906066895,-19.7296142578125,-0.213623046875,-1.5716552734375
13.1699999,4.079719543457031,6.598419666290283,3.974374771118164,-9.0179443359375,-7.1258544921875,-10.040283203125
13.1899999,4.089296340942383,6.746860504150391,4.180276393890381,31.73828125,-14.4805908203125,-20.5841064453125
13.209999900000001,4.055777549743652,6.983886241912842,4.350264549255371,44.7235107421875,-19.4854736328125,-22.003173828125
13.229999900000001,4.041412353515625,7.319074630737305,4.424484729766846,18.4173583984375,-16.4337158203125,-20.56884765625
13.2499999,3.9887399673461914,7.615955829620361,4.359841346740723,-14.3890380859375,-12.26806640625,-12.8326416015625
13.2699999,3.93367338180542,7.838616371154785,4.292803764343262,-18.8140869140625,-11.41357421875,-12.26806640625
13.289999900000002,3.885789394378662,7.931990146636963,4.309563159942627,-0.8697509765625,-11.0321044921875,-24.932861328125
13.309999900000001,3.8355112075805664,7.924807548522949,4.455609321594238,2.3345947265625,-11.8560791015625,-28.1524658203125
13.3299999,3.77565598487854,7.85537576675415,4.745307922363281,-7.3394775390625,-13.5498046875,-22.0489501953125
13.3499999,3.737348794937134,7.8314337730407715,5.049371242523193,-22.8271484375,-21.6827392578125,-21.331787109375
13.3699999,3.6966474056243896,7.829039573669434,5.257667064666748,-37.5518798828125,-32.318115234375,-20.44677734375
13.389999900000001,3.6774938106536865,7.8745293617248535,5.355829238891602,-27.6031494140625,-33.3709716796875,-20.44677734375
13.4099999,3.689464807510376,8.008605003356934,5.398924827575684,-5.7830810546875,-36.4990234375,-25.238037109375
13.4299999,3.708618402481079,8.190564155578613,5.377377033233643,1.251220703125,-46.875,-23.74267578125
13.4499999,3.7181951999664307,8.4108304977417,5.224148273468018,-8.1329345703125,-54.7637939453125,-17.303466796875
13.469999900000001,3.734954595565796,8.614337921142578,4.932055473327637,-20.9503173828125,-49.6978759765625,-14.190673828125
13.4899999,3.7397429943084717,8.719682693481445,4.534617900848389,-16.4642333984375,-35.400390625,-11.322021484375
13.5099999,3.751713991165161,8.676587104797363,4.326322555541992,-15.44189453125,-26.702880859375,-8.758544921875
13.5299999,3.7445313930511475,8.456320762634277,4.350264549255371,-27.679443359375,-32.1502685546875,-7.843017578125
13.549999900000001,3.711012601852417,8.08043098449707,4.60165548324585,-47.821044921875,-39.0777587890625,-8.6669921875
13.569999900000001,3.648763418197632,7.623138427734375,4.8602294921875,-41.6107177734375,-39.794921875,-15.7470703125
13.5899999,3.579331636428833,7.189787864685059,4.99669885635376,-15.5792236328125,-38.116455078125,-27.679443359375
13.6099999,3.509899616241455,6.876147270202637,4.989516258239746,-5.5389404296875,-38.4521484375,-34.3017578125
13.629999900000001,3.445256233215332,6.670246124267578,4.900930881500244,-23.3612060546875,-37.261962890625,-34.1339111328125
13.649999900000001,3.378218650817871,6.586448669433594,4.8051629066467285,-44.647216796875,-35.4766845703125,-35.369873046875
13.6699999,3.31118106842041,6.567295074462891,4.795586109161377,-38.604736328125,-39.0777587890625,-45.654296875
13.6899999,3.2393548488616943,6.6391215324401855,4.752490520477295,-24.8870849609375,-43.792724609375,-53.7261962890625
13.709999900000001,3.1747114658355713,6.766014099121094,4.8267107009887695,-69.7174072265625,-37.7960205078125,-44.6319580078125
13.729999900000001,3.138798475265503,7.01979923248291,5.023035049438477,-114.3951416015625,-30.7769775390625,-40.6341552734375
13.7499999,3.1316158771514893,7.261613845825195,5.2911858558654785,-60.4248046875,-34.5458984375,-41.3055419921875
13.7699999,3.134010076522827,7.4770917892456055,5.626373767852783,-31.31103515625,-42.0074462890625,-35.8734130859375
13.789999900000002,3.160346269607544,7.618350028991699,5.947196960449219,-60.11962890625,-40.7257080078125,-30.2276611328125
13.809999900000001,3.181894063949585,7.630321025848389,6.167463779449463,-74.0203857421875,-27.130126953125,-26.153564453125
13.8299999,3.2106244564056396,7.508216381072998,6.320692539215088,-55.0537109375,-25.1617431640625,-29.35791015625
13.8499999,3.2417490482330322,7.326257228851318,6.40927791595459,-47.9888916015625,-34.637451171875,-34.6832275390625
13.8699999,3.287238836288452,7.103596210479736,6.342240333557129,-48.095703125,-36.102294921875,-37.8570556640625
13.889999900000001,3.337517261505127,7.017405033111572,6.234501361846924,-38.9556884765625,-10.711669921875,-41.7022705078125
13.9099999,3.3925838470458984,7.117961883544922,6.035782337188721,-48.7060546875,-8.3160400390625,-37.7960205078125
13.9299999,3.445256233215332,7.378929615020752,5.851428985595703,-80.62744140625,-14.068603515625,-23.773193359375
13.9499999,3.49314022064209,7.675810813903809,5.959167957305908,-151.67236328125,4.57763671875,-0.762939453125
13.969999900000001,3.5218706130981445,7.783549785614014,6.301538944244385,-195.2972412109375,19.6380615234375,17.3187255859375
13.9899999,3.514688014984131,7.592013359069824,6.801927089691162,-175.6744384765625,11.8865966796875,12.176513671875
14.0099999,3.4763808250427246,7.070077419281006,7.441178798675537,-172.6226806640625,14.7247314453125,4.486083984375
14.0299999,3.421314239501953,6.246472358703613,8.159439086914062,-211.7156982421875,31.7230224609375,9.33837890625
14.049999900000001,3.3423056602478027,5.238513469696045,8.722076416015625,-234.0850830078125,22.979736328125,13.9312744140625
14.069999900000001,3.251325845718384,4.273650169372559,9.150638580322266,-237.9302978515625,14.068603515625,19.10400390625
14.0899999,3.181894063949585,3.251325845718384,9.646238327026367,-275.726318359375,32.3638916015625,40.52734375
14.1099999,3.0885202884674072,2.190694570541382,10.132261276245117,-254.302978515625,39.093017578125,43.8385009765625
14.129999900000001,2.964021682739258,1.1252747774124146,10.589553833007812,-164.031982421875,8.85009765625,9.8114013671875
14.149999900000001,2.80361008644104,0.09816227108240128,10.927136421203613,-131.2103271484375,-16.265869140625,-7.4920654296875
14.1699999,2.612074136734009,-0.7733271718025208,10.922348022460938,-171.173095703125,-11.0931396484375,-0.1983642578125
14.1899999,2.425326347351074,-1.4748282432556152,10.608707427978516,-201.019287109375,2.7923583984375,14.373779296875
14.209999900000001,2.2697031497955322,-2.1308395862579346,10.113107681274414,-190.4144287109375,-3.570556640625,8.3770751953125
14.229999900000001,2.1475989818573,-2.829946517944336,9.586383819580078,-173.9959716796875,-15.533447265625,-10.4827880859375
14.2499999,2.0446481704711914,-3.581725835800171,9.150638580322266,-148.040771484375,-2.62451171875,-23.5137939453125
14.2699999,1.9560627937316895,-4.302380561828613,8.757989883422852,-152.8472900390625,12.8173828125,-26.0772705078125
14.289999900000002,1.8986018896102905,-4.817133903503418,8.427590370178223,-172.9888916015625,5.2032470703125,-29.3426513671875
14.309999900000001,1.900996208190918,-5.152322292327881,8.26239013671875,-165.46630859375,-0.2288818359375,-35.7666015625
14.3299999,1.8579005002975464,-5.4252610206604,7.553706169128418,-83.5723876953125,-4.3792724609375,-56.82373046875
14.3499999,1.824381709098816,-5.396530628204346,7.1706342697143555,-78.55224609375,24.932861328125,-59.8297119140625
14.3699999,1.7836803197860718,-5.281609058380127,6.773196697235107,-73.73046875,25.7720947265625,-57.037353515625
14.389999900000001,1.8076223134994507,-5.078101634979248,6.665457725524902,-89.1265869140625,25.08544921875,-38.57421875
14.4099999,1.900996208190918,-4.967968463897705,6.8378400802612305,-127.0904541015625,31.9061279296875,-18.98193359375
14.4299999,2.030282974243164,-5.039794445037842,7.168240070343018,-124.1912841796875,30.0140380859375,-26.0467529296875
14.4499999,2.1547815799713135,-5.257667064666748,7.4986395835876465,-89.3707275390625,25.7720947265625,-47.30224609375
14.469999900000001,2.3367409706115723,-5.504269599914551,7.833827972412109,-91.30859375,34.3017578125,-42.2821044921875
14.4899999,2.5282769203186035,-5.681440830230713,8.051700592041016,-109.9090576171875,36.3006591796875,-14.7247314453125
14.5099999,2.736572504043579,-5.856217384338379,8.166622161865234,-109.6343994140625,23.13232421875,4.9896240234375
14.5299999,2.9257144927978516,-6.155492782592773,8.288725852966309,-86.395263671875,19.500732421875,3.2958984375
14.549999900000001,3.0621838569641113,-6.581660270690918,8.31985092163086,-66.2384033203125,19.0887451171875,-4.8065185546875
14.569999900000001,3.114856481552124,-6.967126846313477,8.13789176940918,-60.577392578125,6.7138671875,-10.6964111328125
14.5899999,3.138798475265503,-7.287950038909912,7.802703380584717,-89.019775390625,0.5645751953125,-0.91552734375
14.6099999,3.181894063949585,-7.529764175415039,7.422025203704834,-93.170166015625,13.3056640625,8.9111328125
14.629999900000001,3.2537200450897217,-7.7883381843566895,7.072471618652344,-71.35009765625,24.871826171875,8.9111328125
14.649999900000001,3.421314239501953,-8.142680168151855,6.9695210456848145,-65.216064453125,21.78955078125,6.8206787109375
14.6699999,3.603273630142212,-8.492233276367188,7.024587631225586,-12.26806640625,12.908935546875,-10.894775390625
14.6899999,3.751713991165161,-8.83939266204834,7.082048416137695,15.9454345703125,2.288818359375,-28.3050537109375
14.709999900000001,3.8522706031799316,-9.083600997924805,7.137115478515625,-17.9901123046875,1.495361328125,-30.5328369140625
14.729999900000001,3.8762125968933105,-9.129091262817383,7.12035608291626,-37.689208984375,7.2174072265625,-36.43798828125
14.7499999,3.8762125968933105,-9.014169692993164,7.103596210479736,-22.2930908203125,-8.1787109375,-53.924560546875
14.7699999,3.9025487899780273,-8.688557624816895,7.0317702293396,-5.2947998046875,-19.9432373046875,-60.8978271484375
14.789999900000002,3.93367338180542,-8.26478385925293,6.818686485290527,17.02880859375,-21.087646484375,-68.634033203125
14.809999900000001,4.015076160430908,-7.891288757324219,6.555324077606201,29.9072265625,-17.1051025390625,-72.265625
14.8299999,4.153939723968506,-7.632715225219727,6.390124320983887,31.8450927734375,-25.32958984375,-78.0792236328125
14.8499999,4.326322555541992,-7.3693528175354,5.992686748504639,70.4345703125,-48.5076904296875,-96.00830078125
14.8699999,4.572925090789795,-7.058106422424316,5.738901615142822,55.7403564453125,-35.15625,-104.6142578125
14.889999900000001,4.884171485900879,-6.562506675720215,5.583278179168701,12.3138427734375,-10.1165771484375,-111.63330078125
14.9099999,5.197812080383301,-5.899312973022461,5.535394191741943,24.8260498046875,-31.402587890625,-119.9951171875
14.9299999,5.518634796142578,-5.04218864440918,5.564124584197998,68.267822265625,-65.155029296875,-130.9356689453125
14.9499999,5.781997203826904,-3.995922565460205,5.521028995513916,83.1298828125,-67.7337646484375,-131.1187744140625
14.969999900000001,5.992686748504639,-2.7916390895843506,5.106832027435303,64.697265625,-60.028076171875,-118.71337890625
14.9899999,6.157886981964111,-1.5394717454910278,4.443638324737549,57.9071044921875,-61.1419677734375,-105.0567626953125
15.0099999,6.315904140472412,-0.5195417404174805,3.8331170082092285,59.4329833984375,-58.563232421875,-92.34619140625
15.0299999,6.48828649520874,0.11971008777618408,3.4093432426452637,41.1834716796875,-54.534912109375,-89.2333984375
15.049999900000001,6.710947513580322,0.363918662071228,3.1531636714935303,33.7371826171875,-52.2308349609375,-91.7510986328125
15.069999900000001,6.998251438140869,0.3232172429561615,3.0142998695373535,45.95947265625,-48.9959716796875,-83.2366943359375
15.0899999,7.328651428222656,0.038307227194309235,3.1292216777801514,58.77685546875,-35.2325439453125,-76.35498046875
15.1099999,7.668628215789795,-0.2753331959247589,3.3063924312591553,78.8421630859375,-35.2325439453125,-83.1451416015625
15.129999900000001,7.982268333435059,-0.7110779285430908,3.5170822143554688,99.0447998046875,-49.224853515625,-81.1767578125
15.149999900000001,8.236053466796875,-1.115697979927063,3.758896589279175,84.6405029296875,-48.736572265625,-79.7271728515625
15.1699999,8.42040729522705,-1.4413094520568848,3.6727054119110107,91.827392578125,-45.2423095703125,-86.151123046875
15.1899999,8.494627952575684,-1.5490485429763794,3.361459255218506,92.83447265625,-41.9464111328125,-98.4649658203125
15.209999900000001,8.461109161376953,-1.2186486721038818,2.9903578758239746,54.5196533203125,-33.538818359375,-109.1156005859375
15.229999900000001,8.343792915344238,-0.395043283700943,2.427720546722412,62.5457763671875,-32.2418212890625,-106.1553955078125
15.2499999,8.192957878112793,0.811634361743927,1.9512743949890137,73.333740234375,-27.496337890625,-93.8262939453125
15.2699999,8.073247909545898,2.0422539710998535,1.45806884765625,84.3505859375,-18.0816650390625,-89.4317626953125
15.289999900000002,8.044517517089844,2.9759926795959473,0.9816226959228516,114.6392822265625,-10.43701171875,-98.7396240234375
15.309999900000001,8.092401504516602,3.4739866256713867,0.6272808313369751,137.481689453125,-1.89208984375,-115.4632568359375
15.3299999,8.159439086914062,3.7708675861358643,0.26336219906806946,167.266845703125,-0.1678466796875,-137.1612548828125
15.3499999,8.130708694458008,4.015076160430908,-0.1843535304069519,187.9425048828125,-4.0435791015625,-163.14697265625
15.3699999,7.781155586242676,4.213795185089111,-1.158793568611145,234.4970703125,-10.55908203125,-204.1473388671875
15.389999900000001,6.811503887176514,4.182670593261719,-3.6750996112823486,360.076904296875,-27.1148681640625,-286.9720458984375
15.4099999,4.750096321105957,4.570530891418457,-9.2033109664917,496.1090087890625,-46.8902587890625,-409.271240234375
15.4299999,0.9959878921508789,6.744466304779053,-19.912574768066406,438.78173828125,-11.16943359375,-489.92919921875
15.4499999,-4.881777286529541,12.72757625579834,-34.81648254394531,214.90478515625,270.2178955078125,-424.163818359375
15.469999900000001,-15.33725643157959,19.709068298339844,-49.80657958984375,34.2864990234375,499.9847412109375,-168.8995361328125
15.4899999,-29.95625114440918,26.142288208007812,-54.60695266723633,64.2242431640625,499.9847412109375,-45.0439453125
15.5099999,-46.873680114746094,29.95625114440918,-45.717281341552734,81.8939208984375,499.9847412109375,-141.326904296875
15.5299999,-61.080875396728516,24.00187110900879,-19.239805221557617,-500,499.9847412109375,-55.2215576171875
15.549999900000001,-65.06243133544922,9.801861763000488,11.60948371887207,-500,54.5196533203125,243.59130859375
15.569999900000001,-58.7369499206543,-0.507570743560791,32.156524658203125,499.9847412109375,-241.607666015625,47.5616455078125
15.5899999,-43.13393783569336,-9.856928825378418,38.537071228027344,499.9847412109375,63.7054443359375,-1.3580322265625
15.6099999,-26.07764434814453,-12.899958610534668,31.000123977661133,-346.7559814453125,62.347412109375,297.8668212890625
15.629999900000001,-11.815385818481445,-8.154650688171387,18.83279037475586,-178.009033203125,65.6890869140625,121.5057373046875
15.649999900000001,-3.045424461364746,-6.2392897605896,9.6989107131958,209.4573974609375,-8.3465576171875,42.510986328125
15.6699999,1.1659762859344482,-4.333505153656006,5.233725070953369,-6.0577392578125,-29.78515625,58.990478515625
15.6899999,2.2625205516815186,-2.7246015071868896,3.24414324760437,-69.2901611328125,21.4080810546875,80.7647705078125
15.709999900000001,1.3527239561080933,-1.2689268589019775,2.894589900970459,38.177490234375,31.646728515625,56.427001953125
15.729999900000001,-0.07182604819536209,-0.038307227194309235,3.44765043258667,38.75732421875,-6.2408447265625,23.193359375
15.7499999,-1.4221558570861816,1.4484920501708984,4.793191909790039,-90.0115966796875,-13.2598876953125,34.9884033203125
15.7699999,-2.1356279850006104,2.9664158821105957,5.918466567993164,-85.5255126953125,2.5787353515625,67.56591796875
15.789999900000002,-2.2840683460235596,3.912125587463379,6.943184852600098,-2.4871826171875,-9.46044921875,76.84326171875
15.809999900000001,-1.968033790588379,3.890577793121338,7.805097579956055,47.7752685546875,-25.8636474609375,56.915283203125
15.8299999,-1.4197616577148438,3.0573954582214355,8.300697326660156,0.762939453125,-25.299072265625,39.4287109375
15.8499999,-0.6631938815116882,2.164358377456665,8.20732307434082,-22.4761962890625,-7.9498291015625,35.797119140625
15.869999900000002,0.090979665517807,1.6950948238372803,8.008605003356934,5.79833984375,4.9285888671875,34.2559814453125
15.889999900000001,0.7038952708244324,1.7381904125213623,7.939172744750977,21.4691162109375,-1.6632080078125,33.294677734375
15.9099999,1.158793568611145,2.207453966140747,8.111555099487305,5.2337646484375,-4.3792724609375,40.71044921875
15.9299999,1.4628572463989258,2.911349296569824,8.317456245422363,-24.7650146484375,-0.7171630859375,47.9278564453125
15.9499999,1.6328455209732056,3.332728862762451,8.473079681396484,-37.8265380859375,-0.2288818359375,52.30712890625
15.969999900000001,1.7166426181793213,3.339911460876465,8.468291282653809,-14.9688720703125,-2.9296875,46.6461181640625
15.9899999,1.7094600200653076,2.9544448852539062,8.35097599029541,-4.94384765625,-4.94384765625,33.7677001953125
16.0099999,1.6328455209732056,2.367865562438965,8.226476669311523,-7.659912109375,0.18310546875,24.5819091796875
16.0299999,1.5298948287963867,1.9033904075622559,8.075642585754395,13.48876953125,2.044677734375,20.355224609375
16.0499999,1.479616641998291,1.821987509727478,7.9176249504089355,45.22705078125,1.2054443359375,17.3797607421875
16.0699999,1.403002142906189,2.0685901641845703,7.960720539093018,50.7659912109375,12.02392578125,17.1966552734375
16.089999900000002,1.3910311460494995,2.5306711196899414,8.037335395812988,35.430908203125,16.9219970703125,17.4713134765625
16.109999900000002,1.4173674583435059,3.0190882682800293,8.142680168151855,4.5318603515625,6.3018798828125,15.93017578125
16.1299999,1.4724340438842773,3.3686418533325195,8.348581314086914,-12.5732421875,2.685546875,16.1895751953125
16.1499999,1.5466543436050415,3.5242648124694824,8.377311706542969,11.6729736328125,-3.8299560546875,23.4832763671875
16.1699999,1.6400281190872192,3.584120035171509,8.259995460510254,56.5032958984375,-3.90625,31.5704345703125
16.1899999,1.6735470294952393,3.6343982219696045,7.922413349151611,84.3658447265625,2.8839111328125,36.19384765625
16.2099999,1.6639702320098877,3.7038300037384033,7.481880187988281,81.2530517578125,20.1568603515625,41.8548583984375
16.2299999,1.6687586307525635,3.8714241981506348,7.0772600173950195,77.911376953125,28.6102294921875,41.656494140625
16.249999900000002,1.6112977266311646,4.1156325340271,6.821080684661865,116.3177490234375,26.641845703125,37.933349609375
16.269999900000002,1.5059528350830078,4.448426723480225,6.794744491577148,146.97265625,26.2451171875,34.3017578125
16.2899999,1.3455413579940796,4.72376012802124,6.92881965637207,127.471923828125,9.429931640625,19.8516845703125
16.3099999,1.2737152576446533,5.003881454467773,6.912060260772705,125.5950927734375,-24.7955322265625,5.950927734375
16.3299999,1.2976573705673218,5.238513469696045,6.610390663146973,157.6385498046875,-25.665283203125,22.308349609375
16.3499999,1.4413094520568848,5.468356609344482,5.942408561706543,154.5257568359375,3.7384033203125,22.0794677734375
16.3699999,1.5658079385757446,5.731719017028809,5.20978307723999,101.654052734375,26.42822265625,-7.4005126953125
16.3899999,1.601720929145813,5.928043365478516,4.742913722991943,46.7071533203125,25.08544921875,-29.1290283203125
16.4099999,1.6089035272598267,6.224924564361572,4.517858505249023,70.4193115234375,4.94384765625,-41.32080078125
16.429999900000002,1.6112977266311646,6.557718276977539,4.537012100219727,96.160888671875,6.866455078125,-30.1971435546875
16.4499999,1.5298948287963867,6.957550048828125,4.666299343109131,57.708740234375,26.3214111328125,-20.172119140625
16.4699999,1.2641384601593018,7.309497833251953,4.879383087158203,91.1865234375,22.2625732421875,-30.6396484375
16.4899999,0.9672574996948242,7.570465564727783,4.908113479614258,182.3883056640625,-29.9530029296875,-40.618896484375
16.5099999,0.7637503147125244,7.711723804473877,4.458003520965576,219.42138671875,-63.29345703125,-28.3050537109375
16.5299999,0.7015010714530945,7.783549785614014,3.579331636428833,174.6673583984375,-28.289794921875,-36.9873046875
16.5499999,0.6775590777397156,7.8960771560668945,2.8131868839263916,67.0013427734375,33.935546875,-74.6002197265625
16.5699999,0.5219359993934631,7.90086555480957,2.293645143508911,67.474365234375,16.326904296875,-78.369140625
16.589999900000002,0.33518823981285095,7.931990146636963,1.9488801956176758,133.453369140625,-80.3680419921875,-65.155029296875
16.609999900000002,0.13168109953403473,8.17141056060791,1.8626888990402222,130.279541015625,-78.9947509765625,-68.878173828125
16.6299999,0.10055647045373917,8.7268648147583,1.1994950771331787,213.134765625,-57.9376220703125,-80.657958984375
16.6499999,0.07182604819536209,9.346963882446289,0.629675030708313,287.78076171875,5.79833984375,-102.813720703125
16.6699999,-0.038307227194309235,9.837775230407715,0.2537853717803955,177.7801513671875,14.4500732421875,-98.9227294921875
16.6899999,-0.08619125932455063,10.283096313476562,-0.5195417404174805,54.3060302734375,-84.564208984375,-100.738525390625
16.7099999,-0.05746084079146385,10.594342231750488,-1.0438719987869263,51.7120361328125,-58.59375,-98.1292724609375
16.7299999,-0.26575639843940735,10.917559623718262,-1.359906554222107,76.47705078125,17.547607421875,-86.36474609375
16.749999900000002,-0.5003881454467773,10.869675636291504,-1.764526605606079,83.31298828125,-44.219970703125,-75.0732421875
16.769999900000002,-0.7924807667732239,10.496180534362793,-2.3032219409942627,51.8951416015625,-103.7139892578125,-88.9129638671875
16.7899999,-1.05105459690094,10.42195987701416,-2.918531894683838,-59.295654296875,11.0626220703125,-151.7181396484375
16.8099999,-1.2952631711959839,10.299856185913086,-3.2130186557769775,-147.979736328125,106.4910888671875,-100.677490234375
16.8299999,-1.501164436340332,10.826580047607422,-3.0885202884674072,-97.686767578125,40.6494140625,-30.7464599609375
16.8499999,-1.9033904075622559,11.496956825256348,-1.601720929145813,-58.7921142578125,0.762939453125,-44.4488525390625
16.8699999,-2.250549554824829,11.779472351074219,-0.3064578175544739,11.04736328125,-15.80810546875,-42.8009033203125
16.8899999,-2.456450939178467,11.894393920898438,0.3687070608139038,61.8438720703125,-61.1724853515625,-39.215087890625
16.9099999,-2.6144683361053467,11.97100830078125,0.6488286852836609,9.7503662109375,-43.548583984375,-51.6815185546875
16.929999900000002,-2.808398485183716,11.944672584533691,0.22744916379451752,-5.401611328125,-47.79052734375,-48.52294921875
16.9499999,-3.069366693496704,12.035652160644531,-0.4692635238170624,32.2723388671875,-58.5174560546875,-34.66796875
16.9699999,-3.3423056602478027,12.12902545928955,-1.161187767982483,-17.0745849609375,-28.2745361328125,-11.260986328125
16.9899999,-3.4548330307006836,12.006921768188477,-1.7956513166427612,-62.103271484375,5.9051513671875,6.7901611328125
17.0099999,-3.5170822143554688,11.72201156616211,-2.118868589401245,-49.3011474609375,4.1351318359375,1.89208984375
17.0299999,-3.2345664501190186,10.903194427490234,-2.099714994430542,-31.280517578125,-9.765625,-0.030517578125
17.0499999,-2.8371291160583496,10.323798179626465,-2.0853497982025146,-85.8001708984375,-14.70947265625,-24.10888671875
17.0699999,-2.300827741622925,9.883264541625977,-2.2409727573394775,-167.327880859375,-3.0975341796875,-51.8035888671875
17.089999900000002,-2.0422539710998535,9.955090522766113,-1.8315643072128296,-265.869140625,34.5458984375,-38.177490234375
17.109999900000002,-1.9488801956176758,10.211270332336426,-0.8619126081466675,-202.545166015625,52.67333984375,3.6773681640625
17.1299999,-2.185906171798706,10.618284225463867,0.6847416758537292,-56.3201904296875,-24.35302734375,34.942626953125
17.1499999,-2.5522189140319824,10.924742698669434,2.233790159225464,-37.2314453125,-42.17529296875,9.0179443359375
17.1699999,-2.786850690841675,11.116278648376465,3.155557870864868,-30.5938720703125,-10.498046875,15.44189453125
17.1899999,-3.004723072052002,11.183316230773926,3.160346269607544,38.5284423828125,2.6702880859375,42.8619384765625
17.2099999,-3.069366693496704,11.075576782226562,2.650381326675415,38.848876953125,7.3699951171875,56.94580078125
17.2299999,-2.9496564865112305,10.831368446350098,2.1571757793426514,-21.3470458984375,33.9508056640625,61.3861083984375
17.249999900000002,-2.715024709701538,10.474632263183594,1.6831238269805908,-1.678466796875,35.5987548828125,55.72509765625
17.269999900000002,-2.3750481605529785,10.160991668701172,1.5969325304031372,67.108154296875,26.580810546875,62.19482421875
17.2899999,-2.1140801906585693,9.727641105651855,1.6089035272598267,153.6712646484375,35.8734130859375,60.821533203125
17.3099999,-1.9153614044189453,9.232041358947754,1.723825216293335,108.1390380859375,59.7686767578125,42.9229736328125
17.3299999,-1.7860745191574097,8.9064302444458,1.7286136150360107,-6.2255859375,45.0439453125,7.843017578125
17.3499999,-1.721431016921997,8.793902397155762,1.6615760326385498,12.237548828125,30.5328369140625,-7.2784423828125
17.3699999,-1.6519991159439087,9.057265281677246,1.5921441316604614,-8.9263916015625,-1.2359619140625,-6.8206787109375
17.3899999,-1.6280571222305298,9.473855972290039,1.3838485479354858,9.307861328125,-17.7459716796875,13.5345458984375
17.409999900000003,-1.6328455209732056,9.876082420349121,1.1276689767837524,43.7164306640625,3.2196044921875,33.2489013671875
17.429999900000002,-1.6280571222305298,10.038887977600098,0.9097966551780701,31.0821533203125,18.5394287109375,37.933349609375
17.4499999,-1.5610195398330688,10.08437728881836,0.6847416758537292,32.4249267578125,-5.584716796875,29.84619140625
17.4699999,-1.4413094520568848,9.938331604003906,0.4165911078453064,58.3953857421875,-20.8892822265625,28.1982421875
17.4899999,-1.278503656387329,9.744400978088379,0.15083470940589905,37.2314453125,-9.7808837890625,36.9873046875
17.5099999,-1.1252747774124146,9.476250648498535,-0.272938996553421,34.4390869140625,-3.814697265625,35.308837890625
17.5299999,-1.0103530883789062,9.32302188873291,-0.5003881454467773,48.52294921875,1.0528564453125,28.3966064453125
17.5499999,-0.993593692779541,9.138668060302734,-0.47405192255973816,32.470703125,-4.150390625,24.7802734375
17.5699999,-0.9744400978088379,8.901641845703125,-0.35673606395721436,3.448486328125,-41.4581298828125,34.7747802734375
17.589999900000002,-1.0103530883789062,8.678980827331543,-0.2585737705230713,20.6298828125,-54.3365478515625,26.0467529296875
17.609999900000002,-1.0055646896362305,8.439560890197754,-0.15801730751991272,8.0108642578125,-16.4794921875,12.176513671875
17.6299999,-0.950498104095459,8.252813339233398,-0.20350714027881622,17.730712890625,-1.5411376953125,11.1541748046875
17.6499999,-0.8786720037460327,8.20492935180664,-0.28730419278144836,27.28271484375,-34.5611572265625,13.8702392578125
17.6699999,-0.7709329724311829,8.200140953063965,-0.4884171485900879,50.1861572265625,-31.31103515625,12.1917724609375
17.6899999,-0.6272808313369751,8.250418663024902,-0.9457096457481384,18.61572265625,-11.138916015625,12.176513671875
17.7099999,-0.5219359993934631,8.346187591552734,-1.4221558570861816,-16.6473388671875,19.53125,13.671875
17.7299999,-0.4620809257030487,8.554482460021973,-1.4748282432556152,-20.81298828125,40.4815673828125,15.8233642578125
17.749999900000002,-0.4836287498474121,8.695740699768066,-1.094150185585022,7.3394775390625,-5.7830810546875,12.451171875
17.769999900000002,-0.5027823448181152,8.844181060791016,-0.5650315880775452,32.71484375,-76.751708984375,1.89208984375
17.7899999,-0.45489832758903503,8.927978515625,-0.21308395266532898,50.9185791015625,-62.01171875,6.011962890625
17.8099999,-0.2561795711517334,8.96389102935791,-0.4141969084739685,43.2586669921875,-21.4996337890625,15.899658203125
17.8299999,0.05506663769483566,8.937555313110352,-0.9959878921508789,40.5731201171875,-12.9547119140625,14.34326171875
17.8499999,0.363918662071228,8.853757858276367,-1.5969325304031372,40.374755859375,-13.6260986328125,-2.8839111328125
17.8699999,0.5985504388809204,8.789113998413086,-2.006340980529785,59.4482421875,-13.336181640625,-12.969970703125
17.8899999,0.7158663272857666,8.865729331970215,-2.3750481605529785,81.0546875,-31.7535400390625,-8.8043212890625
17.909999900000003,0.667982280254364,9.241618156433105,-2.604891538619995,68.603515625,-28.74755859375,-3.6468505859375
17.929999900000002,0.507570743560791,9.952696800231934,-2.784456491470337,53.253173828125,5.7373046875,0.4730224609375
17.9499999,0.17717093229293823,10.469843864440918,-2.9544448852539062,93.0938720703125,10.223388671875,22.39990234375
17.9699999,-0.10295066982507706,10.975020408630371,-3.3231520652770996,151.9012451171875,-0.4425048828125,32.28759765625
17.9899999,-0.24420857429504395,10.843339920043945,-3.4572272300720215,163.330078125,22.003173828125,31.829833984375
18.0099999,-0.2992752194404602,10.424354553222656,-3.9240965843200684,126.5106201171875,-2.3040771484375,-16.7388916015625
18.0299999,-0.15801730751991272,9.828198432922363,-4.479551315307617,85.9222412109375,-26.9012451171875,-55.267333984375
18.0499999,-0.15562310814857483,9.208099365234375,-4.764461517333984,42.0074462890625,29.2510986328125,-48.64501953125
18.0699999,-0.2968810200691223,8.80587387084961,-5.137956619262695,40.130615234375,36.956787109375,-38.6199951171875
18.089999900000002,-0.6129156351089478,8.595184326171875,-5.147533416748047,24.2156982421875,20.4315185546875,-33.843994140625
18.109999900000002,-1.01753568649292,8.56884765625,-4.977545261383057,13.2293701171875,21.697998046875,-28.7017822265625
18.1299999,-1.4293384552001953,8.607154846191406,-4.7189717292785645,20.294189453125,26.9775390625,-17.15087890625
18.1499999,-1.7717092037200928,8.619126319885254,-4.584896087646484,17.547607421875,32.53173828125,-9.5977783203125
18.1699999,-2.0183119773864746,8.552088737487793,-4.548983097076416,4.119873046875,42.90771484375,-10.9405517578125
18.1899999,-2.161964178085327,8.437167167663574,-4.580107688903809,-0.701904296875,61.8438720703125,-15.3656005859375
18.2099999,-2.22660756111145,8.276755332946777,-4.568136692047119,-1.3427734375,66.9403076171875,-13.9007568359375
18.2299999,-2.1954829692840576,8.20732307434082,-4.4939165115356445,8.4991455078125,60.943603515625,-13.6260986328125
18.249999900000002,-2.0877439975738525,8.17380428314209,-4.371812343597412,16.2353515625,63.90380859375,-16.0675048828125
18.269999900000002,-1.9321208000183105,8.097189903259277,-4.304774761199951,8.9111328125,69.488525390625,-10.7269287109375
18.2899999,-1.7693150043487549,7.979874134063721,-4.292803764343262,5.035400390625,67.1539306640625,-9.307861328125
18.3099999,-1.623268723487854,7.773972988128662,-4.28322696685791,6.0577392578125,56.1370849609375,-13.214111328125
18.3299999,-1.4987702369689941,7.503427982330322,-4.311957359313965,2.3193359375,45.7763671875,-19.6685791015625
18.3499999,-1.3910311460494995,7.292738437652588,-4.383783340454102,-4.57763671875,43.8079833984375,-30.426025390625
18.3699999,-1.3000515699386597,7.249642848968506,-4.548983097076416,-2.655029296875,48.828125,-36.68212890625
18.3899999,-1.192312479019165,7.259219646453857,-4.797980308532715,6.7138671875,59.356689453125,-29.0069580078125
18.409999900000003,-1.091755986213684,7.357381820678711,-5.085284233093262,3.7384033203125,63.17138671875,-31.2957763671875
18.429999900000002,-0.9457096457481384,7.390900611877441,-5.4228668212890625,1.495361328125,73.73046875,-44.647216796875
18.4499999,-0.7637503147125244,7.4100542068481445,-5.892130374908447,9.307861328125,88.226318359375,-60.9283447265625
18.4699999,-0.608127236366272,7.503427982330322,-6.368576526641846,13.6260986328125,97.0001220703125,-69.9310302734375
18.4899999,-0.4429273009300232,7.649474620819092,-6.809109687805176,27.740478515625,101.470947265625,-61.004638671875
18.5099999,-0.31364041566848755,7.934384346008301,-7.218518257141113,44.1741943359375,94.4061279296875,-54.6722412109375
18.5299999,-0.16759411990642548,8.14028549194336,-7.63989782333374,30.2581787109375,74.1729736328125,-51.1627197265625
18.5499999,0.011971008032560349,8.291120529174805,-8.02536392211914,4.1961669921875,89.141845703125,-49.346923828125
18.5699999,0.1867477297782898,8.38449478149414,-8.401253700256348,-13.73291015625,103.5614013671875,-53.1158447265625
18.589999900000002,0.3280056416988373,8.465897560119629,-8.492233276367188,-25.81787109375,100.8453369140625,-52.8717041015625
18.609999900000002,0.3974374830722809,8.583212852478027,-8.267178535461426,-32.8521728515625,81.8023681640625,-49.7589111328125
18.6299999,0.40462008118629456,8.695740699768066,-7.948749542236328,-19.775390625,56.3812255859375,-47.9736328125
18.6499999,0.3471592366695404,8.93037223815918,-7.704541206359863,-16.815185546875,53.924560546875,-60.5621337890625
18.6699999,0.19871874153614044,9.17936897277832,-7.5417351722717285,-47.8973388671875,80.9783935546875,-67.7337646484375
18.6899999,0.002394201699644327,9.421183586120605,-7.5848307609558105,-77.1942138671875,84.136962890625,-61.4471435546875
18.7099999,-0.24420857429504395,9.526528358459473,-7.647080421447754,-90.9423828125,76.0345458984375,-64.1937255859375
18.7299999,-0.5674257874488831,9.63187313079834,-7.589619159698486,-113.6016845703125,96.588134765625,-87.21923828125
18.749999900000002,-0.9193734526634216,9.75397777557373,-7.484274387359619,-146.484375,117.401123046875,-91.888427734375
18.769999900000002,-1.290474772453308,10.067618370056152,-7.173028469085693,-190.9027099609375,126.068115234375,-64.6209716796875
18.7899999,-1.7118542194366455,10.620678901672363,-6.62236213684082,-239.1815185546875,136.0321044921875,-46.8902587890625
18.8099999,-2.0685901641845703,11.21204662322998,-5.987898349761963,-242.3095703125,142.3492431640625,-23.7884521484375
18.8299999,-2.432508945465088,11.805809020996094,-5.082890033721924,-237.945556640625,143.12744140625,-0.7476806640625
18.8499999,-2.698265314102173,12.09311294555664,-4.101267337799072,-261.2762451171875,134.3841552734375,27.40478515625
18.8699999,-2.8826189041137695,12.205639839172363,-2.868253707885742,-279.9224853515625,131.2408447265625,45.867919921875
18.8899999,-2.9161376953125,11.959037780761719,-1.479616641998291,-266.29638671875,126.8463134765625,51.4068603515625
18.909999900000003,-2.8131868839263916,11.334151268005371,-0.15801730751991272,-285.064697265625,102.4322509765625,64.75830078125
18.929999900000002,-2.6408045291900635,10.74996566772461,1.1037269830703735,-240.6158447265625,81.1920166015625,67.7490234375
18.9499999,-2.492363929748535,10.036493301391602,2.183511972427368,-176.8035888671875,87.46337890625,71.1822509765625
18.9699999,-2.3343467712402344,9.327810287475586,2.9448680877685547,-166.046142578125,69.1375732421875,88.7908935546875
18.9899999,-2.164358377456665,8.62630844116211,3.4811692237854004,-177.459716796875,48.8128662109375,91.796875
19.0099999,-1.9800047874450684,7.860164165496826,3.9384617805480957,-168.1060791015625,52.5360107421875,89.05029296875
19.0299999,-1.7621324062347412,7.285555839538574,4.271255970001221,-105.987548828125,51.4984130859375,90.27099609375
19.0499999,-1.5059528350830078,6.629544734954834,4.513070106506348,-86.5478515625,40.740966796875,111.7401123046875
19.0699999,-1.2617442607879639,6.095637321472168,4.726154327392578,-114.0594482421875,42.388916015625,111.8316650390625
19.089999900000002,-0.9959878921508789,5.406107425689697,4.738125324249268,-128.7384033203125,48.5992431640625,96.282958984375
19.109999900000002,-0.7110779285430908,4.63517427444458,4.745307922363281,-161.3006591796875,44.7540283203125,86.73095703125
19.1299999,-0.4572925269603729,3.892971992492676,4.9152960777282715,-178.28369140625,39.9627685546875,79.28466796875
19.1499999,-0.26336219906806946,3.308786630630493,5.413290023803711,-159.881591796875,38.14697265625,65.6280517578125
19.1699999,-0.07182604819536209,2.7557260990142822,5.937620162963867,-132.38525390625,25.32958984375,60.7452392578125
19.1899999,0.043095629662275314,2.4229321479797363,6.48828649520874,-133.8348388671875,15.6402587890625,52.8106689453125
19.2099999,0.1412578970193863,2.166752576828003,6.868964672088623,-131.0882568359375,23.7579345703125,45.0897216796875
19.2299999,0.26336219906806946,1.845929503440857,7.089231014251709,-113.22021484375,24.627685546875,48.64501953125
19.249999900000002,0.3687070608139038,1.5849615335464478,7.481880187988281,-87.9974365234375,23.4222412109375,33.5235595703125
19.269999900000002,0.45250412821769714,1.4197616577148438,8.109161376953125,-53.5888671875,19.622802734375,12.9547119140625
19.2899999,0.5889736413955688,1.2497732639312744,8.650250434875488,-14.739990234375,-1.6326904296875,17.7459716796875
19.3099999,0.6991068720817566,1.3311761617660522,9.006986618041992,1.4190673828125,-8.514404296875,21.97265625
19.3299999,0.8331822156906128,1.4652514457702637,9.004592895507812,-5.1116943359375,8.7127685546875,12.5885009765625
19.3499999,0.9385270476341248,1.702277421951294,8.810662269592285,0.1373291015625,22.39990234375,5.7373046875
19.3699999,0.9385270476341248,2.1332337856292725,8.755595207214355,20.1263427734375,17.8375244140625,5.8441162109375
19.3899999,0.8906430602073669,2.542642116546631,8.868123054504395,46.417236328125,4.5623779296875,19.4854736328125
19.409999900000003,0.8044517636299133,2.9664158821105957,9.030928611755371,41.0614013671875,-7.049560546875,20.3399658203125
19.429999900000002,0.7852981686592102,3.0885202884674072,9.074024200439453,28.0914306640625,-6.0577392578125,11.505126953125
19.4499999,0.8068459630012512,3.090914487838745,8.966285705566406,19.71435546875,-2.3956298828125,1.28173828125
19.4699999,0.8451532125473022,3.0119056701660156,8.820239067077637,11.444091796875,-1.953125,-2.3956298828125
19.4899999,0.871489405632019,2.9544448852539062,8.688557624816895,4.5623779296875,-4.638671875,-0.8697509765625
19.5099999,0.8738836050033569,2.9089550971984863,8.655038833618164,-3.96728515625,-4.45556640625,-3.814697265625
19.5299999,0.8547300100326538,2.8419175148010254,8.736441612243652,-0.1983642578125,-1.8463134765625,-10.7269287109375
19.5499999,0.8331822156906128,2.7126305103302,8.851364135742188,-4.486083984375,-10.19287109375,-20.1416015625
19.5699999,0.7972691655158997,2.604891538619995,8.968679428100586,-19.59228515625,-19.439697265625,-26.79443359375
19.589999900000002,0.7469909191131592,2.363077163696289,9.196128845214844,-24.8260498046875,-10.1776123046875,-27.191162109375
19.609999900000002,0.6967126727104187,2.049436569213867,9.423578262329102,-26.79443359375,-12.2833251953125,-35.919189453125
19.6299999,0.6224924325942993,1.5705963373184204,9.727641105651855,-28.5797119140625,-24.6124267578125,-48.5687255859375
19.6499999,0.49559974670410156,1.0414776802062988,10.110713958740234,-19.2108154296875,-26.0162353515625,-56.8389892578125
19.6699999,0.33039984107017517,0.5722141861915588,10.503362655639648,-7.2784423828125,-26.1688232421875,-64.63623046875
19.6899999,0.028730420395731926,0.33997663855552673,10.809821128845215,-1.3885498046875,-31.8450927734375,-75.13427734375
19.7099999,-0.4405331015586853,0.395043283700943,11.118672370910645,-10.55908203125,-37.8265380859375,-85.4339599609375
19.7299999,-1.094150185585022,0.6105214357376099,11.434707641601562,-16.632080078125,-40.771484375,-89.2181396484375
19.749999900000002,-1.9105730056762695,0.7110779285430908,11.693281173706055,-4.9896240234375,-45.8526611328125,-88.5467529296875
19.769999900000002,-2.8993782997131348,0.4836287498474121,11.925518989562988,8.2244873046875,-50.9796142578125,-106.01806640625
19.7899999,-4.043806552886963,-0.26575639843940735,12.222399711608887,17.08984375,-50.9796142578125,-129.5623779296875
19.8099999,-5.372588634490967,-1.4173674583435059,12.36365795135498,13.6566162109375,-65.826416015625,-149.871826171875
19.8299999,-6.866570472717285,-3.004723072052002,12.799402236938477,-1.5869140625,-77.239990234375,-166.1224365234375
19.8499999,-8.681375503540039,-4.575319290161133,13.687650680541992,-12.6190185546875,-83.770751953125,-201.873779296875
19.8699999,-10.72841739654541,-6.064512729644775,15.471331596374512,20.44677734375,-107.269287109375,-245.8038330078125
19.8899999,-13.225569725036621,-6.8043212890625,18.320430755615234,53.6346435546875,-151.9927978515625,-275.9857177734375
19.909999900000003,-15.945383071899414,-6.586448669433594,21.416133880615234,59.6160888671875,-256.4849853515625,-308.0596923828125
19.929999900000002,-18.933347702026367,-4.927267074584961,24.569297790527344,56.7779541015625,-339.9505615234375,-328.30810546875
19.9499999,-22.199037551879883,-1.7070658206939697,26.769569396972656,58.77685546875,-420.8221435546875,-349.54833984375
19.9699999,-25.306711196899414,2.7748796939849854,26.420015335083008,31.06689453125,-500,-344.2230224609375
19.9899999,-27.906814575195312,8.379706382751465,23.851037979125977,-53.558349609375,-500,-331.1614990234375
20.0099999,-29.237991333007812,14.281413078308105,18.236635208129883,-113.739013671875,-500,-308.2275390625
20.0299999,-28.5484619140625,19.38824462890625,10.539276123046875,-157.53173828125,-500,-246.734619140625
20.0499999,-26.039337158203125,23.02503776550293,3.2082302570343018,-225.2349853515625,-381.7596435546875,-200.5157470703125
20.0699999,-22.342689514160156,25.127147674560547,-3.3638534545898438,-213.8824462890625,-292.4346923828125,-211.944580078125
20.089999900000002,-18.186355590820312,25.658658981323242,-7.601590633392334,-181.5948486328125,-224.7161865234375,-190.2008056640625
20.109999900000002,-14.386757850646973,25.59162139892578,-9.500192642211914,-176.025390625,-147.7203369140625,-152.9541015625
20.1299999,-10.970232009887695,24.947582244873047,-9.727641105651855,-160.64453125,-110.2752685546875,-115.7989501953125
20.1499999,-7.795520782470703,23.532608032226562,-8.106766700744629,-143.280029296875,-80.078125,-73.7457275390625
20.1699999,-4.831499099731445,21.243751525878906,-5.351040840148926,-105.3466796875,-62.255859375,-55.9539794921875
20.1899999,-2.1595699787139893,18.021156311035156,-2.403778553009033,-49.5758056640625,-72.1893310546875,-54.2755126953125
