# Time (seconds),Accel_X,Accel_Y,Accel_Z,Gyro_X,Gyro_Y,Gyro_Z
0.0099999,2.0829553604125977,-1.922544002532959,9.002198219299316,-2.716064453125,8.85009765625,10.9100341796875
0.029999900000000003,2.0159177780151367,-2.1308395862579346,8.935160636901855,1.64794921875,23.3612060546875,14.0228271484375
0.0499999,1.9249382019042969,-2.434903144836426,9.047688484191895,-11.7340087890625,15.2587890625,4.5318603515625
0.0699999,1.8555063009262085,-2.693476915359497,9.208099365234375,-27.7252197265625,-3.7384033203125,-7.9193115234375
0.08999990000000001,1.8124107122421265,-2.786850690841675,9.277531623840332,-26.947021484375,-1.2359619140625,-5.37109375
0.10999990000000001,1.8100165128707886,-2.669534921646118,9.155426979064941,-9.9334716796875,14.3585205078125,9.368896484375
0.1299999,1.8387469053268433,-2.47560453414917,8.916007041931152,-4.5928955078125,20.08056640625,22.796630859375
0.14999990000000002,1.8483237028121948,-2.341529369354248,8.746018409729004,-5.8746337890625,19.073486328125,26.42822265625
0.1699999,1.86508309841156,-2.322375535964966,8.71489429473877,-9.979248046875,21.514892578125,27.374267578125
0.1899999,2.0159177780151367,-2.4468741416931152,8.803479194641113,-2.838134765625,22.39990234375,32.196044921875
0.20999990000000002,2.2697031497955322,-2.4444799423217773,9.08838939666748,-1.64794921875,29.3426513671875,24.139404296875
0.2299999,2.315192937850952,-2.298433542251587,9.548076629638672,-15.13671875,18.8751220703125,23.25439453125
0.2499999,2.4205379486083984,-2.1595699787139893,10.074800491333008,20.01953125,-22.552490234375,57.220458984375
0.2699999,1.98958158493042,-2.070984363555908,10.60152530670166,61.9964599609375,-33.3709716796875,94.1314697265625
0.28999990000000003,1.5466543436050415,-2.1140801906585693,10.99896240234375,14.22119140625,-38.14697265625,111.1297607421875
0.3099999,1.460463047027588,-2.279279947280884,10.951078414916992,22.5982666015625,-77.423095703125,116.0736083984375
0.3299999,1.4700398445129395,-2.4013843536376953,10.740388870239258,39.2303466796875,-79.5135498046875,105.77392578125
0.34999990000000003,1.7764976024627686,-2.5306711196899414,10.261548042297363,49.6368408203125,-53.89404296875,97.1832275390625
0.3699999,2.0398597717285156,-2.806004285812378,9.794678688049316,84.3048095703125,-25.7415771484375,102.4169921875
0.3899999,2.0470423698425293,-3.1220390796661377,9.32541561126709,75.0579833984375,-10.9405517578125,81.1004638671875
0.40999990000000003,2.1380221843719482,-3.40216064453125,8.954314231872559,4.3792724609375,-1.6326904296875,35.2325439453125
0.4299999,2.1811177730560303,-3.406949043273926,8.846575736999512,-6.2255859375,38.1317138671875,9.3231201171875
0.4499999,2.389413356781006,-3.1723172664642334,9.057265281677246,31.402587890625,71.6552734375,10.80322265625
0.4699999,2.5689783096313477,-2.6862943172454834,9.703699111938477,31.7230224609375,65.704345703125,13.427734375
0.4899999,2.557007312774658,-2.0829553604125977,10.632649421691895,-15.6097412109375,35.9344482421875,8.0108642578125
0.5099999,2.3582887649536133,-1.4987702369689941,11.444284439086914,-16.2506103515625,3.662109375,23.5443115234375
0.5299999,1.8555063009262085,-1.0582371950149536,11.920730590820312,18.1121826171875,-19.0582275390625,55.8624267578125
0.5499999,1.3455413579940796,-0.9720458984375,12.014103889465332,31.6009521484375,-26.641845703125,71.1517333984375
0.5699999,1.0103530883789062,-1.2689268589019775,11.712434768676758,21.9268798828125,-26.153564453125,52.337646484375
0.5899998999999999,0.8044517636299133,-1.7621324062347412,11.166556358337402,-16.6778564453125,-27.099609375,19.9127197265625
0.6099998999999999,0.8212111592292786,-2.2146365642547607,10.505757331848145,-28.1982421875,-17.791748046875,4.3182373046875
0.6299999,0.7972691655158997,-2.427720546722412,9.856928825378418,-13.9312744140625,-8.026123046875,6.683349609375
0.6499999,0.6033388376235962,-2.3942017555236816,9.366117477416992,-8.7432861328125,-12.6800537109375,12.6953125
0.6699999,0.608127236366272,-2.231395959854126,9.02135181427002,3.021240234375,-30.487060546875,17.181396484375
0.6899999,0.6703764796257019,-2.2457611560821533,8.803479194641113,-16.265869140625,-46.905517578125,10.55908203125
0.7099999,0.8619126081466675,-2.4660277366638184,8.154650688171387,-34.6221923828125,-48.7823486328125,-21.2249755859375
0.7299998999999999,1.0295066833496094,-2.7102363109588623,7.601590633392334,-33.3709716796875,15.4876708984375,-62.652587890625
0.7499998999999999,1.094150185585022,-2.8874073028564453,7.371747016906738,-51.666259765625,55.6640625,-68.4661865234375
0.7699999,1.2617442607879639,-2.628833532333374,7.6351094245910645,-37.353515625,4.8675537109375,-46.661376953125
0.7899999,1.292868971824646,-1.922544002532959,8.008605003356934,-5.5389404296875,-58.7158203125,-11.16943359375
0.8099999,1.4221558570861816,-1.37906014919281,8.276755332946777,77.8350830078125,-19.3634033203125,41.32080078125
0.8299999,1.3910311460494995,-1.048660397529602,8.197746276855469,116.4703369140625,63.9495849609375,54.5806884765625
0.8499998999999999,1.1635819673538208,-1.1324573755264282,8.312667846679688,41.8548583984375,90.88134765625,27.7252197265625
0.8699998999999999,0.9983820915222168,-1.5059528350830078,8.884882926940918,-0.579833984375,28.076171875,20.263671875
0.8899999,0.7972691655158997,-1.9057846069335938,9.603142738342285,7.6904296875,-34.11865234375,23.406982421875
0.9099999,0.7996633648872375,-2.1595699787139893,10.014945983886719,19.3023681640625,-26.641845703125,12.0697021484375
0.9299999,0.7110779285430908,-2.315192937850952,10.038887977600098,24.4140625,22.003173828125,4.6844482421875
0.9499999,0.7613561153411865,-2.497152328491211,9.804255485534668,10.955810546875,11.8255615234375,4.7760009765625
0.9699998999999999,0.706289529800415,-2.674323320388794,9.57441234588623,32.3638916015625,-5.5999755859375,-11.871337890625
0.9899998999999999,0.7565677165985107,-2.7676970958709717,9.514557838439941,20.416259765625,9.1400146484375,-46.56982421875
1.0099999,0.7781155705451965,-2.535459518432617,9.533711433410645,-29.5257568359375,26.031494140625,-62.68310546875
1.0299999,0.849941611289978,-2.032677173614502,9.476250648498535,-28.1982421875,0.732421875,-32.04345703125
1.0499999,0.9169792532920837,-1.2737152576446533,9.59835433959961,25.08544921875,-10.80322265625,9.0484619140625
1.0699999,0.9289502501487732,-0.5602431893348694,9.854534149169922,53.7872314453125,-3.6773681640625,37.811279296875
1.0899999,0.8595184087753296,-0.4165911078453064,9.93593692779541,51.5594482421875,-26.8402099609375,67.87109375
1.1099999,0.8882488012313843,-0.7924807667732239,9.90241813659668,56.6864013671875,-25.4058837890625,59.906005859375
1.1299999,1.0031704902648926,-1.3646949529647827,9.80904483795166,16.6473388671875,14.1448974609375,2.3193359375
1.1499999,1.2210428714752197,-1.8602946996688843,9.682151794433594,-47.4090576171875,29.9072265625,-21.728515625
1.1699998999999999,1.4891934394836426,-1.8579005002975464,9.713275909423828,-34.423828125,10.43701171875,5.6610107421875
1.1899998999999999,1.5107412338256836,-1.5634137392044067,9.8784761428833,-13.580322265625,-15.4571533203125,53.1158447265625
1.2099999,1.3455413579940796,-1.5083470344543457,9.825803756713867,21.30126953125,-25.45166015625,70.0836181640625
1.2299999,1.0438719987869263,-2.0015525817871094,9.50737476348877,27.52685546875,0.5950927734375,24.10888671875
1.2499999,0.6799532771110535,-2.7317841053009033,9.174580574035645,7.6446533203125,51.45263671875,-57.1441650390625
1.2699999,0.45010992884635925,-3.375824451446533,8.913613319396973,-37.7044677734375,58.258056640625,-91.400146484375
1.2899999,0.35913026332855225,-3.4165258407592773,8.908824920654297,-87.615966796875,42.5567626953125,-78.4149169921875
1.3099999,0.4572925269603729,-2.7126305103302,9.028534889221191,-82.2906494140625,48.2940673828125,-59.0362548828125
1.3299999,0.6368576288223267,-1.6304513216018677,9.27034854888916,-46.2799072265625,59.87548828125,-20.2789306640625
1.3499999,0.8020575642585754,-0.6224924325942993,9.536105155944824,21.1639404296875,47.088623046875,43.1976318359375
1.3699999,0.871489405632019,-0.1628057211637497,9.983820915222168,57.67822265625,32.89794921875,93.1396484375
1.3899999,0.7469909191131592,-0.21547815203666687,10.44350814819336,114.105224609375,19.04296875,86.944580078125
1.4099999,0.5147533416748047,-0.8451532125473022,10.955866813659668,30.2581787109375,2.4566650390625,63.0035400390625
1.4299998999999999,0.2944868206977844,-1.6328455209732056,11.192893028259277,2.227783203125,-31.18896484375,56.15234375
1.4499999,0.10534487664699554,-2.3798365592956543,11.197681427001953,27.83203125,-48.6297607421875,36.956787109375
1.4699999,0.028730420395731926,-2.875436305999756,10.776301383972168,17.852783203125,-44.3878173828125,0.3662109375
1.4899999,0.08619125932455063,-3.0095114707946777,9.976638793945312,-29.8614501953125,-32.4249267578125,-29.4189453125
1.5099999,0.21787235140800476,-2.695871114730835,9.121908187866211,-20.6451416015625,0.3204345703125,-26.336669921875
1.5299999,0.3208230137825012,-2.075772762298584,8.53293514251709,32.04345703125,28.0303955078125,-3.41796875
1.5499999,0.4620809257030487,-1.4748282432556152,8.362946510314941,42.17529296875,19.287109375,10.589599609375
1.5699999,0.5386953949928284,-1.161187767982483,8.671798706054688,28.01513671875,7.659912109375,2.6702880859375
1.5899999,0.5770025849342346,-1.0965443849563599,9.167398452758789,19.47021484375,7.99560546875,-19.989013671875
1.6099999,0.5650315880775452,-1.213860273361206,9.66299819946289,-6.195068359375,2.532958984375,-26.5045166015625
1.6299999,0.49320554733276367,-1.2306196689605713,9.81143856048584,16.845703125,-17.486572265625,-15.2130126953125
1.6499999,0.44532153010368347,-1.1085153818130493,9.75637149810791,4.5013427734375,-7.415771484375,-6.317138671875
1.6699999,0.395043283700943,-0.8523358106613159,9.75637149810791,-10.711669921875,25.6805419921875,0.9307861328125
1.6899998999999999,0.4405331015586853,-0.6224924325942993,9.823410034179688,7.537841796875,9.82666015625,20.5078125
1.7099999,0.45010992884635925,-0.5961562395095825,10.237606048583984,-17.15087890625,-22.5830078125,27.9693603515625
1.7299999,0.47644615173339844,-0.7805097699165344,10.608707427978516,-24.35302734375,-45.989990234375,13.6871337890625
1.7499999,0.4812345504760742,-1.158793568611145,10.766724586486816,-59.9365234375,-46.783447265625,-3.662109375
1.7699999,0.5195417404174805,-1.5442601442337036,10.498574256896973,-50.7659912109375,-42.8314208984375,-15.411376953125
1.7899999,0.6272808313369751,-1.7573440074920654,9.907206535339355,-41.3818359375,-28.86962890625,-24.5208740234375
1.8099999,0.7948749661445618,-1.7812861204147339,9.253589630126953,-35.491943359375,8.209228515625,-20.5535888671875
1.8299999,0.9169792532920837,-1.6639702320098877,8.791508674621582,1.434326171875,46.32568359375,-5.9814453125
1.8499999,0.9696516990661621,-1.5203180313110352,8.628703117370605,1.7547607421875,50.96435546875,-0.1220703125
1.8699999,0.8667010068893433,-1.3766659498214722,8.887276649475098,-35.5987548828125,47.05810546875,-4.2266845703125
1.8899999,0.6057330369949341,-1.292868971824646,9.452308654785156,-38.14697265625,48.33984375,-3.448486328125
1.9099999,0.3447650372982025,-1.2617442607879639,10.103530883789062,-5.0201416015625,30.181884765625,-0.2288818359375
1.9299998999999999,0.028730420395731926,-1.2306196689605713,10.654197692871094,5.706787109375,-2.716064453125,6.8511962890625
1.9499999,0.1364694982767105,-1.3862427473068237,10.972626686096191,-20.93505859375,-19.561767578125,13.3056640625
1.9699999,0.05506663769483566,-1.7094600200653076,10.90558910369873,13.9923095703125,-19.59228515625,25.909423828125
1.9899999,0.2537853717803955,-2.1739351749420166,10.541669845581055,-6.3629150390625,-14.16015625,-0.396728515625
2.0099999,0.2753331959247589,-2.540247917175293,9.981427192687988,-52.0782470703125,-8.7127685546875,-37.4298095703125
2.0299999,0.21308395266532898,-2.609679937362671,9.66539192199707,-54.0008544921875,22.4456787109375,-46.7376708984375
2.0499999,0.16519992053508759,-2.367865562438965,9.555258750915527,17.059326171875,32.562255859375,-15.3350830078125
2.0699999,0.07661445438861847,-1.9752163887023926,9.737217903137207,60.4400634765625,7.476806640625,19.2108154296875
2.0899999,-0.047884032130241394,-1.6543933153152466,10.02452278137207,29.876708984375,-2.8076171875,24.7650146484375
2.1099999,-0.16998831927776337,-1.5298948287963867,10.153809547424316,10.7574462890625,-6.4849853515625,15.869140625
2.1299999,-0.26336219906806946,-1.5466543436050415,10.110713958740234,16.17431640625,-0.2899169921875,6.28662109375
2.1499999,-0.26336219906806946,-1.644816517829895,9.96945571899414,36.7889404296875,5.6915283203125,6.5460205078125
2.1699999,-0.19153612852096558,-1.7310078144073486,9.825803756713867,23.773193359375,4.94384765625,1.5869140625
2.1899999,-0.07422025501728058,-1.7405846118927002,9.744400978088379,-12.847900390625,2.349853515625,-9.5977783203125
2.2099999,0.028730420395731926,-1.699883222579956,9.576807022094727,-7.26318359375,-2.3651123046875,-4.119873046875
2.2299999,0.07900865375995636,-1.5682021379470825,9.404424667358398,37.6739501953125,8.148193359375,13.275146484375
2.2499999,0.043095629662275314,-1.41257905960083,9.27034854888916,32.28759765625,27.801513671875,22.6287841796875
2.2699999,-0.05985504388809204,-1.2976573705673218,9.21288776397705,8.7127685546875,20.1263427734375,25.5584716796875
2.2899999,-0.19632454216480255,-1.259350061416626,9.363722801208496,4.57763671875,6.0577392578125,23.3001708984375
2.3099999,-0.3495534360408783,-1.3335703611373901,9.696516990661621,3.814697265625,4.5013427734375,19.3023681640625
2.3299999,-0.3902548849582672,-1.4891934394836426,10.077195167541504,6.011962890625,-4.69970703125,5.79833984375
2.3499999,-0.3687070608139038,-1.5705963373184204,10.417171478271484,-26.9775390625,-22.216796875,-11.3983154296875
2.3699999,-0.23702596127986908,-1.5945383310317993,10.402806282043457,-35.797119140625,-40.83251953125,-8.697509765625
2.3899999,-0.07661445438861847,-1.5538369417190552,10.029311180114746,-13.0767822265625,-32.562255859375,-0.3814697265625
2.4099999,0.090979665517807,-1.5418659448623657,9.399636268615723,-5.5084228515625,2.5482177734375,-0.79345703125
2.4299999,0.24181437492370605,-1.5705963373184204,8.765172004699707,-6.0577392578125,19.989013671875,-9.2926025390625
2.4499999,0.33997663855552673,-1.6376339197158813,8.489839553833008,-13.6566162109375,20.751953125,-10.3302001953125
2.4699999,0.37828385829925537,-1.7094600200653076,8.710105895996094,6.5155029296875,24.23095703125,4.4708251953125
2.4899999,0.3447650372982025,-1.7908629179000854,9.205705642700195,16.815185546875,10.6658935546875,12.14599609375
2.5099999,0.26336219906806946,-1.8531121015548706,9.718064308166504,-8.1939697265625,-9.979248046875,0.8544921875
2.5299999,0.1843535304069519,-1.8602946996688843,10.017339706420898,-24.4903564453125,-11.5966796875,-4.94384765625
2.5499999,0.14604631066322327,-1.824381709098816,10.053253173828125,-4.45556640625,-1.434326171875,5.67626953125
2.5699999,0.14604631066322327,-1.764526605606079,9.921571731567383,3.5552978515625,3.326416015625,6.866455078125
2.5899999,0.181959331035614,-1.7477672100067139,9.746794700622559,-8.2855224609375,0.2593994140625,-3.692626953125
2.6099999,0.24181437492370605,-1.778891921043396,9.646238327026367,-24.2919921875,3.2958984375,-10.0860595703125
2.6299999,0.2849099934101105,-1.802833914756775,9.691728591918945,-10.55908203125,15.2740478515625,-7.1563720703125
2.6499999,0.304063618183136,-1.8507179021835327,9.837775230407715,12.176513671875,8.0718994140625,3.2958984375
2.6699999,0.2968810200691223,-1.9177556037902832,9.986215591430664,12.6953125,-10.8642578125,6.2408447265625
2.6899999,0.27054479718208313,-2.006340980529785,10.108319282531738,-9.3841552734375,-6.500244140625,-2.410888671875
2.7099999,0.23702596127986908,-2.0254945755004883,10.165780067443848,-13.4429931640625,6.77490234375,-3.23486328125
2.7299999,0.23702596127986908,-2.027888774871826,10.067618370056152,-13.336181640625,-7.415771484375,8.758544921875
2.7499999,0.1843535304069519,-2.032677173614502,9.835380554199219,3.387451171875,-14.8162841796875,9.124755859375
2.7699999,0.15562310814857483,-2.231395959854126,9.519346237182617,0.3814697265625,12.420654296875,-5.06591796875
2.7899999,0.05506663769483566,-2.559401512145996,9.184157371520996,4.08935546875,36.0260009765625,-30.8685302734375
2.8099999,-0.0694318488240242,-2.8874073028564453,8.966285705566406,-27.2369384765625,33.5845947265625,-64.5751953125
2.8299999,-0.1628057211637497,-2.940079689025879,9.11233139038086,-41.3665771484375,33.2794189453125,-72.9522705078125
2.8499999,-0.1843535304069519,-2.5737667083740234,9.502586364746094,-22.613525390625,25.787353515625,-51.8341064453125
2.8699999,-0.15322890877723694,-1.8722656965255737,9.921571731567383,-20.416259765625,-0.54931640625,-23.834228515625
2.8899999,-0.023942016065120697,-1.1228805780410767,10.153809547424316,-0.4425048828125,-22.8729248046875,6.34765625
2.9099999,0.08858546614646912,-0.6200982332229614,10.029311180114746,15.2740478515625,-19.4854736328125,30.8990478515625
2.9299999,0.15083470940589905,-0.6416460275650024,9.655815124511719,20.5078125,5.06591796875,40.5426025390625
2.9499999,0.1364694982767105,-1.1468225717544556,9.315838813781738,42.205810546875,28.8848876953125,34.11865234375
2.9699999,0.002394201699644327,-1.920149803161621,9.220070838928223,17.6239013671875,29.205322265625,10.711669921875
2.9899999,-0.12210428714752197,-2.652775526046753,9.32541561126709,-26.2298583984375,8.4075927734375,-20.8740234375
3.0099999,-0.22266076505184174,-3.004723072052002,9.706093788146973,-44.6929931640625,12.1917724609375,-45.0286865234375
3.0299999,-0.2322375625371933,-2.9328970909118652,10.105925559997559,8.8958740234375,15.9454345703125,-33.355712890625
3.0499999,-0.15083470940589905,-2.5498247146606445,10.42195987701416,31.219482421875,-12.725830078125,-1.2359619140625
3.0699999,-0.0454898327589035,-2.0614075660705566,10.673351287841797,-0.7476806640625,-30.3802490234375,14.1754150390625
3.0899999,0.033518824726343155,-1.7094600200653076,10.730812072753906,-15.1214599609375,-30.303955078125,24.4293212890625
3.1099999,0.07182604819536209,-1.5897499322891235,10.532093048095703,-5.2642822265625,-34.698486328125,32.196044921875
3.1299999,0.05267243832349777,-1.742978811264038,10.15141487121582,8.4075927734375,-34.576416015625,30.57861328125
3.1499999,-0.0071826050989329815,-2.1164743900299072,9.725247383117676,6.28662109375,-12.1612548828125,17.0135498046875
3.1699999,-0.05506663769483566,-2.628833532333374,9.32302188873291,-0.030517578125,11.383056640625,-5.43212890625
3.1899999,-0.08619125932455063,-2.9544448852539062,9.090784072875977,-8.9874267578125,17.08984375,-39.5050048828125
3.2099999,-0.0694318488240242,-2.964021682739258,9.093177795410156,-6.439208984375,19.7906494140625,-48.5992431640625
3.2299999,-0.035913024097681046,-2.6024973392486572,9.217676162719727,14.4195556640625,18.06640625,-22.6898193359375
3.2499999,-0.004788403399288654,-2.006340980529785,9.399636268615723,8.6822509765625,9.5672607421875,5.67626953125
3.2699999,0.002394201699644327,-1.556231141090393,9.519346237182617,12.7410888671875,1.9378662109375,23.6053466796875
3.2899999,-0.023942016065120697,-1.4269442558288574,9.627084732055664,33.782958984375,5.4168701171875,21.2554931640625
3.3099999,-0.09816227108240128,-1.6376339197158813,9.715670585632324,24.169921875,10.528564453125,-0.06103515625
3.3299999000000002,-0.20350714027881622,-2.0374655723571777,9.660603523254395,-4.8828125,2.716064453125,-23.5595703125
3.3499999,-0.33518823981285095,-2.346317768096924,9.639056205749512,-29.6630859375,11.3677978515625,-38.0859375
3.3699999,-0.4141969084739685,-2.4684219360351562,9.651026725769043,-16.754150390625,26.9317626953125,-28.839111328125
3.3899999,-0.4812345504760742,-2.406172752380371,9.749189376831055,2.838134765625,16.937255859375,-19.1802978515625
3.4099999,-0.4908113479614258,-2.231395959854126,9.945513725280762,-18.035888671875,-1.8463134765625,-21.1029052734375
3.4299999,-0.4668693244457245,-2.075772762298584,10.11550235748291,-27.130126953125,-5.767822265625,-16.754150390625
3.4499999,-0.42377370595932007,-1.9800047874450684,10.137049674987793,-21.7132568359375,-1.40380859375,-13.1988525390625
3.4699999,-0.3734954595565796,-1.9704279899597168,10.04846477508545,-13.73291015625,-0.213623046875,-14.1754150390625
3.4899999,-0.3423708379268646,-2.0446481704711914,9.916783332824707,4.608154296875,-3.662109375,-10.6353759765625
3.5099999,-0.3064578175544739,-2.1595699787139893,9.801861763000488,2.13623046875,-6.195068359375,-9.8876953125
3.5299999,-0.26336219906806946,-2.2242133617401123,9.684545516967773,-7.9345703125,-5.2490234375,-12.9241943359375
3.5499999,-0.22026655077934265,-2.1930887699127197,9.612719535827637,-16.4642333984375,-0.1983642578125,-9.6588134765625
3.5699999,-0.1604115068912506,-2.123656988143921,9.576807022094727,9.94873046875,1.40380859375,6.2713623046875
3.5899999,-0.13168109953403473,-2.0661959648132324,9.583989143371582,16.7083740234375,-2.9754638671875,13.5345458984375
3.6099999,-0.13168109953403473,-2.094926595687866,9.63187313079834,5.55419921875,-4.6539306640625,8.270263671875
3.6299999,-0.14604631066322327,-2.2433669567108154,9.710882186889648,7.9498291015625,-0.67138671875,3.4332275390625
3.6499999,-0.17238251864910126,-2.4181437492370605,9.75637149810791,11.383056640625,-1.6021728515625,-5.06591796875
3.6699999,-0.18914192914962769,-2.518700122833252,9.770736694335938,3.35693359375,-3.8604736328125,-13.8702392578125
3.6899999,-0.1867477297782898,-2.492363929748535,9.746794700622559,-2.0751953125,-1.52587890625,-11.4898681640625
3.7099999,-0.17238251864910126,-2.3487119674682617,9.737217903137207,0.762939453125,3.8604736328125,-4.2266845703125
3.7299999,-0.1628057211637497,-2.185906171798706,9.785101890563965,10.1318359375,2.5482177734375,1.617431640625
3.7499999,-0.16519992053508759,-2.097320795059204,9.81143856048584,19.2108154296875,-8.48388671875,2.3345947265625
3.7699999,-0.16998831927776337,-2.1140801906585693,9.823410034179688,2.349853515625,-7.8277587890625,-8.36181640625
3.7899999,-0.17956513166427612,-2.1739351749420166,9.81143856048584,6.4544677734375,5.43212890625,-18.00537109375
3.8099999,-0.17238251864910126,-2.1787235736846924,9.81143856048584,-3.4942626953125,7.4005126953125,-22.064208984375
3.8299999000000002,-0.15322890877723694,-2.142810583114624,9.856928825378418,-2.0294189453125,-3.8299560546875,-14.46533203125
3.8499999,-0.12210428714752197,-2.054224967956543,9.854534149169922,3.47900390625,-10.528564453125,-11.077880859375
3.8699999,-0.09576806426048279,-1.9105730056762695,9.765948295593262,-26.1688232421875,-0.06103515625,-18.280029296875
3.8899999,-0.05746084079146385,-1.7812861204147339,9.603142738342285,-17.63916015625,10.9405517578125,-10.467529296875
3.9099999,-0.047884032130241394,-1.702277421951294,9.459490776062012,2.0599365234375,11.566162109375,4.94384765625
3.9299999,-0.06464344263076782,-1.721431016921997,9.378087997436523,-2.685546875,7.0343017578125,6.9580078125
3.9499999,-0.1149216815829277,-1.843535304069519,9.387664794921875,-16.937255859375,14.8773193359375,0.457763671875
3.9699999,-0.17477671802043915,-2.011129379272461,9.433155059814453,-23.5595703125,22.27783203125,-0.701904296875
3.9899999,-0.2346317619085312,-2.1547815799713135,9.524134635925293,-17.5628662109375,18.3868408203125,3.570556640625
4.0099999,-0.2992752194404602,-2.274491548538208,9.653421401977539,-10.2691650390625,11.5203857421875,4.4097900390625
4.029999900000001,-0.363918662071228,-2.47560453414917,9.813833236694336,-0.732421875,8.2855224609375,8.1329345703125
4.0499999,-0.4405331015586853,-2.6886885166168213,9.921571731567383,0.8697509765625,8.453369140625,0.0762939453125
4.069999900000001,-0.4884171485900879,-2.853888511657715,9.940725326538086,-35.15625,7.38525390625,-19.561767578125
4.0899999000000005,-0.507570743560791,-2.868253707885742,9.859322547912598,-27.7557373046875,7.6446533203125,-20.1263427734375
4.1099999,-0.47165772318840027,-2.7078421115875244,9.677363395690918,-15.1824951171875,12.0849609375,-6.65283203125
4.1299999000000005,-0.43335050344467163,-2.492363929748535,9.469067573547363,-6.7596435546875,14.251708984375,9.0484619140625
4.1499999,-0.40462008118629456,-2.343923568725586,9.337387084960938,4.974365234375,17.76123046875,16.5863037109375
4.1699999000000005,-0.49799394607543945,-2.3104045391082764,9.313444137573242,-12.1002197265625,18.9361572265625,12.115478515625
4.1899999,-0.730231523513794,-2.2697031497955322,9.387664794921875,-3.8909912109375,14.892578125,9.552001953125
4.209999900000001,-0.7469909191131592,-2.279279947280884,9.425971984863281,-7.2174072265625,6.9732666015625,17.1661376953125
4.2299999,-0.8738836050033569,-2.2170307636260986,9.320627212524414,23.3154296875,15.106201171875,42.388916015625
4.249999900000001,-0.8619126081466675,-2.250549554824829,9.124302864074707,3.1890869140625,41.7022705078125,45.6695556640625
4.2699999,-0.8092401623725891,-2.363077163696289,8.846575736999512,3.9825439453125,57.8765869140625,41.0003662109375
4.289999900000001,-0.9026140570640564,-2.5953147411346436,8.786720275878906,-3.4637451171875,64.7430419921875,29.84619140625
4.3099999,-1.0582371950149536,-2.82515811920166,8.911218643188477,10.55908203125,61.981201171875,21.9573974609375
4.329999900000001,-1.2282254695892334,-3.0789434909820557,9.229647636413574,-2.3651123046875,52.7191162109375,20.599365234375
4.3499999,-1.5131354331970215,-3.2848446369171143,9.607931137084961,-9.857177734375,44.43359375,4.8980712890625
4.369999900000001,-1.8555063009262085,-3.3925838470458984,9.919178009033203,-14.34326171875,35.58349609375,-25.0396728515625
4.3899999,-2.255337953567505,-3.2824504375457764,10.127472877502441,-37.139892578125,25.9857177734375,-45.83740234375
4.409999900000001,-2.343923568725586,-3.023876667022705,10.251971244812012,-36.6668701171875,12.63427734375,-40.1153564453125
4.4299999,-2.322375535964966,-2.5953147411346436,10.180145263671875,7.171630859375,-6.8511962890625,-13.12255859375
4.449999900000001,-2.2218191623687744,-2.3798365592956543,9.943120002746582,30.8074951171875,-4.2877197265625,13.85498046875
4.4699999,-2.0685901641845703,-2.585737943649292,9.624691009521484,33.8134765625,15.4876708984375,2.2735595703125
4.489999900000001,-2.0398597717285156,-2.9927520751953125,9.435548782348633,11.8255615234375,30.8837890625,-60.1348876953125
4.5099999,-2.300827741622925,-3.404554843902588,9.318233489990234,8.026123046875,11.0626220703125,-83.49609375
4.529999900000001,-2.2361843585968018,-3.406949043273926,9.330204010009766,11.8560791015625,-0.0457763671875,-66.7572021484375
4.5499999,-2.2409727573394775,-3.1531636714935303,9.370905876159668,8.636474609375,4.6844482421875,-40.0543212890625
4.569999900000001,-2.0829553604125977,-2.5234885215759277,9.397241592407227,88.9739990234375,6.6986083984375,-22.705078125
4.5899999000000005,-1.9369091987609863,-2.0207061767578125,9.617507934570312,51.361083984375,5.9356689453125,-17.364501953125
4.609999900000001,-1.9560627937316895,-1.8076223134994507,9.653421401977539,72.69287109375,-22.39990234375,2.8839111328125
4.6299999000000005,-2.188300371170044,-1.9800047874450684,9.119514465332031,10.223388671875,49.957275390625,-86.73095703125
4.6499999,-2.2026655673980713,-1.9129672050476074,9.193734169006348,32.3486328125,79.5135498046875,-72.0977783203125
4.6699999000000005,-2.1715409755706787,-1.5705963373184204,9.641449928283691,81.5582275390625,-2.8076171875,-9.490966796875
4.6899999,-2.013523578643799,-0.8690952062606812,10.472238540649414,55.4046630859375,-52.2308349609375,-5.126953125
4.709999900000001,-1.8938134908676147,-0.35673606395721436,10.96304988861084,17.9290771484375,-41.9464111328125,-4.5166015625
4.7299999,-1.8148049116134644,-0.22744916379451752,11.001357078552246,11.7950439453125,-41.8548583984375,33.355712890625
4.749999900000001,-1.8315643072128296,-0.0933738648891449,10.76193618774414,19.83642578125,-46.112060546875,57.2509765625
4.7699999,-1.8531121015548706,-0.3232172429561615,10.38844108581543,-3.2958984375,-58.624267578125,68.084716796875
4.789999900000001,-1.8267759084701538,-0.768538773059845,9.90241813659668,-17.0745849609375,-81.9244384765625,61.0504150390625
4.8099999,-1.6950948238372803,-1.3335703611373901,9.497797966003418,51.4984130859375,-78.91845703125,22.3541259765625
4.829999900000001,-1.4053963422775269,-2.1164743900299072,9.23682975769043,85.26611328125,-60.4705810546875,-27.9693603515625
4.8499999,-1.2210428714752197,-2.8155810832977295,9.394847869873047,22.7813720703125,-43.02978515625,-76.873779296875
4.869999900000001,-0.9696516990661621,-3.0861260890960693,9.847352027893066,0.335693359375,-36.7431640625,-108.489990234375
4.8899999,-0.8331822156906128,-2.518700122833252,10.177751541137695,-43.212890625,-29.9072265625,-100.006103515625
4.909999900000001,-0.5746083855628967,-1.45806884765625,10.493785858154297,-126.40380859375,-25.1312255859375,-21.514892578125
4.9299999,-0.31842881441116333,-0.33039984107017517,10.070012092590332,30.670166015625,-62.01171875,51.6357421875
4.949999900000001,-0.023942016065120697,0.363918662071228,9.533711433410645,85.8306884765625,-41.748046875,60.4400634765625
4.9699999,0.2059013396501541,0.2513911724090576,8.834604263305664,92.559814453125,-12.0391845703125,43.1671142578125
4.989999900000001,0.3256114423274994,-0.33997663855552673,8.305485725402832,82.3822021484375,1.4190673828125,18.8446044921875
5.0099999,0.2561795711517334,-1.0295066833496094,7.939172744750977,57.9681396484375,-11.29150390625,-9.6435546875
5.029999900000001,0.11252748221158981,-1.3407529592514038,7.848193168640137,95.15380859375,23.651123046875,-33.0963134765625
5.0499999,-0.21547815203666687,-1.41257905960083,8.142680168151855,50.9033203125,80.322265625,-35.003662109375
5.069999900000001,-0.49320554733276367,-1.070208191871643,8.547300338745117,129.45556640625,73.6236572265625,-41.839599609375
5.0899999000000005,-0.751779317855835,-0.5051765441894531,9.703699111938477,121.4447021484375,64.27001953125,-56.793212890625
5.109999900000001,-0.9026140570640564,-0.031124621629714966,10.675745010375977,-16.693115234375,3.96728515625,-43.8690185546875
5.1299999000000005,-0.933738648891449,0.7086837291717529,11.45146656036377,-63.4002685546875,-41.3360595703125,-52.6123046875
5.1499999,-0.8786720037460327,1.4077905416488647,11.530475616455078,-55.7708740234375,-35.2325439453125,-33.8897705078125
5.1699999000000005,-0.7565677165985107,1.9584569931030273,11.063606262207031,5.92041015625,-11.0015869140625,20.1263427734375
5.1899999,-0.6272808313369751,2.2625205516815186,10.457873344421387,29.3731689453125,3.0975341796875,34.48486328125
5.209999900000001,-0.49799394607543945,2.1140801906585693,9.911994934082031,43.5028076171875,-19.439697265625,19.59228515625
5.2299999,-0.3974374830722809,1.6328455209732056,9.648633003234863,17.2576904296875,-28.6102294921875,13.214111328125
5.249999900000001,-0.35434186458587646,1.1300631761550903,9.763554573059082,-17.7459716796875,-14.4500732421875,9.2620849609375
5.2699999,-0.29209262132644653,0.8690952062606812,9.856928825378418,3.7078857421875,-26.3214111328125,-6.378173828125
5.289999900000001,-0.15322890877723694,0.8259995579719543,9.57201862335205,3.7841796875,-50.994873046875,-5.7220458984375
5.3099999,-0.08858546614646912,0.9696516990661621,9.217676162719727,-152.7862548828125,-9.2620849609375,-9.765625
5.329999900000001,0.011971008032560349,1.1659762859344482,8.810662269592285,-114.9139404296875,64.3310546875,-6.591796875
5.3499999,-0.08379705995321274,1.1252747774124146,8.927978515625,29.4189453125,53.314208984375,20.3857421875
5.369999900000001,-0.30885201692581177,0.8762778043746948,9.751583099365234,-6.195068359375,3.5247802734375,7.26318359375
5.3899999,-0.5099649429321289,0.4908113479614258,10.560823440551758,-24.3377685546875,-41.93115234375,-17.730712890625
5.409999900000001,-0.5386953949928284,0.08858546614646912,10.78348445892334,-79.8492431640625,-46.630859375,-34.9884033203125
5.4299999,-0.5339069962501526,-0.10295066982507706,10.254365921020508,-75.0885009765625,-1.40380859375,-27.4200439453125
5.449999900000001,-0.3256114423274994,-0.14844051003456116,9.533711433410645,-27.3895263671875,53.802490234375,-27.0843505859375
5.4699999,-0.26336219906806946,-0.038307227194309235,9.062053680419922,-61.2030029296875,39.9169921875,-30.0140380859375
5.489999900000001,-0.272938996553421,0.028730420395731926,9.193734169006348,-73.822021484375,9.2926025390625,-21.4996337890625
5.5099999,-0.2992752194404602,-0.090979665517807,9.62947940826416,-43.1365966796875,-5.55419921875,0.4119873046875
5.529999900000001,-0.37828385829925537,-0.4812345504760742,9.945513725280762,25.146484375,-15.80810546875,8.4381103515625
5.5499999,-0.3902548849582672,-0.9481038451194763,10.08437728881836,42.48046875,-4.638671875,-7.720947265625
5.569999900000001,-0.3495534360408783,-1.194706678390503,9.950302124023438,7.415771484375,-4.8370361328125,-27.2979736328125
5.5899999000000005,-0.21547815203666687,-0.9624691009521484,9.727641105651855,-3.9215087890625,0.1068115234375,-11.444091796875
5.609999900000001,-0.12928688526153564,-0.47884035110473633,9.684545516967773,4.1351318359375,6.805419921875,33.477783203125
5.6299999000000005,-0.05027823522686958,-0.090979665517807,9.758766174316406,67.32177734375,-10.711669921875,60.1959228515625
5.6499999,-0.14365209639072418,0.1867477297782898,9.816226959228516,49.6978759765625,-40.4052734375,25.8026123046875
5.6699999000000005,-0.2059013396501541,0.3974374830722809,9.86650562286377,-16.7236328125,-20.416259765625,-0.0457763671875
5.6899999,-0.30885201692581177,0.47165772318840027,9.888052940368652,23.956298828125,6.378173828125,46.905517578125
5.709999900000001,-0.35434186458587646,0.4118026793003082,9.99339771270752,77.8045654296875,-21.942138671875,80.8258056640625
5.7299999,-0.3495534360408783,0.24660277366638184,10.129867553710938,41.259765625,-52.2918701171875,37.2314453125
5.749999900000001,-0.3280056416988373,0.009576806798577309,10.429142951965332,-8.1939697265625,-51.20849609375,11.627197265625
5.7699999,-0.24899697303771973,-0.2561795711517334,10.376470565795898,4.2266845703125,-41.44287109375,46.81396484375
5.789999900000001,-0.09576806426048279,-0.2968810200691223,10.000580787658691,18.707275390625,-23.345947265625,45.806884765625
5.8099999,0.09576806426048279,-0.2513911724090576,9.727641105651855,9.796142578125,25.7720947265625,5.9661865234375
5.829999900000001,0.2753331959247589,-0.3208230137825012,9.423578262329102,26.1993408203125,24.5819091796875,7.720947265625
5.8499999,0.4405331015586853,-0.10534487664699554,9.57201862335205,24.383544921875,-3.47900390625,13.5650634765625
5.869999900000001,0.5147533416748047,0.06464344263076782,9.81143856048584,0.0762939453125,-30.1513671875,32.867431640625
5.8899999,0.5770025849342346,0.31364041566848755,10.24239444732666,-38.1011962890625,-41.5496826171875,51.7120361328125
5.909999900000001,0.5626373887062073,0.44771572947502136,10.345345497131348,-57.9681396484375,-50.7965087890625,71.2738037109375
5.9299999,0.5937620401382446,0.47644615173339844,10.163386344909668,-62.896728515625,-59.7076416015625,74.432373046875
5.949999900000001,0.6488286852836609,0.2944868206977844,9.93354320526123,-32.4249267578125,-15.9454345703125,52.2613525390625
5.9699999,0.6703764796257019,-0.06464344263076782,9.586383819580078,10.711669921875,11.0626220703125,3.7078857421875
5.989999900000001,0.7158663272857666,-0.5817909836769104,9.560047149658203,-2.9754638671875,9.796142578125,-30.0445556640625
6.0099999,0.6991068720817566,-1.0223240852355957,9.797073364257812,14.95361328125,7.0648193359375,-33.4320068359375
6.029999900000001,0.6847416758537292,-1.1348515748977661,10.029311180114746,-9.2620849609375,-6.89697265625,-42.3126220703125
6.0499999,0.6943184733390808,-0.9026140570640564,10.228029251098633,-43.8232421875,-3.0975341796875,-44.5098876953125
6.069999900000001,0.7038952708244324,-0.35913026332855225,10.405200958251953,-11.7950439453125,13.214111328125,-29.296875
6.0899999000000005,0.6584054827690125,0.18914192914962769,10.26394271850586,33.3251953125,-7.0953369140625,3.1585693359375
6.109999900000001,0.6727706789970398,0.5051765441894531,10.08437728881836,0.4730224609375,-14.6636962890625,11.6119384765625
6.1299999000000005,0.6320692300796509,0.49559974670410156,9.916783332824707,8.2550048828125,23.101806640625,4.9896240234375
6.149999900000001,0.6488286852836609,0.33039984107017517,9.794678688049316,-23.956298828125,28.2440185546875,-18.1732177734375
6.1699999000000005,0.6512228846549988,0.090979665517807,9.890447616577148,-62.3321533203125,4.2724609375,-21.881103515625
6.1899999,0.6392518281936646,-0.14604631066322327,10.065223693847656,-20.5230712890625,-9.9029541015625,-3.41796875
6.209999900000001,0.6129156351089478,-0.4357447028160095,10.17296314239502,12.4053955078125,-2.716064453125,-9.033203125
6.2299999,0.629675030708313,-0.6009446382522583,10.108319282531738,3.23486328125,5.584716796875,-39.97802734375
6.249999900000001,0.6607996821403503,-0.5410895943641663,10.041281700134277,-54.7943115234375,17.4407958984375,-52.581787109375
6.2699999,0.7493851184844971,-0.23702596127986908,10.002974510192871,-14.9078369140625,5.0506591796875,-20.32470703125
6.289999900000001,0.8188169598579407,0.19393034279346466,9.995792388916016,8.8653564453125,-1.6937255859375,6.591796875
6.3099999,0.871489405632019,0.36152446269989014,10.091560363769531,7.2174072265625,4.974365234375,14.6636962890625
6.329999900000001,0.8906430602073669,0.14365209639072418,10.108319282531738,8.026123046875,-2.9449462890625,13.6871337890625
6.3499999,0.8619126081466675,-0.3519476354122162,10.067618370056152,-15.13671875,-11.8865966796875,-2.5177001953125
6.369999900000001,0.8092401623725891,-0.8403648138046265,9.871294021606445,-13.6566162109375,-8.1634521484375,-17.76123046875
6.3899999,0.7350199222564697,-1.0869675874710083,9.603142738342285,-6.7901611328125,5.950927734375,-23.101806640625
6.409999900000001,0.6631938815116882,-1.0821791887283325,9.27034854888916,14.9383544921875,8.7890625,-9.3994140625
6.4299999,0.6320692300796509,-0.9576807022094727,9.069235801696777,24.8260498046875,14.3280029296875,-0.67138671875
6.449999900000001,0.6153098344802856,-0.8475474119186401,9.11233139038086,2.3651123046875,27.618408203125,-16.845703125
6.4699999,0.5961562395095825,-0.706289529800415,9.38048267364502,-8.60595703125,27.2064208984375,-35.430908203125
6.489999900000001,0.6272808313369751,-0.47644615173339844,9.818621635437012,-9.58251953125,12.5274658203125,-28.1982421875
6.5099999,0.5937620401382446,-0.2777273952960968,10.299856185913086,29.205322265625,-2.13623046875,9.09423828125
6.529999900000001,0.5937620401382446,-0.17717093229293823,10.522516250610352,64.8956298828125,-13.0462646484375,24.169921875
6.5499999,0.586579442024231,-0.22744916379451752,10.498574256896973,-6.011962890625,-6.9427490234375,-2.3040771484375
6.569999900000001,0.569819986820221,-0.5123591423034668,10.20648193359375,-27.984619140625,-0.4119873046875,-7.354736328125
6.5899999000000005,0.5770025849342346,-0.933738648891449,9.825803756713867,40.5731201171875,0.9765625,6.256103515625
6.609999900000001,0.5770025849342346,-1.1827356815338135,9.564835548400879,41.2139892578125,5.55419921875,-14.58740234375
6.6299999000000005,0.6823474764823914,-1.2210428714752197,9.509769439697266,-3.7689208984375,6.0577392578125,-36.285400390625
6.649999900000001,0.790086567401886,-1.015141487121582,9.62947940826416,51.1016845703125,-7.415771484375,-4.8828125
6.6699999000000005,0.950498104095459,-0.524330198764801,9.763554573059082,54.8095703125,-19.805908203125,18.3258056640625
6.6899999,1.0534487962722778,-0.06703764945268631,9.785101890563965,11.322021484375,-13.3056640625,14.70947265625
6.709999900000001,1.1109095811843872,0.15322890877723694,9.701305389404297,23.0865478515625,6.988525390625,9.3841552734375
6.7299999,1.094150185585022,0.2513911724090576,9.634267807006836,34.4696044921875,18.6920166015625,-0.48828125
6.749999900000001,1.0797849893569946,0.2753331959247589,9.66299819946289,13.641357421875,9.94873046875,-3.387451171875
6.7699999,1.0630255937576294,0.38546648621559143,9.828198432922363,15.6707763671875,4.608154296875,3.3111572265625
6.789999900000001,1.1037269830703735,0.6129156351089478,9.974244117736816,7.9345703125,5.5389404296875,6.40869140625
6.8099999,1.170764684677124,0.7972691655158997,10.180145263671875,7.7362060546875,11.9781494140625,15.6707763671875
6.829999900000001,1.2401964664459229,0.7972691655158997,10.362105369567871,19.5465087890625,6.439208984375,26.4892578125
6.8499999,1.278503656387329,0.6536170840263367,10.42195987701416,-8.819580078125,-10.9710693359375,16.754150390625
6.869999900000001,1.256955862045288,0.33758243918418884,10.431536674499512,-21.5911865234375,-9.2010498046875,8.1634521484375
6.8899999,1.1827356815338135,-0.035913024097681046,10.33098030090332,2.655029296875,-0.6103515625,14.2059326171875
6.909999900000001,1.0606313943862915,-0.3064578175544739,10.144232749938965,-7.9498291015625,-5.9814453125,7.6904296875
6.9299999,0.9457096457481384,-0.395043283700943,9.9000244140625,-11.0015869140625,-12.664794921875,-4.9896240234375
6.949999900000001,0.8643068075180054,-0.29209262132644653,9.713275909423828,12.87841796875,3.387451171875,0.213623046875
6.9699999,0.8068459630012512,-0.07422025501728058,9.639056205749512,18.402099609375,19.561767578125,17.8985595703125
6.989999900000001,0.7781155705451965,0.13168109953403473,9.639056205749512,-1.434326171875,5.5389404296875,20.99609375
7.0099999,0.7541735172271729,0.10295066982507706,9.780313491821289,-13.85498046875,-6.1492919921875,15.44189453125
7.029999900000001,0.7206547260284424,-0.016759412363171577,9.945513725280762,-6.317138671875,6.011962890625,3.0059814453125
7.0499999,0.7110779285430908,-0.10295066982507706,9.986215591430664,3.2958984375,7.6751708984375,-1.922607421875
7.069999900000001,0.727837324142456,-0.023942016065120697,10.014945983886719,14.16015625,1.2664794921875,8.8348388671875
7.0899999000000005,0.7565677165985107,0.16998831927776337,10.06043529510498,11.962890625,0.701904296875,21.1334228515625
7.109999900000001,0.7757213711738586,0.33758243918418884,10.125079154968262,-7.293701171875,-5.3558349609375,25.177001953125
7.1299999000000005,0.7613561153411865,0.304063618183136,10.070012092590332,-6.16455078125,-15.7928466796875,24.261474609375
7.149999900000001,0.7254431247711182,0.24181437492370605,9.955090522766113,1.983642578125,-10.467529296875,12.26806640625
7.1699999000000005,0.6871358752250671,0.17956513166427612,9.81143856048584,10.6658935546875,6.103515625,6.8817138671875
7.1899999,0.6703764796257019,0.18914192914962769,9.775525093078613,24.627685546875,11.16943359375,19.6380615234375
7.209999900000001,0.6512228846549988,0.29209262132644653,9.84256362915039,6.40869140625,-2.410888671875,21.8658447265625
7.2299999,0.6248866319656372,0.33758243918418884,9.928754806518555,-22.6898193359375,-11.7645263671875,19.04296875
7.249999900000001,0.5315127968788147,0.3064578175544739,9.823410034179688,-25.08544921875,-5.4931640625,13.8092041015625
7.2699999,0.44771572947502136,0.26575639843940735,9.57441234588623,-10.9100341796875,7.7667236328125,8.392333984375
7.289999900000001,0.3663128614425659,0.45250412821769714,9.306262016296387,1.953125,19.0582275390625,3.23486328125
7.3099999,0.3280056416988373,0.6967126727104187,9.097966194152832,1.739501953125,9.6893310546875,21.6064453125
7.329999900000001,0.31603461503982544,0.8188169598579407,9.244012832641602,1.4190673828125,18.0206298828125,49.224853515625
7.3499999,0.272938996553421,0.7158663272857666,9.399636268615723,-13.61083984375,10.955810546875,42.1905517578125
7.369999900000001,0.2298433631658554,0.524330198764801,9.579200744628906,-10.986328125,-0.06103515625,12.7105712890625
7.3899999,0.15562310814857483,0.26336219906806946,9.794678688049316,10.80322265625,11.7645263671875,19.8822021484375
7.409999900000001,0.1173158809542656,0.1364694982767105,9.952696800231934,28.4423828125,14.678955078125,41.0919189453125
7.4299999,0.11971008777618408,0.19871874153614044,10.1753568649292,7.8277587890625,4.425048828125,25.115966796875
7.449999900000001,0.15562310814857483,0.22505496442317963,10.304644584655762,-23.92578125,-10.345458984375,9.21630859375
7.4699999,0.2082955539226532,0.3016694188117981,10.304644584655762,-30.4718017578125,-12.4664306640625,14.16015625
7.489999900000001,0.26575639843940735,0.42616790533065796,10.187328338623047,-18.9056396484375,-1.9989013671875,19.6075439453125
7.5099999,0.31364041566848755,0.667982280254364,9.95748519897461,-1.556396484375,-2.4261474609375,16.7236328125
7.529999900000001,0.3471592366695404,0.9361328482627869,9.813833236694336,6.5155029296875,-5.0506591796875,19.2413330078125
7.5499999,0.3711012601852417,1.0989385843276978,9.864110946655273,21.3165283203125,1.1138916015625,40.740966796875
7.569999900000001,0.40462008118629456,1.072602391242981,9.955090522766113,15.9454345703125,-6.866455078125,44.769287109375
7.5899999000000005,0.4596867263317108,0.9648633003234863,9.995792388916016,-10.3607177734375,-22.064208984375,19.0582275390625
7.609999900000001,0.5482721924781799,0.7948749661445618,9.940725326538086,-26.5960693359375,-14.1143798828125,12.2528076171875
7.6299999000000005,0.6344634294509888,0.5913678407669067,9.813833236694336,-14.1448974609375,1.9378662109375,34.0728759765625
7.649999900000001,0.7254431247711182,0.4213795065879822,9.679757118225098,9.09423828125,-3.173828125,30.548095703125
7.6699999000000005,0.7852981686592102,0.24899697303771973,9.655815124511719,-3.4637451171875,-14.7247314453125,5.5084228515625
7.6899999,0.8092401623725891,0.12449848651885986,9.651026725769043,-11.2152099609375,-15.045166015625,0.518798828125
7.709999900000001,0.8140285611152649,0.12210428714752197,9.600749015808105,10.223388671875,-6.0272216796875,19.8516845703125
7.7299999,0.7876923680305481,0.24181437492370605,9.636661529541016,16.3421630859375,10.9405517578125,28.564453125
7.749999900000001,0.7350199222564697,0.24660277366638184,9.639056205749512,2.74658203125,3.6163330078125,22.64404296875
7.7699999,0.6871358752250671,0.090979665517807,9.77791976928711,4.21142578125,-2.3956298828125,17.5323486328125
7.789999900000001,0.6392518281936646,-0.10055647045373917,9.967061996459961,7.171630859375,2.0904541015625,10.528564453125
7.8099999,0.6248866319656372,-0.31603461503982544,10.002974510192871,1.6632080078125,-8.270263671875,7.26318359375
7.829999900000001,0.6560112833976746,-0.3232172429561615,10.0580415725708,-1.0833740234375,-7.26318359375,0.9307861328125
7.8499999,0.6943184733390808,-0.20350714027881622,10.031704902648926,-2.99072265625,-0.2288818359375,1.1444091796875
7.869999900000001,0.730231523513794,-0.040701430290937424,9.897629737854004,-1.40380859375,-5.43212890625,13.8702392578125
7.8899999,0.7398083209991455,0.10534487664699554,9.80904483795166,5.2490234375,-2.3345947265625,12.8631591796875
7.909999900000001,0.7182605266571045,0.14365209639072418,9.737217903137207,9.307861328125,1.678466796875,3.5858154296875
7.9299999,0.6775590777397156,0.11971008777618408,9.62947940826416,-0.5950927734375,-4.058837890625,-0.1983642578125
7.949999900000001,0.667982280254364,0.15083470940589905,9.509769439697266,-6.2255859375,-0.6256103515625,1.2054443359375
7.9699999,0.6919242739677429,0.24420857429504395,9.44991397857666,-9.5672607421875,14.6484375,5.9051513671875
7.989999900000001,0.7230489253997803,0.21547815203666687,9.495404243469238,-1.5411376953125,16.9219970703125,14.1448974609375
8.0099999,0.7637503147125244,0.12689268589019775,9.646238327026367,10.3912353515625,0.5340576171875,7.2784423828125
8.0299999,0.8044517636299133,0.021547814831137657,9.773131370544434,-7.32421875,-8.636474609375,-7.6751708984375
8.049999900000001,0.8475474119186401,-0.0454898327589035,9.825803756713867,3.7689208984375,3.082275390625,0.885009765625
8.069999900000001,0.8978256583213806,-0.002394201699644327,9.75637149810791,14.7552490234375,12.2833251953125,11.5814208984375
8.0899999,0.9265560507774353,-0.026336219161748886,9.72285270690918,11.8865966796875,7.6141357421875,13.4124755859375
8.1099999,0.9385270476341248,-0.09576806426048279,9.746794700622559,5.828857421875,0.4730224609375,1.4190673828125
8.129999900000001,0.9313444495201111,-0.15322890877723694,9.758766174316406,-7.9498291015625,-0.3204345703125,-9.9334716796875
8.149999900000001,0.9313444495201111,-0.08619125932455063,9.720458984375,-2.9754638671875,7.171630859375,-4.2266845703125
8.1699999,0.9313444495201111,0.05027823522686958,9.684545516967773,3.35693359375,12.1307373046875,7.1563720703125
8.1899999,0.9289502501487732,0.1628057211637497,9.727641105651855,4.119873046875,8.0108642578125,6.53076171875
8.2099999,0.9265560507774353,0.29209262132644653,9.799467086791992,-11.0015869140625,-1.2664794921875,-8.7432861328125
8.229999900000001,0.9193734526634216,0.4118026793003082,9.84256362915039,-9.8876953125,-1.46484375,-6.256103515625
8.2499999,0.9193734526634216,0.5530605912208557,9.856928825378418,19.287109375,8.6669921875,10.833740234375
8.2699999,0.9313444495201111,0.7374141216278076,9.86889934539795,16.8914794921875,10.5743408203125,11.0626220703125
8.2899999,0.9313444495201111,0.8092401623725891,9.931148529052734,-8.0718994140625,2.9754638671875,1.6326904296875
8.309999900000001,0.9193734526634216,0.7852981686592102,10.014945983886719,-10.7879638671875,-0.732421875,2.9449462890625
8.3299999,0.8954314589500427,0.7398083209991455,10.137049674987793,-5.43212890625,6.6070556640625,6.195068359375
8.3499999,0.8619126081466675,0.6560112833976746,10.165780067443848,-4.7760009765625,5.1422119140625,7.171630859375
8.3699999,0.8355764150619507,0.5602431893348694,10.113107681274414,-8.697509765625,-2.44140625,5.859375
8.389999900000001,0.8068459630012512,0.4836287498474121,10.074800491333008,-6.65283203125,4.6844482421875,6.4849853515625
8.4099999,0.7757213711738586,0.3447650372982025,9.99100399017334,1.3275146484375,8.819580078125,13.5345458984375
8.4299999,0.7158663272857666,0.24420857429504395,9.950302124023438,4.57763671875,3.9520263671875,12.63427734375
8.4499999,0.6392518281936646,0.12210428714752197,9.976638793945312,-10.8489990234375,3.2958984375,8.026123046875
8.469999900000001,0.5626373887062073,0.014365210197865963,9.998186111450195,2.777099609375,2.6397705078125,10.7879638671875
8.4899999,0.5027823448181152,0.002394201699644327,10.019734382629395,4.4403076171875,2.6092529296875,9.063720703125
8.5099999,0.47884035110473633,-0.002394201699644327,9.940725326538086,6.8511962890625,-0.274658203125,10.8184814453125
8.5299999,0.47165772318840027,0.07422025501728058,9.840168952941895,9.368896484375,0.396728515625,9.21630859375
8.549999900000001,0.4668693244457245,0.05746084079146385,9.770736694335938,3.7841796875,7.3394775390625,12.5274658203125
8.569999900000001,0.4620809257030487,0.06464344263076782,9.775525093078613,3.5400390625,7.6446533203125,10.162353515625
8.5899999,0.44771572947502136,0.031124621629714966,9.888052940368652,-5.8441162109375,0.457763671875,4.486083984375
8.6099999,0.45250412821769714,0.026336219161748886,10.002974510192871,7.62939453125,-4.39453125,7.7972412109375
8.629999900000001,0.4572925269603729,0.05027823522686958,10.103530883789062,6.6986083984375,-1.2969970703125,8.7432861328125
8.649999900000001,0.47405192255973816,0.028730420395731926,10.086771965026855,3.41796875,-2.3193359375,9.7503662109375
8.6699999,0.4812345504760742,0.038307227194309235,10.034099578857422,-2.99072265625,-3.9215087890625,0.79345703125
8.6899999,0.4884171485900879,0,9.938331604003906,-5.0811767578125,-4.8065185546875,-1.3885498046875
8.709999900000001,0.49559974670410156,0.040701430290937424,9.856928825378418,-1.0528564453125,-2.6702880859375,-1.8157958984375
8.729999900000001,0.49799394607543945,0.14365209639072418,9.804255485534668,-4.7454833984375,-0.79345703125,-2.86865234375
8.7499999,0.5051765441894531,0.24181437492370605,9.749189376831055,-8.4686279296875,-3.570556640625,-0.30517578125
8.7699999,0.5123591423034668,0.3232172429561615,9.737217903137207,-10.9710693359375,-2.5177001953125,-0.8087158203125
8.7899999,0.5195417404174805,0.35913026332855225,9.742006301879883,-10.8184814453125,0.457763671875,-2.0904541015625
8.809999900000001,0.5291185975074768,0.3495534360408783,9.732429504394531,-10.19287109375,-0.213623046875,-0.1373291015625
8.8299999,0.5267243981361389,0.31842881441116333,9.806650161743164,-3.3111572265625,2.838134765625,4.08935546875
8.8499999,0.524330198764801,0.1867477297782898,9.890447616577148,3.7078857421875,4.45556640625,8.3465576171875
8.8699999,0.49320554733276367,0.038307227194309235,10.005369186401367,2.655029296875,1.4190673828125,3.7384033203125
8.889999900000001,0.4692635238170624,-0.1843535304069519,10.098742485046387,-3.6773681640625,0.2899169921875,0.54931640625
8.9099999,0.4429273009300232,-0.33518823981285095,10.187328338623047,-0.1983642578125,1.6021728515625,-1.0528564453125
8.9299999,0.42856210470199585,-0.4118026793003082,10.189722061157227,-2.288818359375,-3.2501220703125,-4.0740966796875
8.9499999,0.44771572947502136,-0.3280056416988373,10.139444351196289,5.1116943359375,-6.9732666015625,-5.9356689453125
8.969999900000001,0.4668693244457245,-0.16519992053508759,10.046070098876953,1.9989013671875,-3.0517578125,-4.3182373046875
8.9899999,0.5099649429321289,-0.021547814831137657,9.832986831665039,7.6751708984375,-4.974365234375,2.6397705078125
9.0099999,0.5386953949928284,0.17717093229293823,9.737217903137207,5.279541015625,1.6937255859375,-4.4708251953125
9.0299999,0.5746083855628967,0.2585737705230713,9.586383819580078,1.64794921875,-1.4801025390625,-3.5552978515625
9.049999900000001,0.6009446382522583,0.3758896589279175,9.57201862335205,0.4425048828125,-1.3275146484375,-0.1678466796875
9.069999900000001,0.6248866319656372,0.4118026793003082,9.617507934570312,2.1209716796875,4.180908203125,5.218505859375
9.0899999,0.629675030708313,0.33518823981285095,9.6989107131958,2.38037109375,-0.06103515625,6.500244140625
9.1099999,0.6248866319656372,0.24899697303771973,9.77791976928711,-0.3662109375,-5.279541015625,-3.5247802734375
9.129999900000001,0.6200982332229614,0.17956513166427612,9.828198432922363,-4.9896240234375,-3.662109375,-7.9498291015625
9.149999900000001,0.6129156351089478,0.13168109953403473,9.847352027893066,0.152587890625,1.251220703125,3.1280517578125
9.1699999,0.6129156351089478,0.1412578970193863,9.816226959228516,-3.7689208984375,-0.4730224609375,3.143310546875
9.1899999,0.6033388376235962,0.181959331035614,9.799467086791992,-6.9732666015625,-1.4495849609375,-8.331298828125
9.209999900000001,0.5889736413955688,0.22026655077934265,9.768342971801758,-5.523681640625,0,-9.002685546875
9.229999900000001,0.5674257874488831,0.272938996553421,9.715670585632324,0.7781982421875,2.62451171875,1.495361328125
9.2499999,0.5506663918495178,0.35434186458587646,9.658209800720215,1.8157958984375,5.8746337890625,1.64794921875
9.2699999,0.545877993106842,0.3974374830722809,9.62947940826416,-1.953125,8.7890625,-5.126953125
9.2899999,0.5650315880775452,0.4572925269603729,9.639056205749512,-2.25830078125,9.4757080078125,-5.2337646484375
9.309999900000001,0.5937620401382446,0.524330198764801,9.679757118225098,-11.3983154296875,8.056640625,2.9296875
9.3299999,0.6200982332229614,0.5626373887062073,9.768342971801758,-15.8538818359375,8.60595703125,10.68115234375
9.3499999,0.6272808313369751,0.5602431893348694,9.840168952941895,-7.8582763671875,6.4697265625,8.3160400390625
9.3699999,0.6153098344802856,0.5195417404174805,9.890447616577148,-4.69970703125,5.0811767578125,5.615234375
9.389999900000001,0.586579442024231,0.4692635238170624,9.974244117736816,1.4495849609375,9.5062255859375,12.7716064453125
9.4099999,0.5554547905921936,0.3974374830722809,10.041281700134277,6.9427490234375,5.9051513671875,19.9127197265625
9.4299999,0.5219359993934631,0.29209262132644653,10.139444351196289,14.58740234375,0.91552734375,17.3797607421875
9.4499999,0.4884171485900879,0.22505496442317963,10.216058731079102,4.241943359375,-0.5035400390625,7.5836181640625
9.469999900000001,0.4620809257030487,0.1412578970193863,10.201693534851074,-1.983642578125,-2.5482177734375,11.1541748046875
9.4899999,0.44532153010368347,0.10534487664699554,10.199298858642578,2.3040771484375,2.50244140625,18.7835693359375
9.5099999,0.43335050344467163,0.10534487664699554,10.125079154968262,-4.730224609375,0.5340576171875,13.336181640625
9.5299999,0.4165911078453064,0.040701430290937424,10.041281700134277,-6.1798095703125,-4.08935546875,11.138916015625
9.549999900000001,0.40940847992897034,0.004788403399288654,10.017339706420898,1.617431640625,1.7547607421875,11.71875
9.569999900000001,0.3998316824436188,-0.040701430290937424,9.93354320526123,-7.171630859375,1.617431640625,14.0533447265625
9.5899999,0.3902548849582672,-0.1388636976480484,9.856928825378418,-20.721435546875,0.1373291015625,15.594482421875
9.6099999,0.3734954595565796,-0.3016694188117981,9.856928825378418,-14.923095703125,6.378173828125,11.3067626953125
9.629999900000001,0.3495534360408783,-0.49559974670410156,9.873687744140625,-1.3427734375,3.387451171875,3.326416015625
9.649999900000001,0.3256114423274994,-0.6536170840263367,9.890447616577148,-14.83154296875,-4.6539306640625,-2.593994140625
9.6699999,0.31603461503982544,-0.6607996821403503,9.916783332824707,-17.364501953125,-1.8463134765625,-4.0283203125
9.6899999,0.31364041566848755,-0.5530605912208557,9.880870819091797,-5.462646484375,2.9754638671875,1.373291015625
9.709999900000001,0.31842881441116333,-0.40701428055763245,9.861717224121094,0.3204345703125,4.0283203125,9.2315673828125
9.729999900000001,0.3232172429561615,-0.31364041566848755,9.876082420349121,2.960205078125,0.3814697265625,10.3759765625
9.7499999,0.33279404044151306,-0.2585737705230713,9.895236015319824,-8.026123046875,-4.21142578125,4.2266845703125
9.7699999,0.3495534360408783,-0.24660277366638184,9.923966407775879,-11.53564453125,0.30517578125,4.8370361328125
9.7899999,0.36152446269989014,-0.31842881441116333,9.888052940368652,2.7618408203125,0.8392333984375,14.83154296875
9.809999900000001,0.3711012601852417,-0.38307225704193115,9.816226959228516,-3.509521484375,-0.9765625,9.21630859375
9.8299999,0.3663128614425659,-0.47165772318840027,9.785101890563965,-19.2413330078125,3.570556640625,-1.0986328125
9.8499999,0.35434186458587646,-0.5793967843055725,9.785101890563965,-11.810302734375,4.730224609375,2.593994140625
9.8699999,0.3471592366695404,-0.6248866319656372,9.794678688049316,8.7890625,-2.50244140625,7.049560546875
9.889999900000001,0.3519476354122162,-0.5817909836769104,9.840168952941895,-0.06103515625,-1.3275146484375,0.67138671875
9.9099999,0.35673606395721436,-0.5434837937355042,9.835380554199219,-2.5482177734375,-0.67138671875,2.716064453125
9.9299999,0.3663128614425659,-0.4572925269603729,9.768342971801758,12.420654296875,-0.3662109375,8.9569091796875
9.9499999,0.37828385829925537,-0.272938996553421,9.746794700622559,15.9759521484375,6.40869140625,8.1787109375
9.969999900000001,0.3878606855869293,-0.1628057211637497,9.792284965515137,20.5078125,8.1329345703125,16.754150390625
9.9899999,0.3878606855869293,-0.11013327538967133,9.864110946655273,33.02001953125,-3.0059814453125,18.9971923828125
10.0099999,0.4141969084739685,-0.011971008032560349,9.988609313964844,19.8822021484375,-4.486083984375,2.0294189453125
10.0299999,0.45250412821769714,0.040701430290937424,10.031704902648926,-0.42724609375,0.1068115234375,1.4801025390625
10.049999900000001,0.5171475410461426,0.181959331035614,10.000580787658691,11.1236572265625,-1.46484375,12.9852294921875
10.069999900000001,0.5961562395095825,0.40222588181495667,9.995792388916016,11.90185546875,1.129150390625,14.6331787109375
10.0899999,0.6512228846549988,0.5099649429321289,9.99100399017334,8.1939697265625,0.030517578125,19.7906494140625
10.1099999,0.6584054827690125,0.5195417404174805,9.96945571899414,7.6141357421875,-5.5084228515625,19.500732421875
10.129999900000001,0.6248866319656372,0.5003881454467773,9.959878921508789,-0.18310546875,-0.091552734375,9.82666015625
10.149999900000001,0.5554547905921936,0.4596867263317108,9.938331604003906,4.3792724609375,5.0048828125,12.9547119140625
10.1699999,0.47165772318840027,0.4381389021873474,9.943120002746582,16.204833984375,2.2125244140625,24.6734619140625
10.1899999,0.395043283700943,0.395043283700943,9.971850395202637,2.3193359375,-1.800537109375,24.0020751953125
10.209999900000001,0.3280056416988373,0.3495534360408783,10.007762908935547,-11.0321044921875,-1.1444091796875,14.83154296875
10.229999900000001,0.2777273952960968,0.24660277366638184,9.967061996459961,-5.2642822265625,-0.1373291015625,16.5863037109375
10.2499999,0.24420857429504395,0.22026655077934265,9.895236015319824,6.77490234375,0.030517578125,19.5770263671875
10.2699999,0.2298433631658554,0.20350714027881622,9.830592155456543,6.2408447265625,-0.518798828125,20.20263671875
10.2899999,0.22744916379451752,0.19871874153614044,9.763554573059082,3.6773681640625,-3.5552978515625,18.98193359375
10.309999900000001,0.24420857429504395,0.2298433631658554,9.655815124511719,-4.8065185546875,-5.9051513671875,15.3656005859375
10.3299999,0.2585737705230713,0.26575639843940735,9.531316757202148,-5.8746337890625,1.2359619140625,18.98193359375
10.3499999,0.26336219906806946,0.2968810200691223,9.44991397857666,3.6773681640625,12.542724609375,25.665283203125
10.3699999,0.2561795711517334,0.2968810200691223,9.452308654785156,4.08935546875,11.9476318359375,24.871826171875
10.389999900000001,0.22505496442317963,0.19632454216480255,9.600749015808105,3.814697265625,6.28662109375,23.0712890625
10.4099999,0.1867477297782898,0.035913024097681046,9.775525093078613,0.8087158203125,1.983642578125,20.782470703125
10.4299999,0.14844051003456116,-0.11971008777618408,9.928754806518555,-6.3018798828125,2.9754638671875,16.0675048828125
10.4499999,0.11013327538967133,-0.2992752194404602,9.979032516479492,-3.3721923828125,3.5858154296875,16.41845703125
10.469999900000001,0.08858546614646912,-0.3926490843296051,9.967061996459961,-1.6021728515625,1.5411376953125,13.275146484375
10.4899999,0.07422025501728058,-0.45489832758903503,9.86889934539795,-4.150390625,-0.3814697265625,9.124755859375
10.5099999,0.07661445438861847,-0.4572925269603729,9.746794700622559,0.4425048828125,1.89208984375,8.48388671875
10.5299999,0.08379705995321274,-0.4381389021873474,9.636661529541016,-0.3509521484375,7.01904296875,8.7432861328125
10.549999900000001,0.09816227108240128,-0.4118026793003082,9.576807022094727,-3.3111572265625,6.744384765625,7.9193115234375
10.569999900000001,0.11013327538967133,-0.395043283700943,9.622296333312988,-7.26318359375,5.2490234375,3.8604736328125
10.5899999,0.11013327538967133,-0.42616790533065796,9.746794700622559,1.1444091796875,3.5858154296875,4.5318603515625
10.6099999,0.10534487664699554,-0.5147533416748047,9.909601211547852,4.608154296875,3.082275390625,4.2572021484375
10.629999900000001,0.10055647045373917,-0.5817909836769104,10.06043529510498,2.86865234375,1.6021728515625,-3.0975341796875
10.649999900000001,0.10773907601833344,-0.6153098344802856,10.158597946166992,-4.9285888671875,-0.9918212890625,-8.7127685546875
10.6699999,0.12689268589019775,-0.5817909836769104,10.180145263671875,-3.143310546875,-1.068115234375,-5.2947998046875
10.6899999,0.1604115068912506,-0.42856210470199585,10.139444351196289,-6.8511962890625,0.8544921875,-4.8980712890625
10.709999900000001,0.19393034279346466,-0.2513911724090576,10.029311180114746,-6.0882568359375,1.6326904296875,-5.18798828125
10.729999900000001,0.2298433631658554,-0.10534487664699554,9.971850395202637,0.3662109375,4.180908203125,-2.38037109375
10.7499999,0.26096799969673157,-0.023942016065120697,10.007762908935547,3.326416015625,5.1116943359375,-1.5716552734375
10.7699999,0.2849099934101105,0.021547814831137657,10.043676376342773,-4.7149658203125,-4.3487548828125,-6.7901611328125
10.7899999,0.304063618183136,0.08619125932455063,10.074800491333008,-7.99560546875,-6.0577392578125,-8.72802734375
10.809999900000001,0.31124621629714966,0.13168109953403473,10.077195167541504,-0.244140625,4.21142578125,2.0751953125
10.8299999,0.3016694188117981,0.10773907601833344,10.043676376342773,7.32421875,5.645751953125,9.765625
10.8499999,0.28730419278144836,0.011971008032560349,10.007762908935547,-1.556396484375,-3.0364990234375,0.274658203125
10.8699999,0.26575639843940735,-0.13168109953403473,9.981427192687988,-12.4359130859375,-6.1798095703125,-9.674072265625
10.889999900000001,0.2561795711517334,-0.19871874153614044,9.95748519897461,-4.1961669921875,0.4730224609375,-7.4462890625
10.9099999,0.24660277366638184,-0.15322890877723694,9.8784761428833,-0.3509521484375,-0.0457763671875,-0.9918212890625
10.9299999,0.24899697303771973,-0.0454898327589035,9.828198432922363,1.1749267578125,-2.044677734375,0.244140625
10.9499999,0.2585737705230713,0.10055647045373917,9.78989028930664,5.126953125,-0.2899169921875,-2.8533935546875
10.969999900000001,0.2825157940387726,0.22505496442317963,9.718064308166504,5.7373046875,1.7852783203125,0.8392333984375
10.9899999,0.31842881441116333,0.31124621629714966,9.718064308166504,7.3394775390625,6.9427490234375,9.429931640625
11.0099999,0.3495534360408783,0.33279404044151306,9.75397777557373,6.5155029296875,5.9051513671875,10.498046875
11.0299999,0.38067805767059326,0.33039984107017517,9.86650562286377,0.701904296875,0.91552734375,3.3111572265625
11.049999900000001,0.3926490843296051,0.3064578175544739,9.983820915222168,-3.5247802734375,0.457763671875,4.3487548828125
11.069999900000001,0.38546648621559143,0.2513911724090576,10.0580415725708,-0.2899169921875,2.3651123046875,13.73291015625
11.0899999,0.36152446269989014,0.20111294090747833,10.144232749938965,3.6163330078125,5.462646484375,13.2293701171875
11.1099999,0.3208230137825012,0.1149216815829277,10.163386344909668,-5.7830810546875,-0.091552734375,4.9896240234375
11.129999900000001,0.272938996553421,0.026336219161748886,10.158597946166992,-4.8675537109375,-6.5765380859375,4.69970703125
11.149999900000001,0.22505496442317963,-0.028730420395731926,10.127472877502441,3.41796875,-1.52587890625,8.23974609375
11.1699999,0.18914192914962769,-0.05027823522686958,10.005369186401367,1.373291015625,-1.495361328125,8.056640625
11.1899999,0.16759411990642548,-0.026336219161748886,9.854534149169922,-11.3067626953125,-3.8299560546875,3.1585693359375
11.209999900000001,0.16759411990642548,-0.019153613597154617,9.765948295593262,-8.0413818359375,-0.1068115234375,5.096435546875
11.229999900000001,0.17956513166427612,0.0071826050989329815,9.703699111938477,2.044677734375,-0.2899169921875,8.48388671875
11.2499999,0.2059013396501541,0.0933738648891449,9.634267807006836,-8.11767578125,-5.096435546875,3.6468505859375
11.2699999,0.22505496442317963,0.14365209639072418,9.600749015808105,-5.31005859375,-0.5340576171875,6.927490234375
11.2899999,0.24420857429504395,0.1412578970193863,9.619902610778809,7.965087890625,8.7738037109375,13.9617919921875
11.309999900000001,0.2561795711517334,0.17956513166427612,9.655815124511719,0.18310546875,3.326416015625,8.209228515625
11.3299999,0.26336219906806946,0.19153612852096558,9.710882186889648,-10.4827880859375,-2.8076171875,6.28662109375
11.3499999,0.24899697303771973,0.2059013396501541,9.737217903137207,-1.8463134765625,2.8533935546875,15.7012939453125
11.3699999,0.2298433631658554,0.22026655077934265,9.761159896850586,11.993408203125,11.2762451171875,20.233154296875
11.389999900000001,0.18914192914962769,0.13407529890537262,9.828198432922363,5.523681640625,9.4146728515625,18.4173583984375
11.4099999,0.14844051003456116,-0.031124621629714966,9.859322547912598,-7.9803466796875,-3.3721923828125,13.336181640625
11.4299999,0.1149216815829277,-0.1628057211637497,9.890447616577148,-6.53076171875,-1.40380859375,7.965087890625
11.4499999,0.08379705995321274,-0.24181437492370605,9.871294021606445,5.7373046875,10.6964111328125,11.9781494140625
11.469999900000001,0.06224924325942993,-0.27054479718208313,9.816226959228516,5.523681640625,9.3994140625,17.852783203125
11.4899999,0.05985504388809204,-0.2585737705230713,9.888052940368652,-0.4425048828125,5.0048828125,13.9617919921875
11.5099999,0.08140286058187485,-0.2082955539226532,9.916783332824707,-5.92041015625,-1.953125,6.6070556640625
11.5299999,0.12449848651885986,-0.08619125932455063,9.938331604003906,-2.9296875,1.8310546875,9.185791015625
11.549999900000001,0.17717093229293823,0.05985504388809204,9.95748519897461,6.04248046875,12.6800537109375,20.1568603515625
11.569999900000001,0.22266076505184174,0.2298433631658554,9.926360130310059,4.547119140625,6.011962890625,21.1639404296875
11.5899999,0.2561795711517334,0.3878606855869293,9.943120002746582,-7.3699951171875,2.0751953125,15.045166015625
11.6099999,0.26575639843940735,0.47165772318840027,9.950302124023438,-4.547119140625,7.415771484375,22.2015380859375
11.629999900000001,0.24899697303771973,0.5171475410461426,9.923966407775879,5.92041015625,9.796142578125,32.3638916015625
11.649999900000001,0.19632454216480255,0.5027823448181152,9.926360130310059,6.927490234375,7.62939453125,31.2347412109375
11.6699999,0.12928688526153564,0.40940847992897034,9.955090522766113,3.2806396484375,3.692626953125,27.89306640625
11.6899999,0.047884032130241394,0.28730419278144836,9.971850395202637,0.6256103515625,1.9989013671875,29.3426513671875
11.709999900000001,-0.023942016065120697,0.2059013396501541,9.943120002746582,1.4495849609375,4.638671875,31.5704345703125
11.729999900000001,-0.08379705995321274,0.16998831927776337,9.907206535339355,5.9967041015625,8.880615234375,33.0352783203125
11.7499999,-0.13407529890537262,0.14844051003456116,9.921571731567383,16.3726806640625,9.3536376953125,35.369873046875
11.7699999,-0.16759411990642548,0.22026655077934265,10.036493301391602,13.8397216796875,3.875732421875,32.0281982421875
11.7899999,-0.17717093229293823,0.3974374830722809,10.163386344909668,6.011962890625,-5.401611328125,31.7840576171875
11.809999900000001,-0.19153612852096558,0.667982280254364,10.235212326049805,15.4876708984375,-7.8887939453125,43.8385009765625
11.8299999,-0.18914192914962769,0.8978256583213806,10.201693534851074,35.7513427734375,-3.0059814453125,57.403564453125
11.8499999,-0.14844051003456116,1.1204863786697388,10.15141487121582,44.61669921875,4.852294921875,55.908203125
11.8699999,-0.07900865375995636,1.3192051649093628,10.04846477508545,11.0626220703125,4.1961669921875,51.483154296875
11.889999900000001,-0.002394201699644327,1.3982137441635132,9.940725326538086,-4.1351318359375,2.0294189453125,67.169189453125
11.9099999,0.10295066982507706,1.50355863571167,9.890447616577148,17.7764892578125,10.07080078125,76.7059326171875
11.9299999,0.14604631066322327,1.525106430053711,9.765948295593262,15.9912109375,5.950927734375,76.2786865234375
11.9499999,0.15322890877723694,1.3215993642807007,9.610325813293457,26.9927978515625,3.4332275390625,87.8143310546875
11.969999900000001,0.1149216815829277,1.091755986213684,9.528923034667969,23.9105224609375,17.63916015625,87.9058837890625
11.9899999,0.06224924325942993,0.9002198576927185,9.457097053527832,2.1514892578125,22.52197265625,79.3914794921875
12.0099999,-0.028730420395731926,0.6847416758537292,9.461885452270508,-10.7421875,17.425537109375,88.7451171875
12.0299999,-0.13407529890537262,0.5099649429321289,9.619902610778809,-6.927490234375,21.209716796875,97.7020263671875
12.049999900000001,-0.26815059781074524,0.2561795711517334,9.828198432922363,-4.1351318359375,19.134521484375,90.0726318359375
12.069999900000001,-0.3974374830722809,-0.040701430290937424,9.974244117736816,-9.5672607421875,10.5743408203125,76.263427734375
12.0899999,-0.47644615173339844,-0.22026655077934265,10.046070098876953,-12.1612548828125,12.115478515625,69.3206787109375
12.1099999,-0.4812345504760742,-0.22266076505184174,9.983820915222168,-2.13623046875,15.8538818359375,79.2388916015625
12.129999900000001,-0.4165911078453064,-0.07661445438861847,9.907206535339355,-0.946044921875,18.829345703125,90.606689453125
12.149999900000001,-0.35913026332855225,0.05985504388809204,9.909601211547852,-11.7645263671875,20.0347900390625,97.412109375
12.1699999,-0.3064578175544739,-0.09816227108240128,9.90241813659668,-9.8114013671875,8.4381103515625,98.968505859375
12.1899999,-0.2777273952960968,-0.40462008118629456,10.067618370056152,6.9427490234375,9.735107421875,91.9036865234375
12.209999900000001,-0.2849099934101105,-0.7613561153411865,10.371682167053223,-9.94873046875,18.4173583984375,79.803466796875
12.229999900000001,-0.363918662071228,-0.9840168952941895,10.663774490356445,-25.543212890625,-1.52587890625,84.6710205078125
12.2499999,-0.545877993106842,-0.9576807022094727,10.867281913757324,-36.834716796875,-16.4947509765625,90.8660888671875
12.2699999,-0.8738836050033569,-0.8427590131759644,10.989385604858398,-28.86962890625,6.77490234375,96.8780517578125
12.289999900000002,-1.403002142906189,-0.8834604024887085,11.05642318725586,-2.5787353515625,24.4293212890625,104.3853759765625
12.309999900000001,-2.164358377456665,-1.4652514457702637,10.896012306213379,18.5394287109375,-12.4664306640625,95.489501953125
12.3299999,-3.0406360626220703,-2.4588451385498047,10.508151054382324,11.7034912109375,-33.0810546875,51.116943359375
12.3499999,-3.861847400665283,-3.318363666534424,10.098742485046387,-41.50390625,16.387939453125,-23.223876953125
12.3699999,-4.527435302734375,-3.845088005065918,9.782708168029785,-29.327392578125,45.5474853515625,-49.7283935546875
12.389999900000001,-4.888959884643555,-3.7660791873931885,9.919178009033203,40.557861328125,9.7808837890625,-39.5355224609375
12.4099999,-5.118803024291992,-3.1196448802948,10.398017883300781,27.6336669921875,-35.5987548828125,-72.75390625
12.4299999,-5.353435039520264,-2.4875755310058594,10.706870079040527,23.406982421875,-45.1507568359375,-105.8197021484375
12.4499999,-5.612008571624756,-2.0661959648132324,10.706870079040527,55.84716796875,-18.8446044921875,-109.7412109375
12.469999900000001,-5.913678169250488,-1.623268723487854,10.596736907958984,64.6514892578125,-3.3416748046875,-143.1427001953125
12.4899999,-6.19379997253418,-1.2689268589019775,10.441113471984863,49.041748046875,-39.7186279296875,-165.4052734375
12.5099999,-6.3949127197265625,-0.9074024558067322,10.57040023803711,33.5540771484375,-61.7828369140625,-159.4085693359375
12.5299999,-6.555324077606201,-0.5770025849342346,10.807426452636719,30.2734375,-61.9659423828125,-162.1551513671875
12.549999900000001,-6.703764915466309,-0.37828385829925537,10.778696060180664,0.9002685546875,-85.6170654296875,-188.4307861328125
12.569999900000001,-6.825869083404541,-0.23942017555236816,10.63504409790039,-27.16064453125,-86.0443115234375,-220.550537109375
12.5899999,-6.9240312576293945,-0.0071826050989329815,10.393229484558105,-36.468505859375,-56.7779541015625,-237.3504638671875
12.6099999,-6.947973251342773,0.2298433631658554,10.383652687072754,-43.548583984375,-38.75732421875,-234.039306640625
12.629999900000001,-6.897695064544678,0.6536170840263367,10.625467300415039,-56.3201904296875,-59.1888427734375,-245.147705078125
12.649999900000001,-6.773196697235107,1.0893617868423462,10.927136421203613,-97.3968505859375,-92.529296875,-258.0108642578125
12.6699999,-6.617573261260986,1.4245500564575195,11.250353813171387,-64.605712890625,-72.20458984375,-244.049072265625
12.6899999,-6.50025749206543,1.5945383310317993,11.274295806884766,-17.08984375,-51.8646240234375,-239.013671875
12.709999900000001,-6.471527099609375,1.5634137392044067,11.022904396057129,-34.759521484375,-71.35009765625,-271.30126953125
12.729999900000001,-6.5265936851501465,1.6304513216018677,10.699687004089355,-84.2742919921875,-70.6634521484375,-313.4613037109375
12.7499999,-6.596025466918945,1.9608511924743652,10.307038307189941,-85.418701171875,-53.436279296875,-311.798095703125
12.7699999,-6.5696892738342285,2.607285737991333,9.888052940368652,-49.4842529296875,-44.8150634765625,-283.2794189453125
12.789999900000002,-6.327875137329102,3.529053211212158,9.519346237182617,-67.9168701171875,-48.5382080078125,-284.881591796875
12.809999900000001,-5.899312973022461,4.290409564971924,9.35893440246582,-131.3018798828125,-21.1944580078125,-293.1671142578125
12.8299999,-5.410895824432373,4.577713489532471,9.583989143371582,-131.988525390625,28.4271240234375,-263.9923095703125
12.8499999,-4.934449672698975,4.630385875701904,10.065223693847656,-85.1287841796875,28.4576416015625,-259.8419189453125
12.8699999,-4.563348293304443,4.4723687171936035,10.60152530670166,-81.0699462890625,-15.5181884765625,-278.7628173828125
12.889999900000001,-4.376600742340088,4.206612586975098,11.224017143249512,-53.2073974609375,-6.89697265625,-253.173828125
12.9099999,-4.414907932281494,3.4596214294433594,11.621455192565918,21.54541015625,8.8653564453125,-201.0650634765625
12.9299999,-4.592078685760498,2.8347349166870117,11.985373497009277,12.14599609375,-14.2364501953125,-250.3509521484375
12.9499999,-4.81473970413208,2.3726539611816406,11.889605522155762,-89.0350341796875,-77.2247314453125,-337.860107421875
12.969999900000001,-4.884171485900879,2.2697031497955322,11.257535934448242,-70.1446533203125,-80.8868408203125,-310.546875
12.9899999,-4.6255974769592285,3.136404275894165,10.522516250610352,44.189453125,2.3345947265625,-252.2430419921875
13.0099999,-3.9600095748901367,5.080495834350586,9.378087997436523,-41.68701171875,-26.4129638671875,-262.2833251953125
13.0299999,-2.913743495941162,7.438784599304199,8.339004516601562,-147.64404296875,-77.63671875,-222.5494384765625
13.049999900000001,-1.6089035272598267,9.344569206237793,7.438784599304199,43.9605712890625,-13.671875,-81.7108154296875
13.069999900000001,-0.14365209639072418,10.8505220413208,6.701370716094971,102.0050048828125,40.6341552734375,-58.5174560546875
13.0899999,1.216254472732544,11.492168426513672,6.0405707359313965,-37.8265380859375,0.6561279296875,-107.8338623046875
13.1099999,2.2673089504241943,10.896012306213379,5.899312973022461,-20.660400390625,-2.777099609375,-31.341552734375
13.129999900000001,2.9759926795959473,9.974244117736816,6.691793918609619,69.9005126953125,74.7528076171875,23.86474609375
13.149999900000001,3.3662476539611816,8.585607528686523,7.972691535949707,40.496826171875,64.3463134765625,-12.0697021484375
13.1699999,3.5218706130981445,6.957550048828125,9.437943458557129,-33.2183837890625,-22.2930908203125,-27.52685546875
13.1899999,3.550601005554199,5.339069843292236,10.788272857666016,-10.589599609375,-26.1688232421875,9.09423828125
13.209999900000001,3.4979286193847656,4.094084739685059,11.267112731933594,48.5687255859375,3.1585693359375,17.6849365234375
13.229999900000001,3.404554843902588,3.268085241317749,10.896012306213379,28.9154052734375,-9.27734375,-22.186279296875
13.2499999,3.3207578659057617,2.8419175148010254,10.15141487121582,0.9918212890625,-17.6849365234375,-25.5889892578125
13.2699999,3.222595453262329,2.7916390895843506,9.361329078674316,23.4527587890625,2.8533935546875,10.345458984375
13.289999900000002,3.1028854846954346,2.9951462745666504,8.707711219787598,50.9185791015625,15.960693359375,18.0511474609375
13.309999900000001,2.9544448852539062,3.093308687210083,8.47786808013916,41.259765625,16.3726806640625,1.9683837890625
13.3299999,2.7700912952423096,2.935291290283203,8.398859977722168,13.946533203125,-1.6937255859375,1.7242431640625
13.3499999,2.6360161304473877,2.7772738933563232,8.592789649963379,14.1754150390625,5.950927734375,4.2572021484375
13.3699999,2.535459518432617,2.6431987285614014,8.796297073364258,29.60205078125,19.10400390625,6.16455078125
13.389999900000001,2.4444799423217773,2.542642116546631,8.927978515625,2.471923828125,10.2691650390625,7.293701171875
13.4099999,2.360682964324951,2.456450939178467,9.136273384094238,-12.8631591796875,9.9029541015625,11.5509033203125
13.4299999,2.2457611560821533,2.279279947280884,9.30386734008789,4.302978515625,12.939453125,15.1214599609375
13.4499999,2.1571757793426514,2.169146776199341,9.430760383605957,1.3580322265625,10.68115234375,7.01904296875
13.469999900000001,2.0829553604125977,1.9943699836730957,9.445125579833984,-7.9193115234375,2.6702880859375,8.11767578125
13.4899999,2.049436569213867,1.8291701078414917,9.464279174804688,-4.7760009765625,7.232666015625,18.12744140625
13.5099999,2.0422539710998535,1.6950948238372803,9.406818389892578,2.1820068359375,12.1002197265625,13.4124755859375
13.5299999,2.0374655723571777,1.5466543436050415,9.332598686218262,-8.270263671875,8.4228515625,6.927490234375
13.549999900000001,2.0446481704711914,1.4101848602294922,9.368511199951172,-11.322021484375,10.9710693359375,11.3525390625
13.569999900000001,2.051830768585205,1.400607943534851,9.38048267364502,-12.6800537109375,7.3699951171875,15.3961181640625
13.5899999,2.056619167327881,1.4173674583435059,9.423578262329102,-13.8702392578125,6.927490234375,17.5323486328125
13.6099999,2.03507137298584,1.335964560508728,9.521739959716797,-6.3323974609375,13.702392578125,23.9410400390625
13.629999900000001,1.9800047874450684,1.0893617868423462,9.75637149810791,9.368896484375,14.4195556640625,22.0489501953125
13.649999900000001,1.9105730056762695,0.9002198576927185,10.000580787658691,5.79833984375,-2.410888671875,2.6092529296875
13.6699999,1.8507179021835327,0.8930372595787048,10.089165687561035,-12.664794921875,-16.357421875,-6.3018798828125
13.6899999,1.8076223134994507,1.015141487121582,10.014945983886719,6.378173828125,0.4119873046875,16.3726806640625
13.709999900000001,1.8076223134994507,1.2066776752471924,9.758766174316406,22.2015380859375,15.1824951171875,27.8472900390625
13.729999900000001,1.8315643072128296,1.3623007535934448,9.548076629638672,5.8746337890625,9.0789794921875,10.6353759765625
13.7499999,1.8818424940109253,1.3551181554794312,9.411606788635254,-9.70458984375,-2.74658203125,7.110595703125
13.7699999,1.9297266006469727,1.2521674633026123,9.361329078674316,1.3885498046875,1.9073486328125,22.2320556640625
13.789999900000002,1.9393033981323242,1.115697979927063,9.349357604980469,18.798828125,12.4969482421875,22.3541259765625
13.809999900000001,1.889025092124939,0.933738648891449,9.423578262329102,20.6146240234375,10.345458984375,7.598876953125
13.8299999,1.802833914756775,0.8834604024887085,9.543288230895996,-2.7313232421875,-0.5950927734375,-3.082275390625
13.8499999,1.7070658206939697,0.9840168952941895,9.691728591918945,-10.9710693359375,0.457763671875,5.43212890625
13.8699999,1.647210717201233,1.2018892765045166,9.742006301879883,6.9427490234375,6.34765625,17.1356201171875
13.889999900000001,1.5921441316604614,1.45806884765625,9.768342971801758,7.9498291015625,7.6904296875,10.80322265625
13.9099999,1.5490485429763794,1.558625340461731,9.761159896850586,1.129150390625,-0.0457763671875,9.552001953125
13.9299999,1.5155296325683594,1.7262194156646729,9.81143856048584,-10.498046875,-4.2266845703125,8.697509765625
13.9499999,1.4772224426269531,1.7908629179000854,9.813833236694336,-11.1846923828125,-4.1351318359375,16.0980224609375
13.969999900000001,1.434126853942871,1.8626888990402222,9.825803756713867,7.4462890625,-1.6021728515625,19.378662109375
13.9899999,1.37906014919281,1.9632453918457031,9.782708168029785,-1.617431640625,-4.852294921875,9.765625
14.0099999,1.3287819623947144,2.0829553604125977,9.646238327026367,-11.962890625,-12.847900390625,14.007568359375
14.0299999,1.3120225667953491,2.3247697353363037,9.528923034667969,9.7503662109375,-6.04248046875,28.350830078125
14.049999900000001,1.3096283674240112,2.5546131134033203,9.334992408752441,11.71875,-0.0457763671875,39.4439697265625
14.069999900000001,1.3072341680526733,2.650381326675415,9.253589630126953,1.5411376953125,3.23486328125,46.2799072265625
14.0899999,1.2952631711959839,2.535459518432617,9.227252960205078,-1.2664794921875,3.1890869140625,47.4395751953125
14.1099999,1.256955862045288,2.427720546722412,9.208099365234375,9.0484619140625,-0.1373291015625,39.4744873046875
14.129999900000001,1.235408067703247,2.497152328491211,9.0859956741333,5.9967041015625,-0.518798828125,39.73388671875
14.149999900000001,1.1899182796478271,2.5474305152893066,8.987833023071289,10.6201171875,9.307861328125,72.1282958984375
14.1699999,1.0989385843276978,2.477998733520508,9.069235801696777,44.4793701171875,19.7601318359375,92.9412841796875
14.1899999,0.9552865028381348,2.2649147510528564,9.425971984863281,64.7430419921875,12.8173828125,71.1822509765625
14.209999900000001,0.8379706144332886,2.0398597717285156,9.938331604003906,50.048828125,-8.4228515625,53.0242919921875
14.229999900000001,0.828393816947937,2.252943754196167,10.211270332336426,7.87353515625,-27.740478515625,56.7169189453125
14.2499999,0.9097966551780701,2.8826189041137695,10.134655952453613,-5.6610107421875,-14.3890380859375,91.12548828125
14.2699999,1.0414776802062988,3.555389642715454,9.799467086791992,15.13671875,14.4805908203125,133.3465576171875
14.289999900000002,1.1755530834197998,3.8786067962646484,9.526528358459473,13.671875,16.357421875,140.9149169921875
14.309999900000001,1.3646949529647827,3.663128614425659,9.442731857299805,0.6561279296875,-3.631591796875,121.551513671875
14.3299999,1.5825673341751099,3.07415509223938,9.466673851013184,-9.1705322265625,-8.392333984375,100.250244140625
14.3499999,1.8507179021835327,2.4181437492370605,9.452308654785156,-5.79833984375,9.9029541015625,96.13037109375
14.3699999,2.169146776199341,1.9249382019042969,9.232041358947754,11.4898681640625,17.08984375,91.4459228515625
14.389999900000001,2.425326347351074,1.8124107122421265,8.96389102935791,18.85986328125,19.6075439453125,77.1026611328125
14.4099999,2.6168625354766846,2.027888774871826,8.71489429473877,-8.1787109375,26.8096923828125,88.623046875
14.4299999,2.7222073078155518,2.4420857429504395,8.611943244934082,-16.0980224609375,33.9508056640625,116.6229248046875
14.4499999,2.7222073078155518,2.784456491470337,8.645462036132812,2.3651123046875,32.0892333984375,127.7008056640625
14.469999900000001,2.655169725418091,2.7772738933563232,8.892065048217773,10.43701171875,30.1513671875,128.4027099609375
14.4899999,2.5522189140319824,2.3511061668395996,9.229647636413574,-1.0223388671875,28.289794921875,127.1209716796875
14.5099999,2.470816135406494,1.7190368175506592,9.521739959716797,-15.2130126953125,17.333984375,117.1875
14.5299999,2.3918075561523438,1.2545616626739502,9.715670585632324,-24.261474609375,12.6190185546875,103.4088134765625
14.549999900000001,2.3032219409942627,1.01753568649292,9.643844604492188,-6.9427490234375,10.6964111328125,112.7166748046875
14.569999900000001,2.2170307636260986,1.0127472877502441,9.478644371032715,9.5367431640625,16.78466796875,133.7127685546875
14.5899999,2.0901381969451904,1.0103530883789062,9.346963882446289,-6.2255859375,27.8167724609375,140.6402587890625
14.6099999,1.8938134908676147,0.6871358752250671,9.39245319366455,-11.8560791015625,27.099609375,139.068603515625
14.629999900000001,1.6711528301239014,0.2298433631658554,9.634267807006836,6.988525390625,17.791748046875,122.6806640625
14.649999900000001,1.4077905416488647,-0.2106897532939911,9.849745750427246,-11.5814208984375,2.899169921875,106.4300537109375
14.6699999,1.1324573755264282,-0.5506663918495178,9.928754806518555,-3.7994384765625,0.67138671875,117.523193359375
14.6899999,0.8595184087753296,-0.6871358752250671,9.998186111450195,31.0516357421875,18.37158203125,128.0670166015625
14.709999900000001,0.5722141861915588,-0.8212111592292786,10.072406768798828,38.2537841796875,19.8974609375,125.18310546875
14.729999900000001,0.30885201692581177,-0.9600749015808105,10.137049674987793,11.474609375,-5.2642822265625,112.823486328125
14.7499999,0.07900865375995636,-1.0079588890075684,10.11550235748291,-6.378173828125,-10.92529296875,101.4404296875
14.7699999,-0.12449848651885986,-0.9528923034667969,9.926360130310059,12.908935546875,8.6822509765625,108.0322265625
14.789999900000002,-0.3232172429561615,-0.8427590131759644,9.660603523254395,39.276123046875,22.3388671875,121.4447021484375
14.809999900000001,-0.5530605912208557,-0.871489405632019,9.612719535827637,46.1578369140625,20.1263427734375,123.1842041015625
14.8299999,-0.7254431247711182,-0.9840168952941895,9.80904483795166,44.525146484375,9.8419189453125,105.5755615234375
14.8499999,-0.8523358106613159,-0.9911994934082031,10.065223693847656,28.2745361328125,-1.9683837890625,80.1849365234375
14.8699999,-0.871489405632019,-0.9169792532920837,10.216058731079102,40.1153564453125,-0.457763671875,94.8638916015625
14.889999900000001,-0.7948749661445618,-0.5985504388809204,10.24239444732666,54.87060546875,14.1754150390625,107.635498046875
14.9099999,-0.6847416758537292,-0.21308395266532898,10.177751541137695,37.1551513671875,18.2342529296875,100.982666015625
14.9299999,-0.5674257874488831,0.07182604819536209,10.187328338623047,17.5628662109375,12.176513671875,98.4039306640625
14.9499999,-0.4596867263317108,0.181959331035614,10.357316970825195,25.2838134765625,7.14111328125,106.1248779296875
14.969999900000001,-0.3663128614425659,0.12449848651885986,10.51054573059082,34.393310546875,-1.4495849609375,99.3499755859375
14.9899999,-0.3064578175544739,-0.011971008032560349,10.620678901672363,27.008056640625,-2.5482177734375,78.3538818359375
15.0099999,-0.26096799969673157,-0.20111294090747833,10.606313705444336,22.705078125,5.6610107421875,76.8280029296875
15.0299999,-0.23942017555236816,-0.2322375625371933,10.60152530670166,22.88818359375,15.228271484375,82.1075439453125
15.049999900000001,-0.2322375625371933,-0.19393034279346466,10.615890502929688,17.8985595703125,8.85009765625,82.9010009765625
15.069999900000001,-0.22026655077934265,-0.2585737705230713,10.668562889099121,12.3291015625,-4.7454833984375,85.8917236328125
15.0899999,-0.17477671802043915,-0.43095630407333374,10.596736907958984,-4.33349609375,-9.765625,74.4476318359375
15.1099999,-0.090979665517807,-0.7134721279144287,10.299856185913086,-10.6964111328125,-7.14111328125,54.5501708984375
15.129999900000001,0.06703764945268631,-0.9313444495201111,9.904812812805176,-3.204345703125,5.79833984375,44.952392578125
15.149999900000001,0.2585737705230713,-0.993593692779541,9.442731857299805,-0.8392333984375,8.5906982421875,48.2330322265625
15.1699999,0.4572925269603729,-0.8882488012313843,9.107542991638184,-9.552001953125,9.4146728515625,51.5594482421875
15.1899999,0.6153098344802856,-0.7852981686592102,8.96149730682373,-6.9427490234375,18.0206298828125,53.22265625
15.209999900000001,0.7015010714530945,-0.7613561153411865,9.033323287963867,2.838134765625,22.9339599609375,45.95947265625
15.229999900000001,0.727837324142456,-0.8403648138046265,9.282320022583008,-10.4827880859375,18.280029296875,34.942626953125
15.2499999,0.6967126727104187,-0.9576807022094727,9.57201862335205,-23.6968994140625,10.009765625,28.8848876953125
15.2699999,0.6392518281936646,-0.9624691009521484,9.840168952941895,-16.571044921875,12.6495361328125,24.8870849609375
15.289999900000002,0.5554547905921936,-0.8667010068893433,10.053253173828125,-5.37109375,18.6004638671875,25.360107421875
15.309999900000001,0.47644615173339844,-0.7182605266571045,10.163386344909668,12.542724609375,6.9122314453125,29.388427734375
15.3299999,0.4189853072166443,-0.5219359993934631,10.251971244812012,6.011962890625,-0.030517578125,23.0255126953125
15.3499999,0.3878606855869293,-0.31842881441116333,10.266336441040039,-4.730224609375,3.47900390625,19.8211669921875
15.3699999,0.38067805767059326,-0.17238251864910126,10.182539939880371,3.2196044921875,5.4779052734375,28.01513671875
15.389999900000001,0.38067805767059326,-0.10055647045373917,10.199298858642578,20.4620361328125,10.498046875,34.1796875
15.4099999,0.3758896589279175,-0.14604631066322327,10.295066833496094,11.16943359375,6.9122314453125,27.83203125
15.4299999,0.3711012601852417,-0.3256114423274994,10.398017883300781,0.1373291015625,-7.50732421875,20.2789306640625
15.4499999,0.3878606855869293,-0.40701428055763245,10.436325073242188,-0.18310546875,-9.9639892578125,14.5721435546875
15.469999900000001,0.4189853072166443,-0.3878606855869293,10.350133895874023,8.087158203125,-1.2969970703125,19.3328857421875
15.4899999,0.4644751250743866,-0.35673606395721436,10.132261276245117,18.8751220703125,2.044677734375,28.8543701171875
15.5099999,0.5099649429321289,-0.29209262132644653,9.96945571899414,7.2174072265625,3.753662109375,22.8271484375
15.5299999,0.5386953949928284,-0.3232172429561615,9.880870819091797,-8.453369140625,3.7689208984375,13.153076171875
15.549999900000001,0.5434837937355042,-0.40701428055763245,9.835380554199219,4.4708251953125,-2.288818359375,11.993408203125
15.569999900000001,0.5386953949928284,-0.43095630407333374,9.931148529052734,14.0838623046875,1.3427734375,8.5601806640625
15.5899999,0.5123591423034668,-0.42856210470199585,9.998186111450195,9.4757080078125,0.091552734375,7.3089599609375
15.6099999,0.49559974670410156,-0.3926490843296051,10.0580415725708,1.953125,-2.655029296875,7.7667236328125
15.629999900000001,0.49559974670410156,-0.2849099934101105,10.163386344909668,2.166748046875,5.8135986328125,6.0882568359375
15.649999900000001,0.5099649429321289,-0.19153612852096558,10.192116737365723,4.2572021484375,1.3580322265625,5.2032470703125
15.6699999,0.5482721924781799,-0.1364694982767105,10.146626472473145,4.69970703125,-11.260986328125,3.631591796875
15.6899999,0.5985504388809204,-0.05746084079146385,10.050858497619629,-1.6632080078125,-8.819580078125,-3.0670166015625
15.709999900000001,0.6488286852836609,0.0071826050989329815,9.804255485534668,-6.28662109375,-3.1890869140625,-2.8839111328125
15.729999900000001,0.6943184733390808,0.1149216815829277,9.610325813293457,0.579833984375,2.899169921875,3.0670166015625
15.7499999,0.7350199222564697,0.1867477297782898,9.466673851013184,11.0931396484375,2.777099609375,4.6234130859375
15.7699999,0.7541735172271729,0.2561795711517334,9.44991397857666,0.396728515625,-0.1678466796875,-1.89208984375
15.789999900000002,0.7733271718025208,0.2968810200691223,9.50498104095459,-5.126953125,1.861572265625,-2.7618408203125
15.809999900000001,0.7805097699165344,0.3902548849582672,9.59596061706543,-1.434326171875,3.5400390625,1.0833740234375
15.8299999,0.7876923680305481,0.4381389021873474,9.636661529541016,9.1400146484375,0.79345703125,8.7127685546875
15.8499999,0.7924807667732239,0.5027823448181152,9.75397777557373,13.214111328125,4.94384765625,4.8675537109375
15.869999900000002,0.7972691655158997,0.4405331015586853,9.739612579345703,3.8604736328125,0.3509521484375,1.89208984375
15.889999900000001,0.8068459630012512,0.40462008118629456,9.792284965515137,2.86865234375,1.6632080078125,1.6937255859375
15.9099999,0.8068459630012512,0.3734954595565796,9.804255485534668,0.18310546875,5.9051513671875,3.1585693359375
15.9299999,0.8164227604866028,0.304063618183136,9.821015357971191,10.6353759765625,2.349853515625,9.246826171875
15.9499999,0.8140285611152649,0.2801215946674347,9.928754806518555,6.2103271484375,5.1116943359375,2.410888671875
15.969999900000001,0.8212111592292786,0.24420857429504395,9.938331604003906,-0.8087158203125,-2.7313232421875,-0.8697509765625
15.9899999,0.8236053586006165,0.2992752194404602,10.002974510192871,-0.6256103515625,0.457763671875,0.6561279296875
16.0099999,0.8259995579719543,0.363918662071228,9.974244117736816,5.2337646484375,1.739501953125,7.0037841796875
16.0299999,0.8092401623725891,0.4118026793003082,9.99339771270752,1.312255859375,3.326416015625,6.3323974609375
16.0499999,0.7852981686592102,0.3902548849582672,9.96945571899414,-6.4544677734375,-1.800537109375,0.091552734375
16.0699999,0.7637503147125244,0.3998316824436188,9.931148529052734,-8.087158203125,-4.3487548828125,-6.2408447265625
16.089999900000002,0.7445967197418213,0.42856210470199585,9.84495735168457,-1.2664794921875,0.4119873046875,-0.335693359375
16.109999900000002,0.7398083209991455,0.4572925269603729,9.739612579345703,9.0484619140625,3.814697265625,7.720947265625
16.1299999,0.7374141216278076,0.4836287498474121,9.667786598205566,-1.4190673828125,2.8228759765625,0.9002685546875
16.1499999,0.7350199222564697,0.4429273009300232,9.66539192199707,-10.040283203125,2.3040771484375,-4.0283203125
16.1699999,0.7374141216278076,0.33518823981285095,9.696516990661621,2.6702880859375,1.495361328125,2.7008056640625
16.1899999,0.7445967197418213,0.24181437492370605,9.751583099365234,8.697509765625,3.0364990234375,3.692626953125
16.2099999,0.7493851184844971,0.1388636976480484,9.801861763000488,2.471923828125,2.9144287109375,-0.6561279296875
16.2299999,0.751779317855835,0.05027823522686958,9.880870819091797,1.556396484375,2.9296875,-1.953125
16.249999900000002,0.7493851184844971,0.0071826050989329815,9.921571731567383,1.5716552734375,-0.0457763671875,-2.0294189453125
16.269999900000002,0.7374141216278076,0.05985504388809204,9.926360130310059,0.7171630859375,-2.2430419921875,-4.608154296875
16.2899999,0.7350199222564697,0.17477671802043915,9.911994934082031,-0.4730224609375,3.2501220703125,-4.119873046875
16.3099999,0.730231523513794,0.28969839215278625,9.885659217834473,2.44140625,5.4779052734375,1.9683837890625
16.3299999,0.727837324142456,0.3926490843296051,9.90241813659668,3.0975341796875,2.410888671875,1.7242431640625
16.3499999,0.7254431247711182,0.4812345504760742,9.967061996459961,-4.33349609375,-0.8087158203125,-4.3182373046875
16.3699999,0.7206547260284424,0.49320554733276367,9.971850395202637,-5.5084228515625,-3.6163330078125,-1.6326904296875
16.3899999,0.7182605266571045,0.5099649429321289,9.940725326538086,-3.0364990234375,0.7781982421875,1.220703125
16.4099999,0.7254431247711182,0.5003881454467773,9.840168952941895,-3.7384033203125,3.8299560546875,-0.152587890625
16.429999900000002,0.727837324142456,0.4668693244457245,9.744400978088379,-1.89208984375,2.532958984375,-0.946044921875
16.4499999,0.7350199222564697,0.4429273009300232,9.718064308166504,-2.7923583984375,3.0059814453125,-0.701904296875
16.4699999,0.730231523513794,0.40222588181495667,9.734824180603027,-5.5084228515625,2.9754638671875,2.349853515625
16.4899999,0.7158663272857666,0.35434186458587646,9.75397777557373,-5.55419921875,1.312255859375,2.0904541015625
16.5099999,0.6943184733390808,0.31364041566848755,9.765948295593262,-6.6375732421875,3.72314453125,-2.1209716796875
16.5299999,0.6751648783683777,0.21787235140800476,9.78989028930664,-0.457763671875,6.805419921875,0.9765625
16.5499999,0.6560112833976746,0.12449848651885986,9.818621635437012,4.8828125,5.0811767578125,0.701904296875
16.5699999,0.646434485912323,0.05985504388809204,9.914389610290527,-0.06103515625,3.7994384765625,-6.561279296875
16.589999900000002,0.6512228846549988,0.05506663769483566,10.022128105163574,0.9002685546875,2.6397705078125,-8.148193359375
16.609999900000002,0.6512228846549988,0.1628057211637497,10.065223693847656,-0.4425048828125,-0.79345703125,-4.730224609375
16.6299999,0.6655880808830261,0.29209262132644653,10.072406768798828,3.4942626953125,0.762939453125,2.6092529296875
16.6499999,0.6799532771110535,0.38546648621559143,10.034099578857422,5.8746337890625,2.6092529296875,4.3487548828125
16.6699999,0.6991068720817566,0.42616790533065796,9.947908401489258,-1.220703125,-2.532958984375,-2.166748046875
16.6899999,0.7110779285430908,0.4213795065879822,9.861717224121094,-3.5552978515625,-2.044677734375,-2.62451171875
16.7099999,0.7110779285430908,0.35434186458587646,9.799467086791992,2.4261474609375,3.35693359375,5.31005859375
16.7299999,0.6991068720817566,0.304063618183136,9.737217903137207,1.678466796875,2.716064453125,3.6468505859375
16.749999900000002,0.6751648783683777,0.2753331959247589,9.734824180603027,-3.814697265625,0.9307861328125,-4.5013427734375
16.769999900000002,0.6560112833976746,0.24660277366638184,9.725247383117676,4.8980712890625,-0.0457763671875,-0.579833984375
16.7899999,0.646434485912323,0.38546648621559143,9.80904483795166,1.678466796875,2.9754638671875,4.0740966796875
16.8099999,0.646434485912323,0.42377370595932007,9.883264541625977,-2.5787353515625,0.79345703125,3.7994384765625
16.8299999,0.6344634294509888,0.4189853072166443,9.928754806518555,3.8299560546875,0.9307861328125,0.8392333984375
16.8499999,0.6248866319656372,0.4165911078453064,9.923966407775879,2.166748046875,1.068115234375,-1.3885498046875
16.8699999,0.6057330369949341,0.3974374830722809,9.880870819091797,0.0457763671875,3.4942626953125,2.0751953125
16.8899999,0.5985504388809204,0.4118026793003082,9.816226959228516,0.640869140625,4.486083984375,3.448486328125
16.9099999,0.5937620401382446,0.45250412821769714,9.78989028930664,-2.99072265625,4.57763671875,1.9683837890625
16.929999900000002,0.5770025849342346,0.4213795065879822,9.739612579345703,-0.0152587890625,0.946044921875,6.256103515625
16.9499999,0.5674257874488831,0.37828385829925537,9.785101890563965,4.3487548828125,5.37109375,3.6773681640625
16.9699999,0.5578489899635315,0.3232172429561615,9.854534149169922,1.3427734375,5.9661865234375,-2.1209716796875
16.9899999,0.5530605912208557,0.2992752194404602,9.890447616577148,-0.823974609375,-2.9296875,-1.739501953125
17.0099999,0.5650315880775452,0.3687070608139038,9.979032516479492,3.1585693359375,0.0457763671875,3.2958984375
17.0299999,0.5674257874488831,0.4189853072166443,10.005369186401367,4.6844482421875,4.39453125,10.162353515625
17.0499999,0.5578489899635315,0.42856210470199585,9.99339771270752,0.6866455078125,1.0986328125,7.6446533203125
17.0699999,0.5363011956214905,0.35434186458587646,10.002974510192871,0.1220703125,0.9613037109375,0.946044921875
17.089999900000002,0.5123591423034668,0.2777273952960968,10.014945983886719,1.434326171875,1.40380859375,-1.8157958984375
17.109999900000002,0.49320554733276367,0.24420857429504395,10.002974510192871,0.396728515625,-1.89208984375,0.4119873046875
17.1299999,0.48602294921875,0.2825157940387726,10.005369186401367,-1.7242431640625,-1.251220703125,2.1209716796875
17.1499999,0.4812345504760742,0.33518823981285095,9.983820915222168,-2.716064453125,-0.1373291015625,2.777099609375
17.1699999,0.47644615173339844,0.3998316824436188,9.931148529052734,-0.5035400390625,-1.52587890625,1.129150390625
17.1899999,0.4668693244457245,0.44771572947502136,9.897629737854004,2.99072265625,0.091552734375,1.6021728515625
17.2099999,0.4620809257030487,0.4692635238170624,9.835380554199219,0.885009765625,0.335693359375,3.662109375
17.2299999,0.4620809257030487,0.4692635238170624,9.806650161743164,-1.64794921875,1.2969970703125,2.5787353515625
17.249999900000002,0.4692635238170624,0.4429273009300232,9.787496566772461,-1.5411376953125,1.7547607421875,1.312255859375
17.269999900000002,0.4812345504760742,0.4118026793003082,9.78989028930664,-3.11279296875,-0.213623046875,1.708984375
17.2899999,0.49320554733276367,0.35913026332855225,9.770736694335938,-0.9613037109375,-1.7852783203125,3.997802734375
17.3099999,0.49799394607543945,0.35434186458587646,9.770736694335938,-1.312255859375,1.0986328125,1.6021728515625
17.3299999,0.49799394607543945,0.30885201692581177,9.75637149810791,-0.06103515625,3.8299560546875,1.800537109375
17.3499999,0.49799394607543945,0.33039984107017517,9.77791976928711,1.7547607421875,1.495361328125,0.8087158203125
17.3699999,0.5051765441894531,0.3878606855869293,9.81143856048584,-2.166748046875,0.335693359375,0.18310546875
17.3899999,0.5099649429321289,0.4429273009300232,9.852140426635742,-2.3345947265625,0.7781982421875,5.340576171875
17.409999900000003,0.507570743560791,0.44532153010368347,9.885659217834473,4.119873046875,2.288818359375,6.28662109375
17.429999900000002,0.5027823448181152,0.45010992884635925,9.873687744140625,2.1820068359375,1.1444091796875,-1.6632080078125
17.4499999,0.4884171485900879,0.4189853072166443,9.885659217834473,-1.556396484375,2.685546875,-1.800537109375
17.4699999,0.4812345504760742,0.3902548849582672,9.856928825378418,-0.152587890625,2.3956298828125,6.134033203125
17.4899999,0.47165772318840027,0.38546648621559143,9.856928825378418,-1.7547607421875,2.288818359375,5.218505859375
17.5099999,0.4644751250743866,0.38546648621559143,9.86889934539795,0.640869140625,1.7852783203125,0.396728515625
17.5299999,0.45250412821769714,0.3998316824436188,9.856928825378418,0.2288818359375,-0.8697509765625,-0.3204345703125
17.5499999,0.4429273009300232,0.4429273009300232,9.859322547912598,2.655029296875,0.7476806640625,4.4708251953125
17.5699999,0.4405331015586853,0.5219359993934631,9.861717224121094,0.457763671875,4.9285888671875,5.3863525390625
17.589999900000002,0.44532153010368347,0.5793967843055725,9.821015357971191,-4.241943359375,2.227783203125,4.2877197265625
17.609999900000002,0.4644751250743866,0.6368576288223267,9.792284965515137,2.655029296875,2.197265625,4.9896240234375
17.6299999,0.49559974670410156,0.7924807667732239,9.725247383117676,2.716064453125,5.645751953125,4.608154296875
17.6499999,0.5195417404174805,0.8930372595787048,9.59596061706543,4.608154296875,5.7525634765625,15.3350830078125
17.6699999,0.5482721924781799,1.015141487121582,9.552865028381348,15.7012939453125,12.115478515625,19.805908203125
17.6899999,0.5722141861915588,1.1348515748977661,9.524134635925293,10.8184814453125,14.190673828125,11.4593505859375
17.7099999,0.5889736413955688,1.235408067703247,9.500192642211914,2.593994140625,7.7362060546875,13.9007568359375
17.7299999,0.608127236366272,1.3503297567367554,9.512163162231445,10.3607177734375,12.8173828125,24.4903564453125
17.749999900000002,0.6009446382522583,1.4532804489135742,9.476250648498535,4.69970703125,17.608642578125,28.656005859375
17.769999900000002,0.5578489899635315,1.4245500564575195,9.437943458557129,-2.777099609375,16.998291015625,32.6385498046875
17.7899999,0.47884035110473633,1.237802267074585,9.464279174804688,-0.640869140625,16.6168212890625,34.942626953125
17.8099999,0.3687070608139038,0.9576807022094727,9.564835548400879,2.2125244140625,17.9901123046875,31.7840576171875
17.8299999,0.23702596127986908,0.5985504388809204,9.68933391571045,-1.068115234375,15.56396484375,29.78515625
17.8499999,0.10055647045373917,0.26336219906806946,9.919178009033203,1.3427734375,17.4407958984375,27.5115966796875
17.8699999,-0.035913024097681046,-0.021547814831137657,10.163386344909668,5.096435546875,15.045166015625,24.6429443359375
17.8899999,-0.15562310814857483,-0.1843535304069519,10.414777755737305,3.0517578125,7.781982421875,19.9737548828125
17.909999900000003,-0.24899697303771973,-0.2825157940387726,10.56800651550293,2.9144287109375,2.6397705078125,20.1568603515625
17.929999900000002,-0.31603461503982544,-0.26336219906806946,10.584765434265137,3.082275390625,1.007080078125,17.578125
17.9499999,-0.3447650372982025,-0.1628057211637497,10.548852920532227,5.0811767578125,5.5694580078125,12.8173828125
17.9699999,-0.3471592366695404,-0.05027823522686958,10.374075889587402,5.9051513671875,-1.52587890625,14.495849609375
17.9899999,-0.31364041566848755,0.14604631066322327,10.256759643554688,1.8463134765625,-3.0975341796875,10.711669921875
18.0099999,-0.272938996553421,0.304063618183136,10.113107681274414,0.2288818359375,-0.3662109375,10.498046875
18.0299999,-0.22505496442317963,0.3711012601852417,9.926360130310059,0.2899169921875,-3.3111572265625,13.702392578125
18.0499999,-0.17477671802043915,0.45489832758903503,9.823410034179688,-0.6866455078125,0.823974609375,7.1563720703125
18.0699999,-0.14604631066322327,0.4572925269603729,9.672574996948242,1.4190673828125,-0.946044921875,6.8511962890625
18.089999900000002,-0.11971008777618408,0.4908113479614258,9.622296333312988,5.706787109375,0.732421875,10.1470947265625
18.109999900000002,-0.1149216815829277,0.5506663918495178,9.63187313079834,2.2430419921875,5.3558349609375,9.7808837890625
18.1299999,-0.13168109953403473,0.569819986820221,9.660603523254395,0.152587890625,1.922607421875,10.589599609375
18.1499999,-0.14365209639072418,0.5985504388809204,9.775525093078613,1.9378662109375,2.197265625,8.48388671875
18.1699999,-0.16998831927776337,0.5434837937355042,9.835380554199219,2.5482177734375,1.251220703125,9.4146728515625
18.1899999,-0.181959331035614,0.5291185975074768,9.916783332824707,-0.2899169921875,2.4871826171875,6.5765380859375
18.2099999,-0.17956513166427612,0.524330198764801,9.988609313964844,-2.86865234375,4.2877197265625,3.5858154296875
18.2299999,-0.17477671802043915,0.5410895943641663,10.034099578857422,1.2969970703125,-1.8310546875,7.080078125
18.249999900000002,-0.1604115068912506,0.586579442024231,10.067618370056152,0.091552734375,-3.5247802734375,6.195068359375
18.269999900000002,-0.1364694982767105,0.6177040338516235,10.022128105163574,-3.326416015625,-0.9613037109375,4.21142578125
18.2899999,-0.10055647045373917,0.6607996821403503,9.93593692779541,-1.89208984375,1.556396484375,2.8839111328125
18.3099999,-0.05267243832349777,0.7182605266571045,9.840168952941895,2.8076171875,2.8076171875,5.126953125
18.3299999,-0.009576806798577309,0.7613561153411865,9.773131370544434,1.3427734375,0.244140625,9.8724365234375
18.3499999,0.014365210197865963,0.7134721279144287,9.761159896850586,1.7852783203125,0.48828125,12.02392578125
18.3699999,0.011971008032560349,0.6488286852836609,9.737217903137207,-0.885009765625,-0.5950927734375,4.6844482421875
18.3899999,-0.0071826050989329815,0.5674257874488831,9.746794700622559,2.13623046875,2.0599365234375,1.3885498046875
18.409999900000003,-0.031124621629714966,0.5219359993934631,9.775525093078613,9.70458984375,4.45556640625,7.4920654296875
18.429999900000002,-0.0454898327589035,0.5722141861915588,9.861717224121094,3.9825439453125,3.0059814453125,6.1798095703125
18.4499999,-0.05267243832349777,0.6392518281936646,9.943120002746582,-0.640869140625,-1.6937255859375,2.74658203125
18.4699999,-0.05267243832349777,0.7206547260284424,9.99100399017334,-0.1220703125,-2.7923583984375,3.0975341796875
18.4899999,-0.05267243832349777,0.8044517636299133,9.986215591430664,2.593994140625,0.4730224609375,5.9356689453125
18.5099999,-0.05746084079146385,0.8547300100326538,9.943120002746582,0.3814697265625,1.220703125,6.011962890625
18.5299999,-0.06703764945268631,0.8475474119186401,9.904812812805176,1.495361328125,-1.5716552734375,4.8065185546875
18.5499999,-0.08140286058187485,0.8547300100326538,9.8784761428833,-2.960205078125,-2.1514892578125,0.67138671875
18.5699999,-0.090979665517807,0.828393816947937,9.830592155456543,-2.0599365234375,-1.7242431640625,4.08935546875
18.589999900000002,-0.0933738648891449,0.8331822156906128,9.761159896850586,1.678466796875,0.9765625,7.1258544921875
18.609999900000002,-0.08140286058187485,0.8427590131759644,9.708487510681152,1.2054443359375,2.3345947265625,5.126953125
18.6299999,-0.06703764945268631,0.811634361743927,9.677363395690918,1.2664794921875,1.8463134765625,5.79833984375
18.6499999,-0.05746084079146385,0.7565677165985107,9.694122314453125,0.3814697265625,1.678466796875,6.8817138671875
18.6699999,-0.05267243832349777,0.727837324142456,9.763554573059082,-1.8463134765625,3.204345703125,4.1351318359375
18.6899999,-0.06703764945268631,0.7038952708244324,9.818621635437012,-3.8299560546875,1.4190673828125,4.974365234375
18.7099999,-0.08619125932455063,0.6703764796257019,9.892841339111328,2.8839111328125,1.9989013671875,8.453369140625
18.7299999,-0.10534487664699554,0.6392518281936646,9.99100399017334,5.645751953125,4.5013427734375,6.1798095703125
18.749999900000002,-0.11971008777618408,0.6105214357376099,10.06043529510498,0.1983642578125,0.152587890625,0.5035400390625
18.769999900000002,-0.12210428714752197,0.5985504388809204,10.11789608001709,-1.8768310546875,-3.6468505859375,1.5716552734375
18.7899999,-0.1173158809542656,0.608127236366272,10.129867553710938,-3.5247802734375,-0.701904296875,5.523681640625
18.8099999,-0.11013327538967133,0.5961562395095825,10.043676376342773,-5.0811767578125,-0.1678466796875,5.767822265625
18.8299999,-0.10773907601833344,0.545877993106842,9.952696800231934,-1.2359619140625,0.8392333984375,0.30517578125
18.8499999,-0.11013327538967133,0.4692635238170624,9.880870819091797,4.08935546875,1.1749267578125,-3.2196044921875
18.8699999,-0.11971008777618408,0.3902548849582672,9.792284965515137,3.47900390625,-4.0435791015625,-3.2806396484375
18.8899999,-0.12449848651885986,0.42377370595932007,9.816226959228516,-1.46484375,0.4425048828125,-5.9814453125
18.909999900000003,-0.1173158809542656,0.5123591423034668,9.825803756713867,-3.5247802734375,0.274658203125,-4.638671875
18.929999900000002,-0.09816227108240128,0.6344634294509888,9.86889934539795,2.227783203125,-3.7078857421875,0.030517578125
18.9499999,-0.06703764945268631,0.7852981686592102,9.880870819091797,4.6844482421875,-4.241943359375,-1.9683837890625
18.9699999,-0.033518824726343155,0.9265560507774353,9.904812812805176,-1.190185546875,0.3509521484375,-4.547119140625
18.9899999,-0.002394201699644327,0.9983820915222168,9.90241813659668,0.396728515625,1.52587890625,1.068115234375
19.0099999,0.016759412363171577,1.0582371950149536,9.8784761428833,-3.0517578125,-2.99072265625,2.5634765625
19.0299999,0.026336219161748886,1.0295066833496094,9.871294021606445,-2.3345947265625,-1.8463134765625,2.471923828125
19.0499999,0.011971008032560349,0.9289502501487732,9.828198432922363,1.28173828125,0.4425048828125,1.64794921875
19.0699999,-0.004788403399288654,0.8427590131759644,9.768342971801758,-0.8392333984375,-0.0457763671875,-2.044677734375
19.089999900000002,-0.021547814831137657,0.7589619159698486,9.768342971801758,0.091552734375,1.6632080078125,-0.06103515625
19.109999900000002,-0.031124621629714966,0.7086837291717529,9.770736694335938,3.692626953125,-0.701904296875,2.74658203125
19.1299999,-0.033518824726343155,0.7254431247711182,9.792284965515137,0.946044921875,-2.532958984375,-0.8392333984375
19.1499999,-0.038307227194309235,0.727837324142456,9.770736694335938,-2.6702880859375,-0.8392333984375,0.1678466796875
19.1699999,-0.043095629662275314,0.7086837291717529,9.739612579345703,0.762939453125,1.5106201171875,4.39453125
19.1899999,-0.047884032130241394,0.6775590777397156,9.720458984375,4.2266845703125,2.288818359375,0.5035400390625
19.2099999,-0.047884032130241394,0.6967126727104187,9.696516990661621,-3.1280517578125,-2.044677734375,-7.080078125
19.2299999,-0.05267243832349777,0.7254431247711182,9.677363395690918,-4.302978515625,-1.068115234375,-2.3193359375
19.249999900000002,-0.05985504388809204,0.7972691655158997,9.68694019317627,3.143310546875,5.9356689453125,5.5694580078125
19.269999900000002,-0.06703764945268631,0.8810662031173706,9.718064308166504,1.373291015625,6.40869140625,2.3651123046875
19.2899999,-0.07422025501728058,0.8738836050033569,9.768342971801758,-1.708984375,0.518798828125,-0.213623046875
19.3099999,-0.07661445438861847,0.8355764150619507,9.847352027893066,0.5035400390625,0.2593994140625,-0.3509521484375
19.3299999,-0.07182604819536209,0.7805097699165344,9.914389610290527,1.0986328125,4.425048828125,-0.3662109375
19.3499999,-0.06703764945268631,0.7493851184844971,9.959878921508789,-2.960205078125,3.4027099609375,-0.5340576171875
19.3699999,-0.05746084079146385,0.7374141216278076,9.983820915222168,-5.18798828125,-0.7781982421875,-0.640869140625
19.3899999,-0.0454898327589035,0.751779317855835,10.029311180114746,-1.2969970703125,0.6866455078125,0.1220703125
19.409999900000003,-0.033518824726343155,0.7469909191131592,10.022128105163574,1.007080078125,0.2288818359375,0.823974609375
19.429999900000002,-0.016759412363171577,0.7613561153411865,9.955090522766113,-2.777099609375,-3.3416748046875,-1.8157958984375
19.4499999,-0.002394201699644327,0.7661445140838623,9.888052940368652,-3.5400390625,0.244140625,-1.3885498046875
19.4699999,0,0.7422025203704834,9.806650161743164,0.885009765625,3.6773681640625,4.0435791015625
19.4899999,-0.011971008032560349,0.7326257228851318,9.770736694335938,1.861572265625,2.44140625,2.74658203125
19.5099999,-0.035913024097681046,0.6871358752250671,9.761159896850586,-1.8768310546875,0.2288818359375,-0.030517578125
19.5299999,-0.05506663769483566,0.6607996821403503,9.813833236694336,-1.861572265625,0.5035400390625,-0.213623046875
19.5499999,-0.07182604819536209,0.6584054827690125,9.849745750427246,0.6256103515625,-0.0152587890625,-0.8544921875
19.5699999,-0.0694318488240242,0.7110779285430908,9.830592155456543,1.922607421875,-3.2806396484375,-1.2664794921875
19.589999900000002,-0.06224924325942993,0.7876923680305481,9.832986831665039,0.1068115234375,2.3651123046875,0.274658203125
19.609999900000002,-0.05506663769483566,0.849941611289978,9.78989028930664,-1.0833740234375,3.5858154296875,4.6234130859375
19.6299999,-0.05506663769483566,0.871489405632019,9.782708168029785,-3.1280517578125,1.6937255859375,4.4708251953125
19.6499999,-0.05746084079146385,0.8044517636299133,9.785101890563965,1.28173828125,0.5340576171875,2.9449462890625
19.6699999,-0.05985504388809204,0.7613561153411865,9.78989028930664,-0.1678466796875,0.5950927734375,-2.3651123046875
19.6899999,-0.05746084079146385,0.7230489253997803,9.768342971801758,-0.762939453125,1.8157958984375,-0.335693359375
19.7099999,-0.05746084079146385,0.7350199222564697,9.787496566772461,1.3580322265625,4.974365234375,5.2337646484375
19.7299999,-0.05985504388809204,0.7493851184844971,9.78989028930664,0.4730224609375,3.0059814453125,5.7373046875
19.749999900000002,-0.07422025501728058,0.7254431247711182,9.81143856048584,-2.13623046875,0.579833984375,2.3193359375
19.769999900000002,-0.0933738648891449,0.6919242739677429,9.818621635437012,0.3814697265625,2.44140625,0.030517578125
19.7899999,-0.11013327538967133,0.7206547260284424,9.80904483795166,1.3580322265625,3.41796875,-0.3814697265625
19.8099999,-0.13407529890537262,0.7924807667732239,9.818621635437012,2.2430419921875,4.45556640625,4.2877197265625
19.8299999,-0.15083470940589905,0.8738836050033569,9.80904483795166,0.67138671875,2.044677734375,8.6212158203125
19.8499999,-0.15322890877723694,0.9385270476341248,9.856928825378418,0.8087158203125,6.103515625,6.7901611328125
19.8699999,-0.1364694982767105,0.933738648891449,9.832986831665039,0.5950927734375,4.150390625,7.32421875
19.8899999,-0.09816227108240128,0.8978256583213806,9.823410034179688,-0.30517578125,3.2806396484375,9.6893310546875
19.909999900000003,-0.035913024097681046,0.8212111592292786,9.823410034179688,4.302978515625,6.8817138671875,11.9476318359375
19.929999900000002,0.026336219161748886,0.7445967197418213,9.797073364257812,0.8544921875,4.7454833984375,11.23046875
19.9499999,0.10295066982507706,0.6799532771110535,9.78989028930664,-4.058837890625,2.9296875,11.871337890625
19.9699999,0.17477671802043915,0.6631938815116882,9.828198432922363,-1.8310546875,4.7760009765625,17.3187255859375
19.9899999,0.23702596127986908,0.7086837291717529,9.856928825378418,-3.5400390625,0.3662109375,24.658203125
20.0099999,0.26815059781074524,0.8355764150619507,9.923966407775879,-10.8184814453125,-4.302978515625,33.233642578125
20.0299999,0.26096799969673157,0.9481038451194763,9.816226959228516,-21.7742919921875,-10.1165771484375,49.3011474609375
20.0499999,0.1412578970193863,0.9050082564353943,9.600749015808105,-26.4892578125,-1.617431640625,69.7021484375
20.0699999,-0.1364694982767105,0.49320554733276367,9.263166427612305,-14.9078369140625,16.937255859375,91.6290283203125
20.089999900000002,-0.6775590777397156,-0.2082955539226532,9.05247688293457,-21.7437744140625,32.7606201171875,88.409423828125
20.109999900000002,-1.4676456451416016,-1.5083470344543457,9.464279174804688,23.406982421875,55.3436279296875,100.921630859375
20.1299999,-2.425326347351074,-3.1938650608062744,10.584765434265137,83.9996337890625,52.6123046875,107.8948974609375
20.1499999,-3.5051112174987793,-5.085284233093262,12.15057373046875,41.7938232421875,-4.1046142578125,57.2509765625
20.1699999,-4.55616569519043,-7.062894821166992,13.716381072998047,11.41357421875,-48.614501953125,-10.498046875
20.1899999,-5.497087001800537,-8.537723541259766,14.712369918823242,27.8778076171875,-58.0291748046875,-83.831787109375
20.2099999,-6.287173748016357,-8.923190116882324,14.810531616210938,-5.6610107421875,-63.995361328125,-156.3720703125
20.2299999,-6.8593878746032715,-8.183381080627441,14.166491508483887,-53.5736083984375,-65.9332275390625,-184.4329833984375
20.249999900000002,-7.2352776527404785,-6.540958881378174,13.175292015075684,-29.4342041015625,-53.680419921875,-178.4210205078125
20.269999900000002,-7.501033782958984,-4.553771495819092,12.325350761413574,-22.7813720703125,-43.3197021484375,-188.232421875
20.2899999,-7.750030994415283,-2.741360902786255,11.568782806396484,-67.901611328125,-69.7784423828125,-223.8311767578125
