# Time (seconds),Accel_X,Accel_Y,Accel_Z,Gyro_X,Gyro_Y,Gyro_Z
0.0099999,-0.7948749661445618,2.276885747909546,-9.500192642211914,-0.1678466796875,0.030517578125,-0.3814697265625
0.029999900000000003,-0.7972691655158997,2.27209734916687,-9.502586364746094,-0.1983642578125,0.0152587890625,-0.42724609375
0.0499999,-0.7972691655158997,2.2673089504241943,-9.497797966003418,-0.0762939453125,0.4730224609375,-0.3662109375
0.0699999,-0.7996633648872375,2.2649147510528564,-9.490615844726562,-0.091552734375,0.42724609375,-0.274658203125
0.08999990000000001,-0.7948749661445618,2.2673089504241943,-9.48343276977539,-0.1373291015625,0.48828125,-0.3204345703125
0.10999990000000001,-0.790086567401886,2.2697031497955322,-9.478644371032715,-0.091552734375,0.8087158203125,-0.396728515625
0.1299999,-0.7829039692878723,2.274491548538208,-9.473855972290039,-0.0152587890625,0.6103515625,-0.396728515625
0.14999990000000002,-0.7805097699165344,2.276885747909546,-9.473855972290039,-0.091552734375,0.640869140625,-0.396728515625
0.1699999,-0.7805097699165344,2.274491548538208,-9.476250648498535,-0.0457763671875,1.2969970703125,-0.5035400390625
0.1899999,-0.7829039692878723,2.2673089504241943,-9.481039047241211,-0.091552734375,0.9765625,-0.48828125
0.20999990000000002,-0.7852981686592102,2.2601263523101807,-9.485827445983887,-0.2288818359375,0.1373291015625,-0.396728515625
0.2299999,-0.7852981686592102,2.2577321529388428,-9.488221168518066,-0.213623046875,0.1678466796875,-0.30517578125
0.2499999,-0.7852981686592102,2.2601263523101807,-9.488221168518066,-0.1068115234375,0.67138671875,-0.3814697265625
0.2699999,-0.7876923680305481,2.2697031497955322,-9.48343276977539,-0.06103515625,0.5950927734375,-0.396728515625
0.28999990000000003,-0.7829039692878723,2.279279947280884,-9.481039047241211,-0.213623046875,-0.0762939453125,-0.518798828125
0.3099999,-0.7733271718025208,2.2816741466522217,-9.481039047241211,-0.1678466796875,0.1678466796875,-0.3814697265625
0.3299999,-0.7661445140838623,2.279279947280884,-9.476250648498535,-0.1068115234375,0.1068115234375,-0.2593994140625
0.34999990000000003,-0.7613561153411865,2.27209734916687,-9.478644371032715,0.0152587890625,0.823974609375,-0.274658203125
0.3699999,-0.7613561153411865,2.2649147510528564,-9.478644371032715,-0.152587890625,0.2288818359375,-0.518798828125
0.3899999,-0.7637503147125244,2.2625205516815186,-9.481039047241211,-0.3204345703125,-0.244140625,-0.5035400390625
0.40999990000000003,-0.768538773059845,2.2577321529388428,-9.478644371032715,-0.2593994140625,0.0457763671875,-0.30517578125
0.4299999,-0.7733271718025208,2.2625205516815186,-9.476250648498535,-0.1220703125,0.518798828125,-0.213623046875
0.4499999,-0.7805097699165344,2.2673089504241943,-9.47146224975586,-0.1373291015625,0.4119873046875,-0.335693359375
0.4699999,-0.7852981686592102,2.274491548538208,-9.47146224975586,-0.18310546875,0.1068115234375,-0.4730224609375
0.4899999,-0.7829039692878723,2.279279947280884,-9.47146224975586,-0.1678466796875,0.0152587890625,-0.457763671875
0.5099999,-0.7805097699165344,2.2816741466522217,-9.476250648498535,-0.1983642578125,0.3509521484375,-0.244140625
0.5299999,-0.7781155705451965,2.2816741466522217,-9.476250648498535,-0.1983642578125,0.213623046875,-0.3509521484375
0.5499999,-0.7781155705451965,2.279279947280884,-9.476250648498535,-0.2899169921875,-0.4119873046875,-0.4730224609375
0.5699999,-0.7757213711738586,2.274491548538208,-9.478644371032715,-0.152587890625,0.2288818359375,-0.4119873046875
0.5899998999999999,-0.7757213711738586,2.2673089504241943,-9.481039047241211,-0.0762939453125,0.396728515625,-0.274658203125
0.6099998999999999,-0.7781155705451965,2.2673089504241943,-9.478644371032715,-0.1678466796875,0.3204345703125,-0.335693359375
0.6299999,-0.7781155705451965,2.2673089504241943,-9.485827445983887,-0.1373291015625,0.42724609375,-0.42724609375
0.6499999,-0.7781155705451965,2.2697031497955322,-9.485827445983887,-0.244140625,-0.1068115234375,-0.4425048828125
0.6699999,-0.7733271718025208,2.27209734916687,-9.488221168518066,-0.2899169921875,-0.335693359375,-0.4119873046875
0.6899999,-0.7709329724311829,2.274491548538208,-9.488221168518066,-0.1373291015625,0.3814697265625,-0.274658203125
0.7099999,-0.7709329724311829,2.274491548538208,-9.485827445983887,-0.152587890625,0.6256103515625,-0.3662109375
0.7299998999999999,-0.7733271718025208,2.27209734916687,-9.485827445983887,-0.1678466796875,0.30517578125,-0.457763671875
0.7499998999999999,-0.7781155705451965,2.2673089504241943,-9.481039047241211,-0.213623046875,0.152587890625,-0.3509521484375
0.7699999,-0.7805097699165344,2.2649147510528564,-9.481039047241211,-0.152587890625,0.579833984375,-0.3509521484375
0.7899999,-0.7805097699165344,2.2625205516815186,-9.478644371032715,-0.1983642578125,0.030517578125,-0.457763671875
0.8099999,-0.7805097699165344,2.2649147510528564,-9.481039047241211,-0.18310546875,0.06103515625,-0.4119873046875
0.8299999,-0.7805097699165344,2.27209734916687,-9.481039047241211,-0.213623046875,-0.2593994140625,-0.4730224609375
0.8499998999999999,-0.7781155705451965,2.276885747909546,-9.481039047241211,-0.244140625,-0.2593994140625,-0.396728515625
0.8699998999999999,-0.7781155705451965,2.276885747909546,-9.481039047241211,-0.213623046875,0.1068115234375,-0.396728515625
0.8899999,-0.7757213711738586,2.276885747909546,-9.481039047241211,-0.2288818359375,-0.18310546875,-0.4730224609375
0.9099999,-0.7757213711738586,2.27209734916687,-9.481039047241211,-0.1983642578125,-0.030517578125,-0.4425048828125
0.9299999,-0.7733271718025208,2.2673089504241943,-9.481039047241211,-0.213623046875,0.2288818359375,-0.3662109375
0.9499999,-0.7733271718025208,2.2649147510528564,-9.485827445983887,-0.152587890625,0.54931640625,-0.2899169921875
0.9699998999999999,-0.7781155705451965,2.2625205516815186,-9.485827445983887,-0.1983642578125,0.244140625,-0.4425048828125
0.9899998999999999,-0.7781155705451965,2.2625205516815186,-9.488221168518066,-0.244140625,0.152587890625,-0.4730224609375
1.0099999,-0.7805097699165344,2.2625205516815186,-9.488221168518066,-0.1220703125,0.4730224609375,-0.30517578125
1.0299999,-0.7781155705451965,2.2625205516815186,-9.485827445983887,-0.1068115234375,0.4119873046875,-0.3662109375
1.0499999,-0.7733271718025208,2.2649147510528564,-9.485827445983887,-0.1068115234375,0.335693359375,-0.335693359375
1.0699999,-0.7709329724311829,2.2649147510528564,-9.485827445983887,-0.1678466796875,0.213623046875,-0.335693359375
1.0899999,-0.7709329724311829,2.2673089504241943,-9.485827445983887,-0.1983642578125,0.1373291015625,-0.4425048828125
1.1099999,-0.7709329724311829,2.2673089504241943,-9.485827445983887,-0.152587890625,0.2593994140625,-0.30517578125
1.1299999,-0.7733271718025208,2.2673089504241943,-9.485827445983887,-0.1220703125,0.3204345703125,-0.4425048828125
1.1499999,-0.7733271718025208,2.2673089504241943,-9.488221168518066,-0.1983642578125,0.1983642578125,-0.457763671875
1.1699998999999999,-0.7757213711738586,2.2649147510528564,-9.488221168518066,-0.244140625,0.0457763671875,-0.457763671875
1.1899998999999999,-0.7733271718025208,2.2649147510528564,-9.488221168518066,-0.274658203125,0.091552734375,-0.457763671875
1.2099999,-0.7757213711738586,2.2649147510528564,-9.488221168518066,-0.18310546875,0.1373291015625,-0.335693359375
1.2299999,-0.7733271718025208,2.2697031497955322,-9.485827445983887,-0.1983642578125,0.091552734375,-0.4119873046875
1.2499999,-0.7733271718025208,2.27209734916687,-9.48343276977539,-0.244140625,0.1220703125,-0.42724609375
1.2699999,-0.7709329724311829,2.27209734916687,-9.48343276977539,-0.18310546875,0.1373291015625,-0.3662109375
1.2899999,-0.7709329724311829,2.2697031497955322,-9.48343276977539,-0.152587890625,0.3204345703125,-0.3509521484375
1.3099999,-0.7709329724311829,2.2649147510528564,-9.488221168518066,-0.1373291015625,0.2288818359375,-0.4119873046875
1.3299999,-0.7733271718025208,2.2577321529388428,-9.490615844726562,-0.1373291015625,0.1678466796875,-0.4425048828125
1.3499999,-0.7757213711738586,2.2601263523101807,-9.493009567260742,-0.1983642578125,0.1983642578125,-0.42724609375
1.3699999,-0.7733271718025208,2.2625205516815186,-9.490615844726562,-0.244140625,0.0762939453125,-0.4730224609375
1.3899999,-0.7733271718025208,2.2697031497955322,-9.485827445983887,-0.1373291015625,-0.06103515625,-0.4730224609375
1.4099999,-0.7733271718025208,2.274491548538208,-9.476250648498535,-0.244140625,-0.1220703125,-0.4119873046875
1.4299998999999999,-0.7757213711738586,2.274491548538208,-9.47146224975586,-0.1373291015625,0.274658203125,-0.335693359375
1.4499999,-0.7781155705451965,2.27209734916687,-9.466673851013184,-0.030517578125,0.42724609375,-0.3509521484375
1.4699999,-0.7781155705451965,2.2673089504241943,-9.47146224975586,-0.0762939453125,0.3509521484375,-0.3204345703125
1.4899999,-0.7757213711738586,2.2625205516815186,-9.473855972290039,-0.1373291015625,0.3204345703125,-0.42724609375
1.5099999,-0.7757213711738586,2.2625205516815186,-9.481039047241211,-0.244140625,0.06103515625,-0.4425048828125
1.5299999,-0.7733271718025208,2.2625205516815186,-9.485827445983887,-0.2593994140625,-0.1220703125,-0.396728515625
1.5499999,-0.7733271718025208,2.2673089504241943,-9.488221168518066,-0.1220703125,0.244140625,-0.30517578125
1.5699999,-0.7733271718025208,2.2673089504241943,-9.488221168518066,-0.1678466796875,0.152587890625,-0.3509521484375
1.5899999,-0.7709329724311829,2.2697031497955322,-9.485827445983887,-0.152587890625,0.1373291015625,-0.4119873046875
1.6099999,-0.7733271718025208,2.2697031497955322,-9.485827445983887,-0.213623046875,-0.1678466796875,-0.4119873046875
1.6299999,-0.7733271718025208,2.2697031497955322,-9.48343276977539,-0.2288818359375,-0.152587890625,-0.396728515625
1.6499999,-0.7733271718025208,2.2673089504241943,-9.48343276977539,-0.2593994140625,-0.0152587890625,-0.42724609375
1.6699999,-0.7733271718025208,2.2673089504241943,-9.481039047241211,-0.2288818359375,-0.0457763671875,-0.3814697265625
1.6899998999999999,-0.7733271718025208,2.2673089504241943,-9.481039047241211,-0.18310546875,0.1220703125,-0.4119873046875
1.7099999,-0.7733271718025208,2.2649147510528564,-9.478644371032715,-0.2899169921875,-0.2899169921875,-0.48828125
1.7299999,-0.7733271718025208,2.2649147510528564,-9.478644371032715,-0.18310546875,0.1373291015625,-0.3814697265625
1.7499999,-0.7733271718025208,2.2673089504241943,-9.478644371032715,-0.1373291015625,0.1373291015625,-0.396728515625
1.7699999,-0.7709329724311829,2.2697031497955322,-9.481039047241211,-0.1220703125,0.1983642578125,-0.3814697265625
1.7899999,-0.7709329724311829,2.27209734916687,-9.481039047241211,-0.152587890625,0.030517578125,-0.4119873046875
1.8099999,-0.7709329724311829,2.274491548538208,-9.48343276977539,-0.213623046875,0,-0.3814697265625
1.8299999,-0.7733271718025208,2.274491548538208,-9.485827445983887,-0.274658203125,0.1373291015625,-0.396728515625
1.8499999,-0.7733271718025208,2.27209734916687,-9.485827445983887,-0.213623046875,0.274658203125,-0.396728515625
1.8699999,-0.7757213711738586,2.2697031497955322,-9.485827445983887,-0.1068115234375,0.3814697265625,-0.335693359375
1.8899999,-0.7781155705451965,2.2697031497955322,-9.485827445983887,-0.1373291015625,0.213623046875,-0.3814697265625
1.9099999,-0.7757213711738586,2.2697031497955322,-9.48343276977539,-0.244140625,-0.030517578125,-0.457763671875
1.9299998999999999,-0.7733271718025208,2.27209734916687,-9.48343276977539,-0.274658203125,-0.18310546875,-0.4425048828125
1.9499999,-0.7709329724311829,2.274491548538208,-9.485827445983887,-0.2593994140625,-0.1678466796875,-0.48828125
1.9699999,-0.7661445140838623,2.274491548538208,-9.48343276977539,-0.274658203125,-0.335693359375,-0.518798828125
1.9899999,-0.768538773059845,2.276885747909546,-9.48343276977539,-0.1220703125,0.091552734375,-0.3204345703125
2.0099999,-0.768538773059845,2.276885747909546,-9.48343276977539,-0.1068115234375,0.457763671875,-0.3509521484375
2.0299999,-0.768538773059845,2.274491548538208,-9.481039047241211,-0.1678466796875,0.244140625,-0.3814697265625
2.0499999,-0.768538773059845,2.27209734916687,-9.481039047241211,-0.1068115234375,0.1983642578125,-0.3509521484375
2.0699999,-0.7709329724311829,2.2697031497955322,-9.478644371032715,-0.1983642578125,0.1678466796875,-0.396728515625
2.0899999,-0.7709329724311829,2.2697031497955322,-9.481039047241211,-0.1373291015625,0.30517578125,-0.335693359375
2.1099999,-0.7757213711738586,2.2673089504241943,-9.476250648498535,-0.18310546875,0.18310546875,-0.3662109375
2.1299999,-0.7733271718025208,2.2697031497955322,-9.478644371032715,-0.030517578125,0.7476806640625,-0.2899169921875
2.1499999,-0.7733271718025208,2.2697031497955322,-9.476250648498535,0,0.6256103515625,-0.2593994140625
2.1699999,-0.7709329724311829,2.2697031497955322,-9.481039047241211,-0.1678466796875,0.152587890625,-0.3204345703125
2.1899999,-0.768538773059845,2.27209734916687,-9.481039047241211,-0.2593994140625,-0.48828125,-0.457763671875
2.2099999,-0.7709329724311829,2.274491548538208,-9.48343276977539,-0.335693359375,-0.9002685546875,-0.6256103515625
2.2299999,-0.7733271718025208,2.27209734916687,-9.48343276977539,-0.18310546875,-0.1373291015625,-0.457763671875
2.2499999,-0.7757213711738586,2.27209734916687,-9.478644371032715,-0.091552734375,0.67138671875,-0.274658203125
2.2699999,-0.7781155705451965,2.2697031497955322,-9.481039047241211,0.0457763671875,1.2359619140625,-0.2288818359375
2.2899999,-0.7781155705451965,2.2697031497955322,-9.48343276977539,-0.0762939453125,0.579833984375,-0.335693359375
2.3099999,-0.7757213711738586,2.27209734916687,-9.48343276977539,-0.244140625,-0.1220703125,-0.42724609375
2.3299999,-0.7733271718025208,2.274491548538208,-9.490615844726562,-0.213623046875,-0.0152587890625,-0.4730224609375
2.3499999,-0.7709329724311829,2.274491548538208,-9.488221168518066,-0.2899169921875,-0.335693359375,-0.48828125
2.3699999,-0.7733271718025208,2.274491548538208,-9.490615844726562,-0.1983642578125,0.1068115234375,-0.4730224609375
2.3899999,-0.7757213711738586,2.27209734916687,-9.488221168518066,-0.1068115234375,0.42724609375,-0.335693359375
2.4099999,-0.7733271718025208,2.2697031497955322,-9.48343276977539,-0.152587890625,0.1678466796875,-0.335693359375
2.4299999,-0.7709329724311829,2.2697031497955322,-9.478644371032715,-0.18310546875,0.2899169921875,-0.3662109375
2.4499999,-0.7661445140838623,2.274491548538208,-9.476250648498535,-0.152587890625,0.18310546875,-0.30517578125
2.4699999,-0.7661445140838623,2.274491548538208,-9.476250648498535,-0.274658203125,-0.3662109375,-0.396728515625
2.4899999,-0.7661445140838623,2.274491548538208,-9.478644371032715,-0.213623046875,-0.1220703125,-0.3814697265625
2.5099999,-0.7709329724311829,2.27209734916687,-9.476250648498535,-0.152587890625,0.0457763671875,-0.3662109375
2.5299999,-0.7733271718025208,2.2649147510528564,-9.481039047241211,-0.030517578125,0.762939453125,-0.2593994140625
2.5499999,-0.7757213711738586,2.2601263523101807,-9.478644371032715,-0.1068115234375,0.3814697265625,-0.3814697265625
2.5699999,-0.7709329724311829,2.2625205516815186,-9.485827445983887,-0.1678466796875,0.2899169921875,-0.396728515625
2.5899999,-0.7661445140838623,2.2625205516815186,-9.485827445983887,-0.274658203125,-0.1678466796875,-0.5035400390625
2.6099999,-0.7637503147125244,2.2625205516815186,-9.485827445983887,-0.2288818359375,-0.213623046875,-0.3814697265625
2.6299999,-0.7637503147125244,2.2649147510528564,-9.485827445983887,-0.152587890625,0.213623046875,-0.3662109375
2.6499999,-0.768538773059845,2.2625205516815186,-9.48343276977539,-0.244140625,0.1678466796875,-0.48828125
2.6699999,-0.7733271718025208,2.2649147510528564,-9.48343276977539,-0.1220703125,0.335693359375,-0.4119873046875
2.6899999,-0.7733271718025208,2.2649147510528564,-9.48343276977539,-0.1373291015625,0.0762939453125,-0.3662109375
2.7099999,-0.7709329724311829,2.2673089504241943,-9.485827445983887,-0.1068115234375,0.1983642578125,-0.335693359375
2.7299999,-0.7733271718025208,2.2697031497955322,-9.481039047241211,-0.244140625,-0.213623046875,-0.5035400390625
2.7499999,-0.7733271718025208,2.27209734916687,-9.48343276977539,-0.213623046875,0.1220703125,-0.42724609375
2.7699999,-0.7757213711738586,2.2697031497955322,-9.478644371032715,-0.1678466796875,0.152587890625,-0.335693359375
2.7899999,-0.7757213711738586,2.2697031497955322,-9.478644371032715,-0.1678466796875,0.2593994140625,-0.3509521484375
2.8099999,-0.7757213711738586,2.2697031497955322,-9.476250648498535,-0.1220703125,0.396728515625,-0.4119873046875
2.8299999,-0.7733271718025208,2.27209734916687,-9.478644371032715,-0.2288818359375,-0.18310546875,-0.5645751953125
2.8499999,-0.7709329724311829,2.274491548538208,-9.478644371032715,-0.2288818359375,0.0152587890625,-0.4119873046875
2.8699999,-0.768538773059845,2.274491548538208,-9.478644371032715,-0.1678466796875,0.030517578125,-0.3509521484375
2.8899999,-0.7661445140838623,2.2697031497955322,-9.481039047241211,-0.1373291015625,0.42724609375,-0.3509521484375
2.9099999,-0.7661445140838623,2.2649147510528564,-9.478644371032715,-0.1983642578125,0.1983642578125,-0.48828125
2.9299999,-0.7637503147125244,2.2625205516815186,-9.48343276977539,-0.18310546875,0.0457763671875,-0.42724609375
2.9499999,-0.7637503147125244,2.2601263523101807,-9.481039047241211,-0.244140625,0.0152587890625,-0.396728515625
2.9699999,-0.7661445140838623,2.2649147510528564,-9.48343276977539,-0.213623046875,0.213623046875,-0.3814697265625
2.9899999,-0.7709329724311829,2.2697031497955322,-9.48343276977539,-0.1373291015625,0.1983642578125,-0.42724609375
3.0099999,-0.7733271718025208,2.274491548538208,-9.48343276977539,-0.18310546875,-0.06103515625,-0.457763671875
3.0299999,-0.7733271718025208,2.274491548538208,-9.481039047241211,-0.1983642578125,0.1678466796875,-0.3662109375
3.0499999,-0.7709329724311829,2.27209734916687,-9.481039047241211,-0.213623046875,0.2593994140625,-0.396728515625
3.0699999,-0.7709329724311829,2.2697031497955322,-9.48343276977539,-0.1678466796875,0.1983642578125,-0.4119873046875
3.0899999,-0.7709329724311829,2.2673089504241943,-9.48343276977539,-0.1983642578125,-0.0762939453125,-0.518798828125
3.1099999,-0.768538773059845,2.2673089504241943,-9.485827445983887,-0.213623046875,-0.1068115234375,-0.4425048828125
3.1299999,-0.768538773059845,2.2673089504241943,-9.48343276977539,-0.1983642578125,0.1983642578125,-0.274658203125
3.1499999,-0.7661445140838623,2.2673089504241943,-9.48343276977539,-0.1068115234375,0.4119873046875,-0.30517578125
3.1699999,-0.7661445140838623,2.2697031497955322,-9.485827445983887,-0.1220703125,0.1678466796875,-0.4425048828125
3.1899999,-0.7661445140838623,2.2673089504241943,-9.488221168518066,-0.1983642578125,0.0152587890625,-0.396728515625
3.2099999,-0.768538773059845,2.2673089504241943,-9.488221168518066,-0.2288818359375,-0.0152587890625,-0.4119873046875
3.2299999,-0.7709329724311829,2.2697031497955322,-9.488221168518066,-0.1983642578125,0.335693359375,-0.396728515625
3.2499999,-0.7661445140838623,2.279279947280884,-9.48343276977539,-0.1983642578125,0.18310546875,-0.4730224609375
3.2699999,-0.7637503147125244,2.3127987384796143,-9.385271072387695,0.213623046875,3.7994384765625,-3.4027099609375
3.2899999,-0.545877993106842,2.3367409706115723,-9.44991397857666,4.638671875,31.768798828125,-8.941650390625
3.3099999,-0.4908113479614258,2.3487119674682617,-9.402029991149902,2.8839111328125,15.350341796875,0.0152587890625
3.3299999000000002,-0.3711012601852417,2.3127987384796143,-9.488221168518066,-1.5411376953125,-1.2054443359375,-0.823974609375
3.3499999,-0.4836287498474121,2.248155355453491,-9.543288230895996,0.06103515625,6.317138671875,0.579833984375
3.3699999,-0.6440402865409851,2.1787235736846924,-9.57201862335205,1.3427734375,3.1585693359375,3.90625
3.3899999,-0.8020575642585754,2.1332337856292725,-9.569623947143555,-0.4730224609375,-2.1820068359375,3.23486328125
3.4099999,-0.8331822156906128,2.126051187515259,-9.557653427124023,-0.3662109375,-1.28173828125,1.953125
3.4299999,-0.6751648783683777,2.140416383743286,-9.550470352172852,0.518798828125,3.47900390625,0.30517578125
3.4499999,-0.5746083855628967,2.145204782485962,-9.519346237182617,0.030517578125,5.0201416015625,-3.6163330078125
3.4699999,-0.395043283700943,2.1571757793426514,-9.557653427124023,0.42724609375,0.274658203125,-1.9683837890625
3.4899999,-0.5195417404174805,2.1499931812286377,-9.624691009521484,-2.0599365234375,-15.0299072265625,3.997802734375
3.5099999,-0.5339069962501526,2.1739351749420166,-9.514557838439941,-7.659912109375,-33.477783203125,-16.510009765625
3.5299999,-0.7661445140838623,2.231395959854126,-9.591172218322754,2.044677734375,14.7552490234375,-1.495361328125
3.5499999,-0.8020575642585754,2.3104045391082764,-9.397241592407227,0.5035400390625,3.7994384765625,-1.6326904296875
3.5699999,-0.8212111592292786,2.3750481605529785,-9.423578262329102,-0.823974609375,-3.326416015625,-1.3427734375
3.5899999,-0.7996633648872375,2.403778553009033,-9.370905876159668,0.030517578125,1.220703125,-0.3814697265625
3.6099999,-0.7613561153411865,2.38462495803833,-9.370905876159668,-0.1373291015625,0.1983642578125,-0.0762939453125
3.6299999,-0.7422025203704834,2.427720546722412,-9.457097053527832,3.2958984375,22.8118896484375,-1.708984375
3.6499999,-0.586579442024231,2.276885747909546,-9.459490776062012,10.5438232421875,37.6739501953125,-5.615234375
3.6699999,-0.5961562395095825,2.2361843585968018,-9.552865028381348,-4.69970703125,-8.97216796875,16.876220703125
3.6899999,-0.42856210470199585,2.0805611610412598,-9.552865028381348,1.800537109375,-0.6103515625,-1.0528564453125
3.7099999,-0.4213795065879822,1.7741034030914307,-9.607931137084961,13.3209228515625,1.15966796875,15.5487060546875
3.7299999,-0.4405331015586853,1.4748282432556152,-9.684545516967773,-5.767822265625,-4.6539306640625,5.9814453125
3.7499999,-0.4381389021873474,1.173158884048462,-9.751583099365234,-8.087158203125,9.3994140625,-44.2047119140625
3.7699999,-0.49320554733276367,1.05105459690094,-9.804255485534668,-10.31494140625,14.83154296875,-62.4847412109375
3.7899999,-0.5722141861915588,1.2497732639312744,-9.749189376831055,-5.5389404296875,9.368896484375,-57.5103759765625
3.8099999,-0.7422025203704834,1.7860745191574097,-9.612719535827637,18.890380859375,5.615234375,-50.29296875
3.8299999000000002,-0.7254431247711182,2.564189910888672,-9.425971984863281,113.677978515625,16.17431640625,-40.771484375
3.8499999,-0.8643068075180054,3.0813376903533936,-9.30386734008789,97.015380859375,7.2174072265625,0.335693359375
3.8699999,-0.7829039692878723,3.4596214294433594,-9.210494041442871,105.6365966796875,3.6468505859375,27.5115966796875
3.8899999,-0.6009446382522583,3.2537200450897217,-9.277531623840332,162.9486083984375,8.2244873046875,40.52734375
3.9099999,-0.5003881454467773,2.499546527862549,-9.469067573547363,119.781494140625,-1.495361328125,56.4727783203125
3.9299999,-0.35434186458587646,1.3670891523361206,-9.694122314453125,-7.32421875,-22.5982666015625,51.8951416015625
3.9499999,-0.48602294921875,0.26336219906806946,-9.962273597717285,18.0816650390625,-32.16552734375,5.615234375
3.9699999,-0.7972691655158997,-0.4189853072166443,-10.146626472473145,75.1953125,-60.9283447265625,-26.9775390625
3.9899999,-1.1061211824417114,-0.3663128614425659,-10.271124839782715,28.656005859375,-91.6290283203125,5.18798828125
4.0099999,-1.4963760375976562,0.05506663769483566,-10.417171478271484,30.0750732421875,-104.06494140625,45.654296875
4.029999900000001,-1.7046716213226318,0.304063618183136,-10.78348445892334,111.6790771484375,-65.97900390625,54.5196533203125
4.0499999,-1.9033904075622559,-0.026336219161748886,-11.159374237060547,29.0679931640625,-32.0281982421875,32.5927734375
4.069999900000001,-2.03507137298584,-0.9050082564353943,-11.769895553588867,85.968017578125,9.3231201171875,-28.411865234375
4.0899999000000005,-2.0470423698425293,-1.9105730056762695,-12.404358863830566,130.9814453125,8.209228515625,-64.4378662109375
4.1099999,-2.099714994430542,-2.494758129119873,-13.048398971557617,94.879150390625,8.1634521484375,-76.416015625
4.1299999000000005,-2.145204782485962,-2.5067291259765625,-13.330915451049805,-26.4739990234375,57.0220947265625,-61.34033203125
4.1499999,-2.1475989818573,-2.011129379272461,-13.225569725036621,9.521484375,101.01318359375,-31.9976806640625
4.1699999000000005,-2.008735179901123,-1.4508862495422363,-12.634202003479004,10.07080078125,75.225830078125,-2.5177001953125
4.1899999,-1.7334020137786865,-1.5945383310317993,-11.961431503295898,-66.1773681640625,45.379638671875,5.6304931640625
4.209999900000001,-1.4532804489135742,-2.6647465229034424,-10.807426452636719,-286.2701416015625,-9.7503662109375,-81.1309814453125
4.2299999,-1.4077905416488647,-3.6320040225982666,-10.378864288330078,250.48828125,77.6519775390625,-270.6298828125
4.249999900000001,-1.455674648284912,-3.801992416381836,-9.385271072387695,195.6634521484375,95.5657958984375,-270.4010009765625
4.2699999,-1.5083470344543457,-2.449268341064453,-9.11233139038086,135.07080078125,47.66845703125,-123.4283447265625
4.289999900000001,-1.3646949529647827,-0.4644751250743866,-9.344569206237793,95.3216552734375,-10.162353515625,36.3922119140625
4.3099999,-1.1300631761550903,0.6751648783683777,-10.144232749938965,-34.210205078125,2.13623046875,95.2606201171875
4.329999900000001,-0.8810662031173706,-0.12449848651885986,-11.475408554077148,-125.0457763671875,5.8441162109375,61.34033203125
4.3499999,-0.7230489253997803,-2.31758713722229,-12.70602798461914,-63.7969970703125,51.4373779296875,-42.96875
4.369999900000001,-0.6368576288223267,-4.364629745483398,-13.309367179870605,64.1021728515625,157.8216552734375,-180.389404296875
4.3899999,-0.5482721924781799,-5.097255229949951,-12.919112205505371,25.1312255859375,199.7833251953125,-178.619384765625
4.409999900000001,-0.37828385829925537,-4.146757125854492,-11.640608787536621,-11.627197265625,198.9898681640625,-97.7325439453125
4.4299999,-0.24181437492370605,-2.1978771686553955,-9.816226959228516,8.331298828125,145.172119140625,-24.5361328125
4.449999900000001,0.13407529890537262,-0.5434837937355042,-8.389283180236816,80.99365234375,91.339111328125,31.06689453125
4.4699999,0.6368576288223267,0.1388636976480484,-7.38132381439209,-23.2086181640625,103.2867431640625,78.399658203125
4.489999900000001,1.335964560508728,-0.3232172429561615,-7.022193431854248,-103.45458984375,136.810302734375,86.0443115234375
4.5099999,2.1595699787139893,-1.4652514457702637,-6.660669326782227,-112.9150390625,147.796630859375,67.474365234375
4.529999900000001,2.9759926795959473,-2.580949544906616,-5.992686748504639,-76.0955810546875,141.66259765625,44.7540283203125
4.5499999,3.428496837615967,-3.2154128551483154,-4.920084476470947,-79.4677734375,126.2969970703125,37.53662109375
4.569999900000001,3.627215623855591,-3.1890766620635986,-3.8810009956359863,15.3045654296875,119.0338134765625,22.4456787109375
4.5899999000000005,3.466804027557373,-2.7126305103302,-2.5977089405059814,-35.1104736328125,172.607421875,22.216796875
4.609999900000001,3.2106244564056396,-2.2170307636260986,-1.192312479019165,-196.624755859375,178.3599853515625,57.55615234375
4.6299999000000005,3.114856481552124,-1.9847931861877441,0.395043283700943,-163.299560546875,132.8277587890625,72.1435546875
4.6499999,3.3494882583618164,-2.6240451335906982,3.7493197917938232,-87.8448486328125,-29.266357421875,7.99560546875
4.6699999000000005,3.5170822143554688,-2.8419175148010254,4.654327869415283,81.298828125,-111.6790771484375,-64.8651123046875
4.6899999,3.380612850189209,-2.693476915359497,4.240131378173828,213.1805419921875,-227.4169921875,-60.302734375
4.709999900000001,3.028665065765381,-2.3989901542663574,2.3247697353363037,148.406982421875,-318.115234375,34.3170166015625
4.7299999,2.322375535964966,-2.3726539611816406,-1.1109095811843872,-53.3905029296875,-389.2059326171875,88.31787109375
4.749999900000001,1.3239935636520386,-2.911349296569824,-6.050147533416748,-0.244140625,-469.268798828125,48.6907958984375
4.7699999,0.24660277366638184,-3.643975019454956,-11.568782806396484,58.3648681640625,-436.21826171875,2.471923828125
4.789999900000001,-0.9193734526634216,-4.137180328369141,-17.20473289489746,-38.4368896484375,-341.12548828125,-26.4739990234375
4.8099999,-2.410961151123047,-4.043806552886963,-22.47197723388672,1.89208984375,-276.1077880859375,-63.90380859375
4.829999900000001,-3.8714241981506348,-3.531447410583496,-26.836606979370117,32.318115234375,-188.018798828125,-56.4727783203125
4.8499999,-5.195417881011963,-2.8131868839263916,-29.34333610534668,-0.9307861328125,54.4281005859375,-35.797119140625
4.869999900000001,-6.054935932159424,-1.9919757843017578,-29.058425903320312,-65.3228759765625,313.53759765625,-31.158447265625
4.8899999,-5.978321552276611,-1.1180921792984009,-25.730485916137695,-127.105712890625,353.3477783203125,19.317626953125
4.909999900000001,-5.049371242523193,-0.24181437492370605,-19.907787322998047,-61.82861328125,270.965576171875,47.6837158203125
4.9299999,-3.4835634231567383,0.3447650372982025,-13.295001983642578,10.986328125,217.59033203125,57.7392578125
4.949999900000001,-1.6735470294952393,0.5051765441894531,-7.469909191131592,-56.82373046875,196.6094970703125,83.9385986328125
4.9699999,0.040701430290937424,0.33518823981285095,-3.3877954483032227,-56.793212890625,174.835205078125,67.9168701171875
4.989999900000001,1.460463047027588,0.17717093229293823,-1.0462661981582642,16.357421875,161.4227294921875,24.4598388671875
5.0099999,2.3535003662109375,0.24181437492370605,-0.035913024097681046,27.4810791015625,193.54248046875,9.857177734375
5.029999900000001,2.698265314102173,0.47405192255973816,0.3878606855869293,-135.3759765625,219.7418212890625,71.624755859375
5.0499999,2.631227731704712,0.3998316824436188,0.7805097699165344,-250.3814697265625,205.169677734375,166.7633056640625
5.069999900000001,2.5330653190612793,-0.3998316824436188,1.6112977266311646,-261.0321044921875,106.475830078125,198.822021484375
5.0899999000000005,2.7724854946136475,-2.0901381969451904,2.5689783096313477,-135.986328125,-51.8035888671875,124.32861328125
5.109999900000001,3.3255462646484375,-4.158728122711182,2.5953147411346436,-14.6026611328125,-265.838623046875,-3.8604736328125
5.1299999000000005,3.2609026432037354,-5.781997203826904,0.4596867263317108,163.3758544921875,-500,-136.2457275390625
5.1499999,1.8076223134994507,-6.584054470062256,-4.809951305389404,358.0169677734375,-500,-185.882568359375
5.1699999000000005,-0.6919242739677429,-6.414066314697266,-12.75870132446289,248.6419677734375,-500,-114.3646240234375
5.1899999,-3.7253777980804443,-5.616796970367432,-21.966800689697266,50.72021484375,-280.9295654296875,-84.9609375
5.209999900000001,-6.169857978820801,-4.383783340454102,-29.630640029907227,50.2777099609375,82.4127197265625,-133.6212158203125
5.2299999,-7.19936466217041,-2.7988216876983643,-33.18124008178711,-13.0767822265625,371.368408203125,-126.6937255859375
5.249999900000001,-7.067683219909668,-0.9864110946655273,-31.723173141479492,-85.205078125,480.804443359375,-61.614990234375
5.2699999,-6.162675380706787,0.7781155705451965,-25.594017028808594,-137.1612548828125,499.9847412109375,0.2899169921875
5.289999900000001,-4.809951305389404,1.8746598958969116,-16.644489288330078,-227.874755859375,499.9847412109375,64.6820068359375
5.3099999,-3.335123062133789,1.9033904075622559,-7.086836814880371,-285.4766845703125,498.8250732421875,147.3236083984375
5.329999900000001,-1.8387469053268433,0.7805097699165344,1.50355863571167,-190.3076171875,404.0069580078125,157.806396484375
5.3499999,-0.31364041566848755,-1.1348515748977661,8.274360656738281,-139.1754150390625,252.7008056640625,100.3875732421875
5.369999900000001,1.1252747774124146,-3.1962592601776123,12.660538673400879,-68.9544677734375,44.9676513671875,19.4854736328125
5.3899999,2.27209734916687,-4.728548526763916,14.238317489624023,34.332275390625,-150.634765625,-44.8760986328125
5.409999900000001,3.1196448802948,-5.377377033233643,12.921506881713867,87.982177734375,-318.4051513671875,-62.19482421875
5.4299999,3.3686418533325195,-5.003881454467773,8.80587387084961,115.7989501953125,-456.23779296875,-70.2972412109375
5.449999900000001,2.9233202934265137,-4.02465295791626,2.3582887649536133,154.266357421875,-500,-59.173583984375
5.4699999,1.98958158493042,-3.0837318897247314,-5.537788391113281,143.2037353515625,-500,4.791259765625
5.489999900000001,0.5051765441894531,-2.698265314102173,-13.795390129089355,73.1964111328125,-424.31640625,43.1365966796875
5.5099999,-0.9840168952941895,-3.1459810733795166,-21.380220413208008,54.229736328125,-247.3602294921875,15.716552734375
5.529999900000001,-2.056619167327881,-4.036623954772949,-26.961105346679688,21.8353271484375,-21.0723876953125,-32.135009765625
5.5499999,-2.5977089405059814,-4.60165548324585,-29.40079689025879,-10.68115234375,160.919189453125,-75.6683349609375
5.569999900000001,-2.5282769203186035,-4.46518611907959,-28.25636863708496,-54.0771484375,247.467041015625,-61.09619140625
5.5899999000000005,-1.9153614044189453,-3.603273630142212,-23.87737274169922,-87.5701904296875,259.33837890625,-6.500244140625
5.609999900000001,-0.9217676520347595,-2.6168625354766846,-17.513586044311523,-65.673828125,237.7777099609375,27.0233154296875
5.6299999000000005,0.23942017555236816,-2.1332337856292725,-10.826580047607422,5.3558349609375,221.832275390625,20.233154296875
5.6499999,1.3742717504501343,-2.432508945465088,-4.910507678985596,-32.7301025390625,193.29833984375,1.4495849609375
5.6699999000000005,2.183511972427368,-3.3470940589904785,-0.5386953949928284,-46.783447265625,142.0745849609375,-35.33935546875
5.6899999,2.894589900970459,-4.398148536682129,2.233790159225464,-18.829345703125,86.48681640625,-81.35986328125
5.709999900000001,3.579331636428833,-4.659116744995117,3.576937437057495,-35.308837890625,18.0816650390625,-155.33447265625
5.7299999,3.9911341667175293,-3.514688014984131,3.4380736351013184,55.694580078125,-58.9752197265625,-239.68505859375
5.749999900000001,4.185064792633057,-0.9361328482627869,2.0039467811584473,88.37890625,-143.341064453125,-192.9779052734375
5.7699999,4.036623954772949,2.3056161403656006,-0.6488286852836609,42.694091796875,-173.2635498046875,-52.30712890625
5.789999900000001,3.88818359375,5.224148273468018,-4.017470359802246,-28.7933349609375,-163.970947265625,13.0615234375
5.8099999,3.737348794937134,7.180211067199707,-7.771578788757324,4.852294921875,-199.737548828125,-22.308349609375
5.829999900000001,3.6990416049957275,8.094796180725098,-11.41555404663086,113.70849609375,-180.8624267578125,-46.356201171875
5.8499999,3.4763808250427246,8.355764389038086,-14.405911445617676,79.6966552734375,-71.3043212890625,14.892578125
5.869999900000001,3.0382418632507324,8.185775756835938,-16.115371704101562,-24.505615234375,26.3519287109375,92.0562744140625
5.8899999,2.499546527862549,7.728483200073242,-16.369157791137695,-25.848388671875,26.5350341796875,119.0338134765625
5.909999900000001,2.0039467811584473,6.835445880889893,-15.466543197631836,7.720947265625,-31.6162109375,143.9971923828125
5.9299999,1.5610195398330688,5.521028995513916,-14.056358337402344,-38.63525390625,-41.351318359375,191.4825439453125
5.949999900000001,1.113303780555725,3.8810009956359863,-13.002909660339355,-64.4073486328125,-11.4898681640625,202.0263671875
5.9699999,0.6344634294509888,2.0685901641845703,-12.404358863830566,-40.2984619140625,23.3612060546875,181.6253662109375
5.989999900000001,0.24660277366638184,0.3280056416988373,-11.772290229797363,-71.5179443359375,53.3599853515625,195.3277587890625
6.0099999,0.040701430290937424,-1.1348515748977661,-10.776301383972168,-103.240966796875,31.4788818359375,232.574462890625
6.029999900000001,-0.3256114423274994,-2.4013843536376953,-9.368511199951172,-69.122314453125,-21.6827392578125,242.4163818359375
6.0499999,-0.8978256583213806,-3.8953661918640137,-8.037335395812988,-47.54638671875,-78.704833984375,271.697998046875
6.069999900000001,-1.9057846069335938,-5.889736175537109,-7.422025203704834,-41.3818359375,-138.5498046875,303.5430908203125
6.0899999000000005,-3.378218650817871,-8.528146743774414,-7.9176249504089355,-6.4849853515625,-153.472900390625,272.9034423828125
6.109999900000001,-5.013458251953125,-11.456254959106445,-9.476250648498535,-78.094482421875,-83.5723876953125,197.2198486328125
6.1299999000000005,-6.392518520355225,-14.159308433532715,-11.046846389770508,-336.4715576171875,15.8843994140625,132.9803466796875
6.149999900000001,-7.184999465942383,-15.8903169631958,-11.97100830078125,-367.828369140625,79.7271728515625,19.0582275390625
6.1699999000000005,-7.412448406219482,-16.132131576538086,-11.659762382507324,-76.7059326171875,78.9031982421875,-186.9964599609375
6.1899999,-7.429207801818848,-14.700398445129395,-10.41956615447998,291.015625,75.1953125,-379.6234130859375
6.209999900000001,-7.3238630294799805,-11.87763500213623,-8.789113998413086,235.8856201171875,28.5797119140625,-412.017822265625
6.2299999,-7.007828235626221,-8.015787124633789,-7.407660007476807,52.7191162109375,-22.4761962890625,-413.4368896484375
6.249999900000001,-6.71334171295166,-3.44765043258667,-6.864176273345947,131.28662109375,-78.765869140625,-500
6.2699999,-6.517016887664795,1.460463047027588,-7.5201873779296875,273.49853515625,-130.9967041015625,-500
6.289999900000001,-6.224924564361572,6.162675380706787,-9.2033109664917,20.56884765625,-115.4327392578125,-343.048095703125
6.3099999,-6.169857978820801,9.624691009521484,-11.408370971679688,-265.411376953125,-41.3818359375,-116.3787841796875
6.329999900000001,-5.16429328918457,11.461043357849121,-12.770671844482422,-351.5472412109375,36.3616943359375,-58.9599609375
6.3499999,-3.4596214294433594,12.325350761413574,-13.558363914489746,11.5966796875,24.2156982421875,-277.1759033203125
6.369999900000001,-2.3295583724975586,12.887988090515137,-13.529633522033691,267.76123046875,-22.7813720703125,-489.715576171875
6.3899999,-1.7334020137786865,14.264654159545898,-13.922283172607422,148.98681640625,-36.6973876953125,-369.0948486328125
6.409999900000001,-2.829946517944336,16.184803009033203,-14.841656684875488,111.4044189453125,77.7130126953125,-141.021728515625
6.4299999,-4.525041103363037,17.695545196533203,-15.447389602661133,85.9527587890625,227.691650390625,42.6788330078125
6.449999900000001,-6.0190229415893555,17.92059898376465,-15.076288223266602,25.0396728515625,260.040283203125,217.4072265625
6.4699999,-7.228095054626465,16.072275161743164,-13.062764167785645,-106.7047119140625,267.1661376953125,421.93603515625
6.489999900000001,-8.101978302001953,11.93748950958252,-9.734824180603027,-379.180908203125,192.6727294921875,499.9847412109375
6.5099999,-8.734047889709473,5.870582580566406,-6.169857978820801,-478.4088134765625,-36.6363525390625,499.9847412109375
6.529999900000001,-9.050082206726074,-1.2330138683319092,-3.7253777980804443,-253.2501220703125,-231.5216064453125,499.9847412109375
6.5499999,-8.846575736999512,-8.068459510803223,-3.181894063949585,-136.8560791015625,-276.4434814453125,465.8355712890625
6.569999900000001,-8.142680168151855,-13.436260223388672,-4.8051629066467285,-151.2908935546875,-232.8948974609375,285.6903076171875
6.5899999000000005,-7.156269073486328,-16.721105575561523,-7.857769966125488,-131.6375732421875,-146.9268798828125,103.8665771484375
6.609999900000001,-6.217741966247559,-17.767370223999023,-11.185709953308105,-50.8575439453125,-38.02490234375,-74.920654296875
6.6299999000000005,-5.56173038482666,-16.644489288330078,-13.613430976867676,4.1046142578125,33.5845947265625,-239.1357421875
6.649999900000001,-5.200206279754639,-13.682862281799316,-14.688426971435547,57.2052001953125,28.1829833984375,-364.5477294921875
6.6699999000000005,-5.123591423034668,-9.239224433898926,-14.681244850158691,220.611572265625,-23.13232421875,-465.88134765625
6.6899999,-5.195417881011963,-3.892971992492676,-14.477737426757812,347.5341796875,-57.0220947265625,-488.6322021484375
6.709999900000001,-4.967968463897705,1.5131354331970215,-14.626177787780762,213.68408203125,-29.8309326171875,-377.0904541015625
6.7299999,-4.426878929138184,6.145915985107422,-15.167267799377441,42.4346923828125,57.8460693359375,-246.734619140625
6.749999900000001,-3.313575267791748,9.418789863586426,-15.358803749084473,-27.130126953125,117.0654296875,-172.027587890625
6.7699999,-1.8148049116134644,11.30063247680664,-14.516044616699219,-59.99755859375,114.349365234375,-133.1939697265625
6.789999900000001,-0.47644615173339844,12.081141471862793,-12.983756065368652,53.924560546875,44.9371337890625,-95.2606201171875
6.8099999,0.395043283700943,11.97100830078125,-11.08754825592041,25.0701904296875,7.537841796875,39.0472412109375
6.829999900000001,0.3974374830722809,10.819397926330566,-9.581595420837402,-142.1051025390625,17.3797607421875,214.1265869140625
6.8499999,-0.38546648621559143,8.257601737976074,-8.671798706054688,-291.1224365234375,9.5062255859375,359.31396484375
6.869999900000001,-1.4197616577148438,4.2951979637146,-8.24084186553955,-379.2877197265625,-62.255859375,400.6500244140625
6.8899999,-2.387019157409668,-0.48602294921875,-8.219294548034668,-283.1268310546875,-107.0098876953125,284.7747802734375
6.909999900000001,-2.6192567348480225,-4.946420669555664,-8.69095230102539,-75.4852294921875,-82.03125,95.1385498046875
6.9299999,-2.2864625453948975,-7.860164165496826,-9.32302188873291,96.3592529296875,-7.4005126953125,-83.6181640625
6.949999900000001,-1.5945383310317993,-8.60236644744873,-9.720458984375,78.8116455078125,28.6102294921875,-188.0340576171875
6.9699999,-0.9624691009521484,-7.122750282287598,-9.852140426635742,146.942138671875,-2.86865234375,-236.26708984375
6.989999900000001,-0.667982280254364,-3.9456443786621094,-9.47146224975586,137.5732421875,-49.2401123046875,-220.2301025390625
7.0099999,-0.8164227604866028,0.014365210197865963,-9.141061782836914,76.7974853515625,-91.3238525390625,-158.4320068359375
7.029999900000001,-1.278503656387329,3.7469255924224854,-9.160215377807617,11.6119384765625,-110.565185546875,-56.488037109375
7.0499999,-1.9345149993896484,6.375759124755859,-9.655815124511719,-86.6851806640625,-102.813720703125,57.281494140625
7.069999900000001,-2.4660277366638184,7.417236804962158,-10.45547866821289,-169.2352294921875,-88.3636474609375,131.3018798828125
7.0899999000000005,-2.892195701599121,6.8809356689453125,-11.17852783203125,-181.33544921875,-56.09130859375,139.8468017578125
7.109999900000001,-3.07415509223938,5.202600479125977,-11.51850414276123,-135.6201171875,-12.481689453125,112.0758056640625
7.1299999000000005,-2.8107926845550537,3.1866824626922607,-11.276689529418945,-125.3509521484375,-2.74658203125,81.97021484375
7.149999900000001,-2.4133553504943848,1.623268723487854,-10.429142951965332,-101.4862060546875,-9.185791015625,25.45166015625
7.1699999000000005,-1.9704279899597168,0.9097966551780701,-9.404424667358398,-4.94384765625,-30.9295654296875,-35.888671875
7.1899999,-1.723825216293335,1.1061211824417114,-8.614337921142578,31.1279296875,-55.7098388671875,-46.32568359375
7.209999900000001,-1.9057846069335938,1.8602946996688843,-8.310274124145508,18.00537109375,-47.607421875,-22.552490234375
7.2299999,-2.3535003662109375,2.75812029838562,-8.698134422302246,28.5491943359375,-18.0816650390625,-19.012451171875
7.249999900000001,-2.8634653091430664,3.466804027557373,-9.337387084960938,56.915283203125,17.547607421875,-20.5535888671875
7.2699999,-3.160346269607544,3.7924153804779053,-9.876082420349121,42.236328125,40.1763916015625,-1.1444091796875
7.289999900000001,-3.2178070545196533,3.758896589279175,-10.017339706420898,12.1307373046875,43.0908203125,5.5084228515625
7.3099999,-3.021482467651367,3.4356794357299805,-9.730035781860352,-8.4686279296875,27.28271484375,0.396728515625
7.329999900000001,-2.7293899059295654,3.098097085952759,-9.289502143859863,7.5531005859375,9.0789794921875,-16.6473388671875
7.3499999,-2.499546527862549,2.9520506858825684,-8.932766914367676,26.2908935546875,6.9580078125,-24.1241455078125
7.369999900000001,-2.4588451385498047,2.9664158821105957,-8.916007041931152,-4.730224609375,11.3372802734375,3.84521484375
7.3899999,-2.4205379486083984,3.1100680828094482,-9.121908187866211,-9.124755859375,33.1268310546875,15.2740478515625
7.409999900000001,-2.4612393379211426,3.066972494125366,-9.514557838439941,66.6046142578125,68.267822265625,-5.67626953125
7.4299999,-2.3295583724975586,2.873042106628418,-9.804255485534668,86.944580078125,80.2154541015625,-27.34375
7.449999900000001,-2.0470423698425293,2.559401512145996,-9.892841339111328,74.005126953125,81.5277099609375,-32.2723388671875
7.4699999,-1.7357962131500244,2.2194249629974365,-9.564835548400879,22.1710205078125,87.310791015625,-20.8587646484375
7.489999900000001,-1.316810965538025,1.987187385559082,-8.999804496765137,6.439208984375,47.4090576171875,-18.463134765625
7.5099999,-0.9193734526634216,1.9847931861877441,-8.394071578979492,35.0494384765625,-4.852294921875,-35.2783203125
7.529999900000001,-0.7422025203704834,2.1499931812286377,-8.063671112060547,73.1964111328125,-10.1470947265625,-33.0657958984375
7.5499999,-0.6224924325942993,2.3989901542663574,-8.245630264282227,42.999267578125,9.21630859375,1.007080078125
7.569999900000001,-0.7134721279144287,2.5067291259765625,-8.633491516113281,-12.9852294921875,26.397705078125,26.9012451171875
7.5899999000000005,-0.8403648138046265,2.3918075561523438,-9.186552047729492,3.6163330078125,6.5155029296875,19.1650390625
7.609999900000001,-0.9744400978088379,2.1092917919158936,-9.746794700622559,47.9583740234375,-6.7901611328125,2.655029296875
7.6299999000000005,-1.0462661981582642,1.778891921043396,-10.132261276245117,13.214111328125,15.4266357421875,14.6942138671875
7.649999900000001,-1.0438719987869263,1.482010841369629,-10.400412559509277,-2.349853515625,46.0357666015625,20.6756591796875
7.6699999000000005,-0.9050082564353943,1.2258312702178955,-10.319009780883789,-3.7689208984375,41.7327880859375,14.34326171875
7.6899999,-0.6368576288223267,1.0223240852355957,-9.821015357971191,-12.3138427734375,12.664794921875,5.950927734375
7.709999900000001,-0.3926490843296051,0.9792284965515137,-9.260771751403809,27.34375,-12.2528076171875,-11.962890625
7.7299999,-0.2753331959247589,1.0845733880996704,-8.927978515625,37.689208984375,-25.665283203125,-12.0849609375
7.749999900000001,-0.2992752194404602,1.2713210582733154,-8.992621421813965,4.33349609375,-19.287109375,5.9661865234375
7.7699999,-0.4668693244457245,1.4197616577148438,-9.378087997436523,-11.0931396484375,-8.056640625,13.24462890625
7.789999900000001,-0.6009446382522583,1.455674648284912,-9.837775230407715,7.568359375,-5.3558349609375,3.1890869140625
7.8099999,-0.646434485912323,1.4460978507995605,-10.101137161254883,12.2222900390625,0.3204345703125,-8.270263671875
7.829999900000001,-0.667982280254364,1.4437036514282227,-10.125079154968262,15.869140625,1.89208984375,-6.134033203125
7.8499999,-0.6823474764823914,1.4245500564575195,-9.950302124023438,-4.5013427734375,-3.631591796875,13.580322265625
7.869999900000001,-0.6871358752250671,1.3311761617660522,-9.696516990661621,-43.0145263671875,-21.2860107421875,29.4952392578125
7.8899999,-0.6655880808830261,1.1803414821624756,-9.368511199951172,-27.801513671875,-33.14208984375,13.916015625
7.909999900000001,-0.6751648783683777,0.9624691009521484,-9.062053680419922,17.669677734375,-27.130126953125,-9.9029541015625
7.9299999,-0.6943184733390808,0.7565677165985107,-8.791508674621582,5.0048828125,-34.271240234375,-11.2457275390625
7.949999900000001,-0.7541735172271729,0.6153098344802856,-8.676587104797363,-14.4195556640625,-52.3681640625,-14.007568359375
7.9699999,-1.0031704902648926,0.6129156351089478,-8.925583839416504,35.70556640625,-60.8673095703125,-45.3948974609375
7.989999900000001,-1.3024457693099976,0.7350199222564697,-9.48343276977539,51.6204833984375,-37.5213623046875,-51.45263671875
8.0099999,-1.6352397203445435,0.950498104095459,-10.278307914733887,19.2413330078125,-0.2899169921875,-27.0538330078125
8.0299999,-1.9081788063049316,1.1324573755264282,-10.81460952758789,-30.1666259765625,26.5655517578125,-3.082275390625
8.049999900000001,-2.008735179901123,1.216254472732544,-10.977415084838867,-28.106689453125,17.8985595703125,-10.8489990234375
8.069999900000001,-1.9393033981323242,1.2641384601593018,-10.788272857666016,3.7841796875,-10.68115234375,-27.8778076171875
8.0899999,-1.7741034030914307,1.3263877630233765,-10.347740173339844,-8.7432861328125,-2.685546875,-15.07568359375
8.1099999,-1.625662922859192,1.4101848602294922,-9.921571731567383,-26.0772705078125,19.287109375,4.547119140625
8.129999900000001,-1.5179238319396973,1.4460978507995605,-9.560047149658203,-18.24951171875,13.092041015625,4.669189453125
8.149999900000001,-1.4197616577148438,1.4173674583435059,-9.296685218811035,11.016845703125,-3.7689208984375,-12.39013671875
8.1699999,-1.4101848602294922,1.3670891523361206,-9.196128845214844,24.4903564453125,-5.523681640625,-20.32470703125
8.1899999,-1.4293384552001953,1.3263877630233765,-9.162610054016113,-8.1939697265625,6.439208984375,-5.7830810546875
8.2099999,-1.4245500564575195,1.280897855758667,-9.05247688293457,-53.0548095703125,6.683349609375,8.2855224609375
8.229999900000001,-1.400607943534851,1.2018892765045166,-8.932766914367676,-20.843505859375,-22.7508544921875,-8.0718994140625
8.2499999,-1.3670891523361206,1.1516109704971313,-8.875306129455566,30.33447265625,-41.3665771484375,-37.53662109375
8.2699999,-1.4173674583435059,1.2449848651885986,-9.064447402954102,33.9813232421875,-28.3050537109375,-40.496826171875
8.2899999,-1.5729905366897583,1.4915876388549805,-9.442731857299805,0.3204345703125,-3.1280517578125,-11.1236572265625
8.309999900000001,-1.7884687185287476,1.7310078144073486,-9.813833236694336,-27.9998779296875,3.753662109375,19.8516845703125
8.3299999,-1.941697597503662,1.8100165128707886,-9.986215591430664,-23.74267578125,-4.150390625,24.3988037109375
8.3499999,-2.03507137298584,1.6831238269805908,-9.830592155456543,-7.4005126953125,-1.2359619140625,7.537841796875
8.3699999,-2.0901381969451904,1.4173674583435059,-9.552865028381348,6.378173828125,-6.561279296875,-1.4801025390625
8.389999900000001,-2.126051187515259,1.1635819673538208,-9.334992408752441,-1.922607421875,-26.458740234375,4.33349609375
8.4099999,-2.2194249629974365,1.0558429956436157,-9.409213066101074,18.341064453125,-32.4859619140625,-4.0130615234375
8.4299999,-2.3271639347076416,1.072602391242981,-9.818621635437012,26.6265869140625,-11.1236572265625,-7.75146484375
8.4499999,-2.4157495498657227,1.1468225717544556,-10.223240852355957,-14.6942138671875,27.7252197265625,6.927490234375
8.469999900000001,-2.408566951751709,1.216254472732544,-10.326191902160645,-39.764404296875,36.224365234375,16.78466796875
8.4899999,-2.3032219409942627,1.2066776752471924,-9.940725326538086,-25.6805419921875,9.9029541015625,7.99560546875
8.5099999,-2.0685901641845703,1.139639973640442,-9.289502143859863,-22.7508544921875,-23.0560302734375,0.6561279296875
8.5299999,-1.8794482946395874,1.1300631761550903,-8.78193187713623,-9.429931640625,-28.6407470703125,-6.805419921875
8.549999900000001,-1.8124107122421265,1.216254472732544,-8.719682693481445,-6.4697265625,-22.8118896484375,-6.3323974609375
8.569999900000001,-1.8842366933822632,1.3503297567367554,-9.066842079162598,-17.63916015625,-13.8092041015625,3.997802734375
8.5899999,-2.0039467811584473,1.4317326545715332,-9.528923034667969,-27.7557373046875,4.2724609375,6.9122314453125
8.6099999,-2.0685901641845703,1.4053963422775269,-9.785101890563965,-25.3143310546875,13.397216796875,-1.9683837890625
8.629999900000001,-2.075772762298584,1.2713210582733154,-9.81143856048584,-8.36181640625,-5.523681640625,-9.94873046875
8.649999900000001,-2.011129379272461,1.113303780555725,-9.75397777557373,4.180908203125,-28.2135009765625,-11.322021484375
8.6699999,-2.0470423698425293,0.9768342971801758,-9.765948295593262,-9.5062255859375,-15.350341796875,-12.1307373046875
8.6899999,-2.099714994430542,0.8667010068893433,-9.828198432922363,-38.1317138671875,10.1470947265625,-11.9171142578125
8.709999900000001,-2.2242133617401123,0.7637503147125244,-9.880870819091797,-49.2401123046875,5.767822265625,-13.214111328125
8.729999900000001,-2.3247697353363037,0.7541735172271729,-9.904812812805176,-19.3328857421875,-18.8140869140625,-30.364990234375
8.7499999,-2.4468741416931152,0.9169792532920837,-9.950302124023438,4.8828125,-11.962890625,-45.989990234375
8.7699999,-2.58813214302063,1.2689268589019775,-10.091560363769531,-9.0179443359375,15.4876708984375,-37.53662109375
8.7899999,-2.738966703414917,1.6855180263519287,-10.204087257385254,-38.26904296875,26.9622802734375,-15.5792236328125
8.809999900000001,-2.8443117141723633,2.0015525817871094,-10.180145263671875,-44.1131591796875,14.434814453125,-7.9498291015625
8.8299999,-2.8850131034851074,2.1380221843719482,-10.029311180114746,-24.7039794921875,4.5623779296875,-21.9573974609375
8.8499999,-2.851494312286377,2.1308395862579346,-9.823410034179688,-17.39501953125,12.9241943359375,-33.294677734375
8.8699999,-2.808398485183716,2.1068975925445557,-9.653421401977539,-26.3824462890625,20.904541015625,-30.9906005859375
8.889999900000001,-2.779668092727661,2.1499931812286377,-9.524134635925293,-34.0576171875,13.9617919921875,-26.2908935546875
8.9099999,-2.7437551021575928,2.298433542251587,-9.402029991149902,-29.7088623046875,8.1787109375,-32.9742431640625
8.9299999,-2.6408045291900635,2.583343744277954,-9.229647636413574,-28.289794921875,20.782470703125,-44.921875
8.9499999,-2.5043349266052246,3.0334534645080566,-8.98543930053711,-23.223876953125,30.517578125,-48.03466796875
8.969999900000001,-2.341529369354248,3.581725835800171,-8.729259490966797,-4.425048828125,17.730712890625,-32.0892333984375
8.9899999,-2.2242133617401123,4.036623954772949,-8.365341186523438,-20.3399658203125,12.3291015625,-2.7923583984375
9.0099999,-2.0661959648132324,4.177882194519043,-8.039729118347168,-40.5120849609375,8.6212158203125,15.4266357421875
9.0299999,-1.920149803161621,4.0294413566589355,-7.728483200073242,-31.2347412109375,4.0130615234375,-2.74658203125
9.049999900000001,-1.843535304069519,3.756502389907837,-7.627926826477051,6.2255859375,-8.7738037109375,-30.8380126953125
9.069999900000001,-1.845929503440857,3.5218706130981445,-7.690176010131836,-3.7689208984375,-11.0931396484375,-18.341064453125
9.0899999,-1.944091796875,3.4404678344726562,-7.970297336578369,-36.43798828125,-2.7313232421875,5.1727294921875
9.1099999,-2.0829553604125977,3.4763808250427246,-8.33182144165039,-24.1546630859375,1.0223388671875,-0.0457763671875
9.129999900000001,-2.1140801906585693,3.5410242080688477,-8.595184326171875,-2.7008056640625,6.134033203125,-10.040283203125
9.149999900000001,-2.0901381969451904,3.6535518169403076,-8.621520042419434,2.838134765625,13.4124755859375,-9.8114013671875
9.1699999,-2.0374655723571777,3.818751811981201,-8.463502883911133,3.41796875,2.1820068359375,-1.9989013671875
9.1899999,-2.0254945755004883,3.9169139862060547,-8.288725852966309,-1.7852783203125,-20.263671875,11.6424560546875
9.209999900000001,-2.0805611610412598,3.883395195007324,-8.329427719116211,-3.8604736328125,-35.9344482421875,15.7470703125
9.229999900000001,-2.1547815799713135,3.708618402481079,-8.643068313598633,5.06591796875,-20.5535888671875,4.7149658203125
9.2499999,-2.212242364883423,3.4763808250427246,-9.07641887664795,0.335693359375,9.5672607421875,-2.960205078125
9.2699999,-2.255337953567505,3.337517261505127,-9.370905876159668,3.2196044921875,19.805908203125,-7.4005126953125
9.2899999,-2.274491548538208,3.3470940589904785,-9.342175483703613,9.0179443359375,6.6680908203125,-4.1351318359375
9.309999900000001,-2.2816741466522217,3.4141316413879395,-9.150638580322266,-1.678466796875,-17.242431640625,10.5438232421875
9.3299999,-2.2649147510528564,3.466804027557373,-8.98543930053711,-2.99072265625,-23.49853515625,14.83154296875
9.3499999,-2.293645143508911,3.4404678344726562,-9.009381294250488,11.8865966796875,-1.1444091796875,3.60107421875
9.3699999,-2.3295583724975586,3.359065055847168,-9.10993766784668,7.598876953125,12.5579833984375,-1.0986328125
9.389999900000001,-2.387019157409668,3.268085241317749,-9.172186851501465,-3.692626953125,4.4097900390625,4.3487548828125
9.4099999,-2.4420857429504395,3.1962592601776123,-9.17936897277832,-1.922607421875,-12.2222900390625,8.6669921875
9.4299999,-2.4420857429504395,3.1076738834381104,-9.165003776550293,-3.8604736328125,-11.993408203125,8.636474609375
9.4499999,-2.3774423599243164,3.0190882682800293,-9.20091724395752,-6.3323974609375,2.532958984375,3.265380859375
9.469999900000001,-2.300827741622925,2.9544448852539062,-9.174580574035645,-6.6986083984375,12.9852294921875,-1.922607421875
9.4899999,-2.207453966140747,2.920926094055176,-9.042900085449219,-6.3934326171875,5.218505859375,-1.1749267578125
9.5099999,-2.118868589401245,2.9544448852539062,-8.78432559967041,-3.84521484375,-9.0789794921875,-2.3651123046875
9.5299999,-2.0590133666992188,3.0861260890960693,-8.607154846191406,18.829345703125,-14.7705078125,-12.420654296875
9.549999900000001,-2.0590133666992188,3.2968156337738037,-8.609549522399902,19.0277099609375,-10.92529296875,-10.589599609375
9.569999900000001,-2.142810583114624,3.533841609954834,-8.78432559967041,2.4871826171875,-1.1138916015625,4.974365234375
9.5899999,-2.274491548538208,3.6607344150543213,-8.932766914367676,-17.059326171875,5.7220458984375,20.8282470703125
9.6099999,-2.3965959548950195,3.6104562282562256,-9.028534889221191,-12.4664306640625,-8.6517333984375,18.341064453125
9.629999900000001,-2.4827871322631836,3.421314239501953,-9.107542991638184,12.02392578125,-21.30126953125,0.213623046875
9.649999900000001,-2.542642116546631,3.2106244564056396,-9.229647636413574,12.9547119140625,-9.21630859375,-5.035400390625
9.6699999,-2.561795711517334,3.0765492916107178,-9.320627212524414,-5.2947998046875,13.641357421875,5.767822265625
9.6899999,-2.580949544906616,2.9927520751953125,-9.330204010009766,-8.4686279296875,11.1846923828125,13.3819580078125
9.709999900000001,-2.5330653190612793,2.9041666984558105,-9.244012832641602,3.753662109375,-11.9171142578125,6.5155029296875
9.729999900000001,-2.449268341064453,2.832340717315674,-9.105149269104004,10.4522705078125,-7.2784423828125,-8.48388671875
9.7499999,-2.346317768096924,2.8395233154296875,-9.004592895507812,7.1258544921875,13.6566162109375,-13.519287109375
9.7699999,-2.255337953567505,2.9712042808532715,-8.901641845703125,-3.5400390625,11.8560791015625,-2.8533935546875
9.7899999,-2.209848165512085,3.205836057662964,-8.813055992126465,5.645751953125,-6.2713623046875,2.1820068359375
9.809999900000001,-2.209848165512085,3.4165258407592773,-8.789113998413086,7.1563720703125,-12.8631591796875,3.631591796875
9.8299999,-2.231395959854126,3.550601005554199,-8.841787338256836,-4.669189453125,1.3427734375,5.5084228515625
9.8499999,-2.2840683460235596,3.6104562282562256,-8.947132110595703,3.662109375,12.20703125,2.8839111328125
9.8699999,-2.3080103397369385,3.6104562282562256,-8.99740982055664,12.6190185546875,3.173828125,6.317138671875
9.889999900000001,-2.346317768096924,3.579331636428833,-8.966285705566406,7.5531005859375,-6.8359375,11.8865966796875
9.9099999,-2.3750481605529785,3.5170822143554688,-8.987833023071289,5.43212890625,-7.75146484375,13.24462890625
9.9299999,-2.456450939178467,3.4141316413879395,-9.009381294250488,0.54931640625,3.082275390625,14.617919921875
9.9499999,-2.5067291259765625,3.1962592601776123,-9.002198219299316,-19.34814453125,5.584716796875,25.0701904296875
9.969999900000001,-2.4636335372924805,2.9065608978271484,-8.9064302444458,-24.4293212890625,-7.049560546875,22.3388671875
9.9899999,-2.363077163696289,2.7126305103302,-8.779537200927734,22.7508544921875,-10.345458984375,-10.1318359375
10.0099999,-2.2361843585968018,2.717418909072876,-8.779537200927734,56.4117431640625,-2.50244140625,-24.871826171875
10.0299999,-2.1954829692840576,2.9257144927978516,-8.889671325683594,19.683837890625,7.4920654296875,4.39453125
10.049999900000001,-2.2697031497955322,3.162740468978882,-9.004592895507812,-23.13232421875,10.19287109375,33.233642578125
10.069999900000001,-2.319981336593628,3.179499864578247,-9.023746490478516,-33.0657958984375,-2.7923583984375,32.65380859375
10.0899999,-2.341529369354248,2.9927520751953125,-8.980650901794434,-0.2899169921875,-13.18359375,-1.77001953125
10.1099999,-2.2912509441375732,2.7724854946136475,-8.939949035644531,23.8037109375,-6.40869140625,-22.857666015625
10.129999900000001,-2.2433669567108154,2.7557260990142822,-8.96389102935791,16.54052734375,6.0882568359375,-13.671875
10.149999900000001,-2.2649147510528564,2.96162748336792,-9.030928611755371,8.1634521484375,2.471923828125,1.1444091796875
10.1699999,-2.319981336593628,3.1962592601776123,-9.057265281677246,-2.960205078125,-6.04248046875,13.1683349609375
10.1899999,-2.3511061668395996,3.270479440689087,-9.006986618041992,-19.7601318359375,-6.89697265625,18.310546875
10.209999900000001,-2.3247697353363037,3.162740468978882,-8.935160636901855,-10.009765625,-7.7972412109375,6.072998046875
10.229999900000001,-2.279279947280884,3.045424461364746,-8.920795440673828,19.4244384765625,-7.26318359375,-14.495849609375
10.2499999,-2.293645143508911,3.0621838569641113,-8.971074104309082,28.2135009765625,-1.1749267578125,-13.580322265625
10.2699999,-2.346317768096924,3.1531636714935303,-9.006986618041992,-13.9617919921875,3.7384033203125,19.34814453125
10.2899999,-2.382230758666992,3.1507694721221924,-9.035717010498047,-36.895751953125,-2.838134765625,37.2467041015625
10.309999900000001,-2.3965959548950195,2.9975404739379883,-9.004592895507812,-6.134033203125,-7.6446533203125,7.659912109375
10.3299999,-2.33913516998291,2.7964274883270264,-8.944737434387207,29.052734375,-2.8228759765625,-24.3682861328125
10.3499999,-2.2864625453948975,2.7509377002716064,-8.882488250732422,24.47509765625,3.7689208984375,-16.8304443359375
10.3699999,-2.3367409706115723,2.889801502227783,-8.89445972442627,8.636474609375,-3.8909912109375,9.27734375
10.389999900000001,-2.4013843536376953,3.0526070594787598,-8.990227699279785,-2.532958984375,-14.2364501953125,20.93505859375
10.4099999,-2.4827871322631836,3.0837318897247314,-9.129091262817383,4.9896240234375,-0.9613037109375,6.8206787109375
10.4299999,-2.5067291259765625,2.9520506858825684,-9.205705642700195,1.89208984375,14.58740234375,-2.3040771484375
10.4499999,-2.4827871322631836,2.7772738933563232,-9.169792175292969,-4.852294921875,6.3629150390625,-0.244140625
10.469999900000001,-2.43011474609375,2.6886885166168213,-9.033323287963867,0.5035400390625,-12.054443359375,-2.3956298828125
10.4899999,-2.360682964324951,2.7293899059295654,-8.884882926940918,7.080078125,-12.3443603515625,-7.110595703125
10.5099999,-2.2816741466522217,2.8634653091430664,-8.822632789611816,5.859375,0.1373291015625,-5.67626953125
10.5299999,-2.2194249629974365,3.0358476638793945,-8.822632789611816,2.410888671875,3.7384033203125,-0.3509521484375
10.549999900000001,-2.161964178085327,3.1531636714935303,-8.789113998413086,-3.2806396484375,-3.1585693359375,6.5765380859375
10.569999900000001,-2.1595699787139893,3.136404275894165,-8.743624687194824,-7.720947265625,-12.2528076171875,11.6729736328125
10.5899999,-2.1930887699127197,2.937685489654541,-8.710105895996094,-17.181396484375,-14.190673828125,13.3056640625
10.6099999,-2.2242133617401123,2.604891538619995,-8.765172004699707,-21.759033203125,-10.7421875,8.11767578125
10.629999900000001,-2.250549554824829,2.2242133617401123,-8.925583839416504,-12.9547119140625,-11.5966796875,-0.518798828125
10.649999900000001,-2.33913516998291,1.8315643072128296,-9.265560150146484,-0.2288818359375,-17.974853515625,-2.0751953125
10.6699999,-2.52109432220459,1.3718775510787964,-9.694122314453125,-25.787353515625,-16.7388916015625,-0.2593994140625
10.6899999,-2.760514497756958,0.7709329724311829,-10.168174743652344,-79.620361328125,-16.937255859375,-12.9547119140625
10.709999900000001,-3.0813376903533936,0.22026655077934265,-10.65898609161377,-67.8253173828125,-20.172119140625,-70.2362060546875
10.729999900000001,-3.471592426300049,0.031124621629714966,-11.097125053405762,20.8892822265625,2.593994140625,-138.3209228515625
10.7499999,-3.8283286094665527,0.4812345504760742,-11.417947769165039,24.261474609375,23.9105224609375,-138.36669921875
10.7699999,-4.288015365600586,1.5442601442337036,-11.686098098754883,-3.84521484375,37.53662109375,-93.902587890625
10.7899999,-4.613626480102539,2.7485435009002686,-11.808202743530273,-36.376953125,45.3338623046875,-42.41943359375
10.809999900000001,-4.754884719848633,3.711012601852417,-11.781867027282715,-49.8046875,59.6771240234375,-35.7666015625
10.8299999,-4.692635536193848,4.268861770629883,-11.657367706298828,-20.6756591796875,76.4923095703125,-65.3533935546875
10.8499999,-4.436455726623535,4.525041103363037,-11.389217376708984,-37.628173828125,85.6170654296875,-63.78173828125
10.8699999,-4.027047157287598,4.642356872558594,-11.118672370910645,-57.9681396484375,82.2601318359375,-38.1317138671875
10.889999900000001,-3.5266590118408203,4.697423934936523,-10.742782592773438,-58.2122802734375,90.4083251953125,-32.8826904296875
10.9099999,-3.043030261993408,4.702212333679199,-10.395624160766602,-46.9207763671875,97.3358154296875,-48.583984375
10.9299999,-2.6168625354766846,4.649539470672607,-10.15141487121582,-39.459228515625,83.984375,-50.445556640625
10.9499999,-2.406172752380371,4.639962673187256,-10.160991668701172,-35.186767578125,76.96533203125,-43.548583984375
10.969999900000001,-2.2649147510528564,4.704606533050537,-10.323798179626465,-40.3289794921875,98.419189453125,-37.7044677734375
10.9899999,-2.075772762298584,4.896142482757568,-10.216058731079102,-75.836181640625,154.0069580078125,-35.2020263671875
11.0099999,-1.8148049116134644,5.252878665924072,-9.720458984375,-81.84814453125,149.3682861328125,-33.9813232421875
11.0299999,-1.4413094520568848,5.7772088050842285,-8.971074104309082,-14.617919921875,76.35498046875,-22.125244140625
11.049999900000001,-1.194706678390503,6.291962146759033,-8.370129585266113,-4.913330078125,47.760009765625,2.62451171875
11.069999900000001,-0.9864110946655273,6.603208065032959,-8.293514251708984,-56.09130859375,72.0672607421875,38.5284423828125
11.0899999,-0.7781155705451965,6.687005519866943,-8.31985092163086,-67.6727294921875,138.916015625,36.07177734375
11.1099999,-0.4884171485900879,6.596025466918945,-8.142680168151855,-44.1741943359375,149.23095703125,10.498046875
11.129999900000001,-0.1388636976480484,6.629544734954834,-7.438784599304199,-2.899169921875,105.926513671875,-5.2947998046875
11.149999900000001,0.08858546614646912,6.909666061401367,-6.715735912322998,42.0989990234375,76.629638671875,11.444091796875
11.1699999,0.3064578175544739,7.261613845825195,-5.863399982452393,-47.54638671875,90.4083251953125,74.3560791015625
11.1899999,0.49559974670410156,7.51779317855835,-5.305551052093506,-60.3790283203125,93.44482421875,93.6431884765625
11.209999900000001,0.8020575642585754,7.5632829666137695,-4.6734819412231445,9.58251953125,75.958251953125,58.319091796875
11.229999900000001,1.1827356815338135,7.412448406219482,-4.127603530883789,88.5467529296875,51.8951416015625,33.87451171875
11.2499999,1.4389152526855469,7.12035608291626,-3.9911341667175293,152.64892578125,42.1905517578125,33.8592529296875
11.2699999,1.5418659448623657,6.722918510437012,-4.285621166229248,152.0233154296875,46.234130859375,39.5355224609375
11.2899999,1.4269442558288574,6.315904140472412,-4.831499099731445,203.6590576171875,90.1336669921875,5.18798828125
11.309999900000001,1.170764684677124,6.071695327758789,-5.25527286529541,209.075927734375,125.48828125,-17.333984375
11.3299999,0.8786720037460327,6.110002517700195,-5.243301868438721,85.723876953125,79.7576904296875,34.698486328125
11.3499999,0.5793967843055725,6.392518520355225,-5.035006046295166,30.1055908203125,18.4173583984375,99.91455078125
11.3699999,0.38546648621559143,6.521805286407471,-4.704606533050537,-15.838623046875,2.471923828125,162.8265380859375
11.389999900000001,0.47884035110473633,6.406883716583252,-4.378994941711426,-56.0760498046875,17.02880859375,191.2078857421875
11.4099999,0.6200982332229614,5.810727596282959,-4.331110954284668,7.8277587890625,-11.7034912109375,188.04931640625
11.4299999,0.9385270476341248,4.642356872558594,-4.402936935424805,28.472900390625,-29.7393798828125,221.5118408203125
11.4499999,1.316810965538025,3.0358476638793945,-4.584896087646484,-66.2078857421875,-31.280517578125,243.377685546875
11.469999900000001,1.7501614093780518,1.1875240802764893,-4.8722004890441895,-42.90771484375,-29.11376953125,176.1322021484375
11.4899999,2.190694570541382,-0.3878606855869293,-5.015852451324463,60.0433349609375,-38.3148193359375,96.466064453125
11.5099999,2.4157495498657227,-1.359906554222107,-5.343858242034912,125.457763671875,-76.9195556640625,92.041015625
11.5299999,2.27209734916687,-1.659181833267212,-5.7341132164001465,95.1385498046875,-74.0203857421875,128.23486328125
11.549999900000001,1.742978811264038,-1.6831238269805908,-6.4164605140686035,29.022216796875,-63.0645751953125,156.829833984375
11.569999900000001,0.9768342971801758,-1.8339585065841675,-7.129932880401611,10.0250244140625,-62.07275390625,163.055419921875
11.5899999,0.28730419278144836,-2.3702597618103027,-7.613561630249023,-19.1192626953125,-71.044921875,177.3529052734375
11.6099999,-0.24181437492370605,-3.2752678394317627,-8.037335395812988,10.1318359375,-83.2977294921875,174.0875244140625
11.629999900000001,-0.5746083855628967,-4.481945514678955,-8.300697326660156,13.0767822265625,-66.2994384765625,162.628173828125
11.649999900000001,-0.7158663272857666,-5.983109951019287,-8.473079681396484,-86.2884521484375,-48.3551025390625,184.87548828125
11.6699999,-0.7589619159698486,-7.6566572189331055,-8.458714485168457,-105.560302734375,-53.436279296875,181.15234375
11.6899999,-0.7996633648872375,-9.344569206237793,-8.288725852966309,-36.376953125,-85.4034423828125,117.401123046875
11.709999900000001,-0.790086567401886,-10.826580047607422,-8.161833763122559,-2.4261474609375,-119.5831298828125,48.4161376953125
11.729999900000001,-0.8643068075180054,-11.772290229797363,-8.506598472595215,11.138916015625,-146.4080810546875,-12.237548828125
11.7499999,-1.0773907899856567,-11.872846603393555,-9.5624418258667,98.785400390625,-139.2669677734375,-87.9364013671875
11.7699999,-1.2952631711959839,-11.118672370910645,-11.013327598571777,106.8878173828125,-86.2884521484375,-110.1531982421875
11.7899999,-1.5179238319396973,-9.691728591918945,-12.27507209777832,19.4244384765625,-39.2303466796875,-81.4208984375
11.809999900000001,-1.656787633895874,-8.056488990783691,-12.899958610534668,-22.8271484375,-48.5992431640625,-63.507080078125
11.8299999,-1.6903064250946045,-6.744466304779053,-12.713211059570312,-55.4046630859375,-89.324951171875,-52.1087646484375
11.8499999,-1.7405846118927002,-6.042964935302734,-12.22000503540039,-40.6494140625,-103.0731201171875,-69.0765380859375
11.8699999,-1.8938134908676147,-5.999869346618652,-11.753135681152344,-26.67236328125,-73.760986328125,-99.91455078125
11.889999900000001,-2.190694570541382,-6.208165168762207,-11.547234535217285,-37.017822265625,-45.074462890625,-141.6473388671875
11.9099999,-2.5306711196899414,-6.102819919586182,-11.66455078125,9.552001953125,-52.0172119140625,-203.5064697265625
11.9299999,-2.875436305999756,-5.147533416748047,-11.872846603393555,38.63525390625,-57.0831298828125,-258.5906982421875
11.9499999,-3.1531636714935303,-3.0526070594787598,-12.303802490234375,43.3197021484375,-62.2711181640625,-272.125244140625
11.969999900000001,-3.3446998596191406,-0.031124621629714966,-13.108254432678223,49.0875244140625,-73.5931396484375,-233.642578125
11.9899999,-3.40216064453125,3.246537446975708,-14.099453926086426,14.923095703125,-37.6129150390625,-133.514404296875
12.0099999,-3.220201253890991,5.913678169250488,-14.721946716308594,-96.0235595703125,48.6297607421875,-11.4898681640625
12.0299999,-2.717418909072876,7.2352776527404785,-14.590265274047852,-166.259765625,83.4808349609375,60.6842041015625
12.049999900000001,-1.900996208190918,7.094019412994385,-13.35964584350586,-131.7138671875,50.048828125,61.2335205078125
12.069999900000001,-1.0223240852355957,5.920860767364502,-11.57596492767334,-21.728515625,2.471923828125,13.1378173828125
12.0899999,-0.29209262132644653,4.359841346740723,-9.849745750427246,30.7769775390625,-7.1258544921875,-2.74658203125
12.1099999,0.11971008777618408,2.784456491470337,-8.671798706054688,-14.923095703125,12.2833251953125,31.73828125
12.129999900000001,0.2106897532939911,1.4293384552001953,-8.133103370666504,-26.702880859375,14.4500732421875,43.548583984375
12.149999900000001,0.13168109953403473,0.21308395266532898,-7.891288757324219,4.486083984375,1.922607421875,23.74267578125
12.1699999,-0.05746084079146385,-0.7876923680305481,-7.747636795043945,8.9874267578125,-11.3067626953125,12.20703125
12.1899999,-0.31124621629714966,-1.5418659448623657,-7.915230751037598,8.6212158203125,-35.9649658203125,19.7906494140625
12.209999900000001,-0.608127236366272,-2.013523578643799,-8.463502883911133,1.8157958984375,-52.215576171875,27.313232421875
12.229999900000001,-0.8810662031173706,-2.2433669567108154,-9.473855972290039,-6.9732666015625,-31.92138671875,16.2506103515625
12.2499999,-1.115697979927063,-2.252943754196167,-10.472238540649414,-15.4571533203125,20.782470703125,-1.983642578125
12.2699999,-1.1659762859344482,-2.0925323963165283,-11.025299072265625,-29.60205078125,38.39111328125,5.950927734375
12.289999900000002,-1.1204863786697388,-1.800439715385437,-10.99896240234375,-12.451171875,0.1983642578125,8.1787109375
12.309999900000001,-0.993593692779541,-1.4891934394836426,-10.69489860534668,16.387939453125,-31.67724609375,-4.1961669921875
12.3299999,-0.8619126081466675,-1.2186486721038818,-10.45547866821289,10.8795166015625,-5.7220458984375,-11.8560791015625
12.3499999,-0.7661445140838623,-0.9672574996948242,-10.340557098388672,-11.1541748046875,37.6739501953125,-8.056640625
12.3699999,-0.7134721279144287,-0.6823474764823914,-10.127472877502441,-9.5367431640625,37.933349609375,-1.3275146484375
12.389999900000001,-0.6703764796257019,-0.4908113479614258,-9.576807022094727,-5.43212890625,7.080078125,12.4969482421875
12.4099999,-0.6033388376235962,-0.524330198764801,-8.899248123168945,-28.7933349609375,-27.313232421875,32.562255859375
12.4299999,-0.5530605912208557,-0.7637503147125244,-8.542511940002441,-21.8963623046875,-42.0074462890625,19.744873046875
12.4499999,-0.5674257874488831,-1.0821791887283325,-8.911218643188477,45.379638671875,-30.5328369140625,-17.0135498046875
12.469999900000001,-0.6344634294509888,-1.3000515699386597,-9.550470352172852,14.801025390625,17.08984375,-15.7928466796875
12.4899999,-0.7110779285430908,-1.316810965538025,-10.072406768798828,-34.332275390625,44.036865234375,5.4779052734375
12.5099999,-0.7661445140838623,-1.1204863786697388,-10.055646896362305,-29.449462890625,12.6953125,6.866455078125
12.5299999,-0.7852981686592102,-0.8451532125473022,-9.737217903137207,18.9666748046875,-39.3218994140625,-3.4637451171875
12.549999900000001,-0.790086567401886,-0.6272808313369751,-9.5408935546875,18.2647705078125,-44.5098876953125,3.2501220703125
12.569999900000001,-0.8379706144332886,-0.5267243981361389,-9.775525093078613,-7.3699951171875,-2.01416015625,11.0626220703125
12.5899999,-0.8547300100326538,-0.5889736413955688,-10.055646896362305,-22.0794677734375,41.1834716796875,7.568359375
12.6099999,-0.8595184087753296,-0.7182605266571045,-10.067618370056152,-3.5247802734375,27.618408203125,-6.7901611328125
12.629999900000001,-0.8331822156906128,-0.7876923680305481,-9.787496566772461,17.3797607421875,-22.76611328125,-10.406494140625
12.649999900000001,-0.8188169598579407,-0.7829039692878723,-9.531316757202148,7.843017578125,-35.8734130859375,3.84521484375
12.6699999,-0.849941611289978,-0.7948749661445618,-9.543288230895996,-9.765625,-2.86865234375,13.8092041015625
12.6899999,-0.8810662031173706,-0.7876923680305481,-9.696516990661621,-4.2877197265625,23.74267578125,-1.0833740234375
12.709999900000001,-0.9265560507774353,-0.7015010714530945,-9.765948295593262,20.4620361328125,10.894775390625,-17.2576904296875
12.729999900000001,-0.9457096457481384,-0.5554547905921936,-9.600749015808105,8.6822509765625,-10.8184814453125,6.9122314453125
12.7499999,-0.933738648891449,-0.5123591423034668,-9.361329078674316,-32.9132080078125,-22.064208984375,42.4652099609375
12.7699999,-0.9217676520347595,-0.6847416758537292,-9.315838813781738,-25.9857177734375,-23.49853515625,28.9154052734375
12.789999900000002,-0.9265560507774353,-0.9792284965515137,-9.576807022094727,17.1661376953125,-17.0745849609375,-17.181396484375
12.809999900000001,-0.9959878921508789,-1.1492167711257935,-10.036493301391602,33.843994140625,2.7923583984375,-31.73828125
12.8299999,-1.0606313943862915,-1.072602391242981,-10.307038307189941,-10.5743408203125,29.47998046875,5.2947998046875
12.8499999,-1.0821791887283325,-0.9050082564353943,-10.24000072479248,-36.31591796875,18.5089111328125,32.073974609375
12.8699999,-1.0079588890075684,-0.7972691655158997,-9.861717224121094,-0.9002685546875,-18.1884765625,8.087158203125
12.889999900000001,-0.9145850539207458,-0.8020575642585754,-9.531316757202148,28.74755859375,-32.4554443359375,-19.134521484375
12.9099999,-0.8523358106613159,-0.8044517636299133,-9.476250648498535,2.7313232421875,-9.6435546875,-8.30078125
12.9299999,-0.9026140570640564,-0.706289529800415,-9.617507934570312,-13.8702392578125,17.51708984375,7.26318359375
12.9499999,-1.0055646896362305,-0.5386953949928284,-9.684545516967773,-1.7852783203125,10.345458984375,4.669189453125
12.969999900000001,-1.1109095811843872,-0.37828385829925537,-9.607931137084961,12.3748779296875,-20.7061767578125,2.0599365234375
12.9899999,-1.1899182796478271,-0.3663128614425659,-9.5408935546875,-7.293701171875,-32.8826904296875,17.0440673828125
13.0099999,-1.2210428714752197,-0.5195417404174805,-9.615114212036133,-19.927978515625,-10.0860595703125,24.627685546875
13.0299999,-1.1971008777618408,-0.7589619159698486,-9.75637149810791,-7.293701171875,10.19287109375,2.3345947265625
13.049999900000001,-1.1803414821624756,-0.9002198576927185,-9.93354320526123,32.3333740234375,-0.5340576171875,-24.261474609375
13.069999900000001,-1.1348515748977661,-0.849941611289978,-9.938331604003906,23.8800048828125,-6.2408447265625,-8.5601806640625
13.0899999,-1.1085153818130493,-0.6799532771110535,-9.86650562286377,-21.7742919921875,-1.7547607421875,23.6968994140625
13.1099999,-1.0797849893569946,-0.5913678407669067,-9.84256362915039,-23.13232421875,-5.7373046875,21.1181640625
13.129999900000001,-1.0773907899856567,-0.6416460275650024,-9.8784761428833,11.71875,-8.0413818359375,-8.4228515625
13.149999900000001,-1.1013327836990356,-0.7661445140838623,-9.897629737854004,14.2669677734375,3.72314453125,-14.617919921875
13.1699999,-1.1444283723831177,-0.8643068075180054,-9.86889934539795,-7.4615478515625,8.392333984375,6.744384765625
13.1899999,-1.2090718746185303,-0.8738836050033569,-9.84495735168457,-3.1585693359375,-5.2032470703125,9.246826171875
13.209999900000001,-1.2545616626739502,-0.8882488012313843,-9.880870819091797,14.739990234375,-14.434814453125,-4.364013671875
13.229999900000001,-1.2665326595306396,-0.9385270476341248,-9.911994934082031,-1.861572265625,4.4403076171875,-3.204345703125
13.2499999,-1.2761094570159912,-0.9720458984375,-9.897629737854004,-16.9525146484375,18.1884765625,3.35693359375
13.2699999,-1.2473790645599365,-0.9696516990661621,-9.804255485534668,-4.0740966796875,-2.5787353515625,1.5411376953125
13.289999900000002,-1.2282254695892334,-0.9145850539207458,-9.66539192199707,15.411376953125,-19.287109375,-6.7596435546875
13.309999900000001,-1.2258312702178955,-0.8188169598579407,-9.651026725769043,10.2691650390625,-7.080078125,-5.706787109375
13.3299999,-1.2473790645599365,-0.7230489253997803,-9.730035781860352,-7.8887939453125,13.2293701171875,4.5166015625
13.3499999,-1.256955862045288,-0.6991068720817566,-9.710882186889648,-24.3682861328125,14.6026611328125,11.9171142578125
13.3699999,-1.2497732639312744,-0.7182605266571045,-9.57201862335205,-4.608154296875,-9.1094970703125,0.1068115234375
13.389999900000001,-1.2401964664459229,-0.7158663272857666,-9.32302188873291,8.453369140625,-18.85986328125,-10.2691650390625
13.4099999,-1.235408067703247,-0.6799532771110535,-9.275136947631836,-4.7149658203125,-19.53125,3.7078857421875
13.4299999,-1.280897855758667,-0.608127236366272,-9.50737476348877,-4.5623779296875,-12.6190185546875,11.3677978515625
13.4499999,-1.314416766166687,-0.6009446382522583,-9.799467086791992,-5.0201416015625,7.537841796875,5.06591796875
13.469999900000001,-1.338358759880066,-0.6560112833976746,-9.926360130310059,-2.960205078125,18.3868408203125,-5.157470703125
13.4899999,-1.3503297567367554,-0.6991068720817566,-9.797073364257812,6.866455078125,1.7242431640625,-8.026123046875
13.5099999,-1.357512354850769,-0.6775590777397156,-9.583989143371582,5.126953125,-26.6265869140625,1.0833740234375
13.5299999,-1.3934253454208374,-0.5578489899635315,-9.528923034667969,2.8839111328125,-25.8331298828125,3.204345703125
13.549999900000001,-1.4197616577148438,-0.4596867263317108,-9.646238327026367,-6.4697265625,2.685546875,6.0882568359375
13.569999900000001,-1.400607943534851,-0.4429273009300232,-9.708487510681152,-20.2484130859375,19.47021484375,10.9710693359375
13.5899999,-1.3455413579940796,-0.507570743560791,-9.521739959716797,-6.622314453125,3.41796875,3.997802734375
13.6099999,-1.2641384601593018,-0.6320692300796509,-9.244012832641602,21.6217041015625,-28.2135009765625,-5.218505859375
13.629999900000001,-1.2306196689605713,-0.7565677165985107,-8.99740982055664,13.641357421875,-24.96337890625,-4.2572021484375
13.649999900000001,-1.2258312702178955,-0.9241618514060974,-8.884882926940918,-17.6239013671875,-6.77490234375,10.284423828125
13.6699999,-1.2856862545013428,-1.2210428714752197,-8.942343711853027,-25.604248046875,-18.3563232421875,18.73779296875
13.6899999,-1.4484920501708984,-1.7477672100067139,-9.215282440185547,-9.429931640625,-48.4771728515625,14.3280029296875
13.709999900000001,-1.7166426181793213,-2.494758129119873,-9.797073364257812,-24.9481201171875,-53.5888671875,8.5296630859375
13.729999900000001,-2.1308395862579346,-3.35667085647583,-10.733205795288086,-43.487548828125,-21.8353271484375,-6.103515625
13.7499999,-2.6192567348480225,-4.177882194519043,-11.645397186279297,-61.2945556640625,12.420654296875,-19.622802734375
13.7699999,-3.0861260890960693,-4.759673118591309,-12.265495300292969,-73.0438232421875,8.3465576171875,-37.750244140625
13.789999900000002,-3.445256233215332,-4.963180065155029,-12.413935661315918,-70.73974609375,-5.4779052734375,-60.4705810546875
13.809999900000001,-3.687070608139038,-4.7405195236206055,-12.279860496520996,-66.7572021484375,3.5247802734375,-75.4852294921875
13.8299999,-3.77565598487854,-4.2760443687438965,-11.961431503295898,-98.0682373046875,28.778076171875,-70.7244873046875
13.8499999,-3.691859006881714,-3.531447410583496,-11.528080940246582,-123.84033203125,38.6810302734375,-83.9691162109375
13.8699999,-3.581725835800171,-2.408566951751709,-11.135432243347168,-64.7430419921875,31.829833984375,-138.1072998046875
13.889999900000001,-3.3734302520751953,-1.0079588890075684,-10.790667533874512,-78.3233642578125,27.862548828125,-124.8321533203125
13.9099999,-3.162740468978882,0.7254431247711182,-10.666168212890625,-127.899169921875,39.8406982421875,-82.1380615234375
13.9299999,-2.9712042808532715,2.6455929279327393,-11.003750801086426,-84.5947265625,35.9344482421875,-97.6409912109375
13.9499999,-2.8227639198303223,4.455609321594238,-11.566388130187988,-52.0782470703125,50.628662109375,-107.8338623046875
13.969999900000001,-2.6599581241607666,5.987898349761963,-12.097901344299316,-96.5423583984375,92.10205078125,-58.65478515625
13.9899999,-2.432508945465088,7.127538681030273,-12.24155330657959,-123.2147216796875,117.5079345703125,-18.798828125
14.0099999,-2.1595699787139893,7.819462776184082,-11.951854705810547,-71.044921875,105.2398681640625,-25.115966796875
14.0299999,-1.802833914756775,8.073247909545898,-11.221623420715332,-37.8570556640625,94.5281982421875,-23.5748291015625
14.049999900000001,-1.434126853942871,7.888894557952881,-10.347740173339844,-60.302734375,106.2774658203125,11.29150390625
14.069999900000001,-1.1276689767837524,7.309497833251953,-9.548076629638672,-75.103759765625,109.5733642578125,34.881591796875
14.0899999,-0.828393816947937,6.54574728012085,-8.803479194641113,-43.701171875,101.7303466796875,12.6953125
14.1099999,-0.545877993106842,5.805939197540283,-8.063671112060547,7.415771484375,108.551025390625,-18.73779296875
14.129999900000001,-0.31842881441116333,5.413290023803711,-7.469909191131592,-13.671875,103.9276123046875,-4.57763671875
14.149999900000001,-0.13168109953403473,5.413290023803711,-7.1706342697143555,-36.224365234375,75.958251953125,30.2276611328125
14.1699999,-0.031124621629714966,5.683835029602051,-7.242460250854492,-38.5284423828125,77.3773193359375,39.4287109375
14.1899999,0.05267243832349777,6.09324312210083,-7.491456985473633,-24.261474609375,112.213134765625,30.9600830078125
14.209999900000001,0.18914192914962769,6.502651691436768,-7.594407558441162,-38.7725830078125,143.2647705078125,37.90283203125
14.229999900000001,0.35913026332855225,6.964732646942139,-7.218518257141113,-42.5567626953125,137.2833251953125,45.2880859375
14.2499999,0.5841852426528931,7.513004779815674,-6.229712963104248,15.7012939453125,113.8916015625,29.9072265625
14.2699999,0.7709329724311829,8.159439086914062,-5.257667064666748,141.1285400390625,76.934814453125,16.2506103515625
14.289999900000002,0.8164227604866028,8.705317497253418,-4.496310710906982,168.609619140625,71.5179443359375,52.215576171875
14.309999900000001,0.7852981686592102,8.949525833129883,-4.031835556030273,76.8280029296875,98.663330078125,114.105224609375
14.3299999,0.7445967197418213,8.686163902282715,-3.6822822093963623,-2.838134765625,86.7767333984375,150.1922607421875
14.3499999,0.7781155705451965,7.814674377441406,-3.40216064453125,21.78955078125,28.472900390625,153.900146484375
14.3699999,0.9145850539207458,6.440402507781982,-3.0597896575927734,30.6854248046875,8.0718994140625,171.0052490234375
14.389999900000001,1.1659762859344482,4.728548526763916,-2.80361008644104,-46.875,31.5704345703125,206.3140869140625
14.4099999,1.5873557329177856,2.7222073078155518,-2.5665841102600098,-115.3411865234375,14.251708984375,223.6328125
14.4299999,2.099714994430542,0.9457096457481384,-2.382230758666992,-70.9228515625,-50.933837890625,150.7415771484375
14.4499999,2.47560453414917,-0.07661445438861847,-2.6240451335906982,69.4427490234375,-93.20068359375,62.1337890625
14.469999900000001,2.5977089405059814,-0.33518823981285095,-3.066972494125366,21.54541015625,-65.460205078125,112.5030517578125
14.4899999,2.3535003662109375,-0.22744916379451752,-3.7277719974517822,-47.576904296875,-40.1153564453125,201.8280029296875
14.5099999,1.8507179021835327,-0.40222588181495667,-4.398148536682129,-34.7137451171875,-103.1646728515625,206.695556640625
14.5299999,1.3024457693099976,-1.2952631711959839,-5.195417881011963,5.401611328125,-177.3223876953125,150.9857177734375
14.549999900000001,0.8571242094039917,-2.6815059185028076,-6.315904140472412,27.7557373046875,-146.0418701171875,110.2142333984375
14.569999900000001,0.569819986820221,-4.216189384460449,-7.534552574157715,-5.9967041015625,-61.5234375,117.3095703125
14.5899999,0.49559974670410156,-5.590460777282715,-8.391676902770996,-30.6854248046875,-38.0859375,120.269775390625
14.6099999,0.5363011956214905,-6.689399719238281,-8.729259490966797,-1.40380859375,-100.311279296875,67.230224609375
14.629999900000001,0.5937620401382446,-7.364564418792725,-8.841787338256836,38.9556884765625,-146.8353271484375,19.5159912109375
14.649999900000001,0.629675030708313,-7.702147006988525,-9.131484985351562,26.2298583984375,-110.7330322265625,28.7017822265625
14.6699999,0.6823474764823914,-7.733271598815918,-9.634267807006836,-5.889892578125,-63.9190673828125,27.28271484375
14.6899999,0.6799532771110535,-7.343016624450684,-10.261548042297363,33.905029296875,-75.2105712890625,-41.5802001953125
14.709999900000001,0.6105214357376099,-6.598419666290283,-10.886435508728027,70.1141357421875,-113.1134033203125,-81.1767578125
14.729999900000001,0.13168109953403473,-4.565742492675781,-12.1194486618042,-91.583251953125,-70.556640625,30.548095703125
14.7499999,-0.038307227194309235,-4.003105163574219,-12.480973243713379,-96.9696044921875,-55.145263671875,7.904052734375
14.7699999,-0.06224924325942993,-3.885789394378662,-12.375628471374512,-42.29736328125,-56.7779541015625,-59.0362548828125
14.789999900000002,-0.05746084079146385,-3.869029998779297,-11.973402976989746,44.6929931640625,-60.6689453125,-103.6834716796875
14.809999900000001,-0.12210428714752197,-3.711012601852417,-11.623848915100098,38.2537841796875,-67.7337646484375,-84.197998046875
14.8299999,-0.24899697303771973,-3.4763808250427246,-11.513715744018555,-0.823974609375,-63.1256103515625,-58.807373046875
14.8499999,-0.4644751250743866,-3.1890766620635986,-11.657367706298828,-14.007568359375,-51.33056640625,-85.5255126953125
14.8699999,-0.6943184733390808,-2.8778305053710938,-12.00452709197998,8.0413818359375,-52.703857421875,-123.5504150390625
14.889999900000001,-1.0414776802062988,-2.4181437492370605,-12.516886711120605,27.008056640625,-51.5289306640625,-122.37548828125
14.9099999,-1.338358759880066,-1.8698714971542358,-12.904747009277344,-15.2740478515625,-15.9759521484375,-83.8775634765625
14.9299999,-1.4939818382263184,-1.2856862545013428,-12.880805015563965,-55.999755859375,24.2919921875,-77.2857666015625
14.9499999,-1.534683346748352,-0.6105214357376099,-12.528857231140137,3.84521484375,3.47900390625,-132.01904296875
14.969999900000001,-1.4724340438842773,0.22744916379451752,-11.982979774475098,41.2750244140625,-43.1365966796875,-147.247314453125
14.9899999,-1.403002142906189,1.37906014919281,-11.54244613647461,-4.5318603515625,-28.0609130859375,-95.5657958984375
15.0099999,-1.3934253454208374,2.652775526046753,-11.36048698425293,-70.1751708984375,13.4124755859375,-48.7213134765625
15.0299999,-1.259350061416626,3.8163576126098633,-11.274295806884766,-52.7191162109375,18.310546875,-47.1649169921875
15.049999900000001,-1.0654197931289673,4.76924991607666,-10.943896293640137,-19.3023681640625,16.937255859375,-60.791015625
15.069999900000001,-0.8690952062606812,5.48272180557251,-10.407594680786133,-4.4097900390625,11.1846923828125,-39.031982421875
15.0899999,-0.7110779285430908,5.724536418914795,-9.818621635437012,-25.81787109375,-4.608154296875,20.5841064453125
15.1099999,-0.5650315880775452,5.367800235748291,-9.23682975769043,-53.1463623046875,-8.392333984375,48.1719970703125
15.129999900000001,-0.45489832758903503,4.5394062995910645,-8.827422142028809,-1.28173828125,-6.9732666015625,8.9111328125
15.149999900000001,-0.35434186458587646,3.4117374420166016,-8.702922821044922,47.3785400390625,-14.46533203125,-9.8419189453125
15.1699999,-0.33997663855552673,2.2601263523101807,-8.83939266204834,16.937255859375,-14.556884765625,21.1334228515625
15.1899999,-0.4405331015586853,1.2401964664459229,-9.21288776397705,-17.303466796875,-5.9356689453125,37.811279296875
15.209999900000001,-0.5937620401382446,0.33279404044151306,-9.600749015808105,-18.5089111328125,-1.220703125,17.3492431640625
15.229999900000001,-0.7565677165985107,-0.3471592366695404,-9.916783332824707,-0.4730224609375,-9.002685546875,-6.4544677734375
15.2499999,-0.9002198576927185,-0.689530074596405,-10.158597946166992,15.106201171875,-13.2598876953125,-4.974365234375
15.2699999,-0.993593692779541,-0.6727706789970398,-10.235212326049805,2.899169921875,3.4637451171875,6.195068359375
15.289999900000002,-1.0414776802062988,-0.43095630407333374,-10.213664054870605,0.30517578125,9.0484619140625,3.021240234375
15.309999900000001,-1.05105459690094,-0.1604115068912506,-10.017339706420898,7.659912109375,-5.9814453125,-2.105712890625
15.3299999,-1.0031704902648926,0.06703764945268631,-9.742006301879883,-0.4119873046875,-21.6827392578125,3.72314453125
15.3499999,-0.9648633003234863,0.21547815203666687,-9.627084732055664,-6.0577392578125,-25.2227783203125,7.415771484375
15.3699999,-0.9241618514060974,0.2585737705230713,-9.81143856048584,4.8980712890625,-11.3525390625,3.47900390625
15.389999900000001,-0.9193734526634216,0.26096799969673157,-10.134655952453613,13.4429931640625,13.00048828125,-6.439208984375
15.4099999,-0.933738648891449,0.2944868206977844,-10.254365921020508,2.6092529296875,28.1219482421875,-4.5623779296875
15.4299999,-0.9241618514060974,0.31124621629714966,-10.067618370056152,-18.4783935546875,2.6702880859375,17.5628662109375
15.4499999,-0.9002198576927185,0.26096799969673157,-9.792284965515137,-15.869140625,-40.3289794921875,25.87890625
15.469999900000001,-0.9002198576927185,0.12689268589019775,-9.768342971801758,16.5557861328125,-38.726806640625,5.4779052734375
15.4899999,-0.9433154463768005,-0.043095629662275314,-10.093954086303711,21.1639404296875,6.6680908203125,-9.9334716796875
15.5099999,-1.0534487962722778,-0.1412578970193863,-10.496180534362793,-3.0670166015625,39.520263671875,-2.8533935546875
15.5299999,-1.1276689767837524,-0.1173158809542656,-10.517727851867676,-18.6004638671875,33.7371826171875,11.627197265625
15.549999900000001,-1.115697979927063,-0.05267243832349777,-9.976638793945312,-14.4805908203125,5.4473876953125,15.0909423828125
15.569999900000001,-1.015141487121582,-0.035913024097681046,-9.334992408752441,9.8876953125,-30.09033203125,6.011962890625
15.5899999,-0.9002198576927185,-0.040701430290937424,-9.040505409240723,13.7176513671875,-39.55078125,-2.9296875
15.6099999,-0.8571242094039917,0.009576806798577309,-9.327810287475586,9.9029541015625,-10.589599609375,-7.3699951171875
15.629999900000001,-0.9074024558067322,0.17238251864910126,-9.861717224121094,4.9285888671875,28.2745361328125,-2.1514892578125
15.649999900000001,-0.9648633003234863,0.3280056416988373,-10.165780067443848,-14.251708984375,30.120849609375,16.0980224609375
15.6699999,-0.9864110946655273,0.31364041566848755,-10.086771965026855,-17.51708984375,-9.3536376953125,27.4658203125
15.6899999,-0.9528923034667969,0.11252748221158981,-9.861717224121094,5.9356689453125,-33.7982177734375,10.4217529296875
15.709999900000001,-0.9026140570640564,-0.15562310814857483,-9.737217903137207,12.26806640625,-9.8724365234375,-11.3067626953125
15.729999900000001,-0.8762778043746948,-0.30885201692581177,-9.746794700622559,0.885009765625,27.40478515625,-11.810302734375
15.7499999,-0.849941611289978,-0.26815059781074524,-9.5624418258667,-10.8184814453125,32.6385498046875,4.669189453125
15.7699999,-0.8212111592292786,-0.16759411990642548,-9.129091262817383,-10.1776123046875,-4.058837890625,13.3209228515625
15.789999900000002,-0.790086567401886,-0.09816227108240128,-8.779537200927734,9.33837890625,-45.623779296875,-0.67138671875
15.809999900000001,-0.8236053586006165,-0.05027823522686958,-8.860940933227539,20.01953125,-37.04833984375,-19.8822021484375
15.8299999,-0.9097966551780701,0.07182604819536209,-9.366117477416992,8.0718994140625,7.9498291015625,-15.44189453125
15.8499999,-1.01753568649292,0.2777273952960968,-9.914389610290527,-7.7972412109375,29.6630859375,3.4027099609375
15.869999900000002,-1.113303780555725,0.47165772318840027,-10.153809547424316,-2.0904541015625,6.5155029296875,11.23046875
15.889999900000001,-1.1492167711257935,0.524330198764801,-9.995792388916016,-4.9591064453125,-20.3704833984375,8.72802734375
15.9099999,-1.1779472827911377,0.40701428055763245,-9.84256362915039,1.03759765625,-30.4718017578125,2.7313232421875
15.9299999,-1.2425906658172607,0.1867477297782898,-9.943120002746582,10.6658935546875,-17.39501953125,-0.7781982421875
15.9499999,-1.3048399686813354,-0.002394201699644327,-10.271124839782715,-0.640869140625,6.103515625,-0.8392333984375
15.969999900000001,-1.3551181554794312,-0.08140286058187485,-10.496180534362793,-11.4288330078125,25.4974365234375,-2.2125244140625
15.9899999,-1.3527239561080933,-0.07422025501728058,-10.33098030090332,-13.763427734375,22.1099853515625,4.547119140625
16.0099999,-1.2856862545013428,-0.0694318488240242,-9.852140426635742,-15.5487060546875,-12.0086669921875,13.7939453125
16.0299999,-1.192312479019165,-0.06464344263076782,-9.442731857299805,-4.119873046875,-40.8782958984375,3.1585693359375
16.0499999,-1.161187767982483,-0.002394201699644327,-9.488221168518066,26.611328125,-23.468017578125,-20.7977294921875
16.0699999,-1.170764684677124,0.21308395266532898,-9.825803756713867,7.415771484375,25.3143310546875,-17.364501953125
16.089999900000002,-1.2066776752471924,0.5267243981361389,-10.134655952453613,-16.998291015625,40.863037109375,8.2855224609375
16.109999900000002,-1.213860273361206,0.730231523513794,-10.022128105163574,-23.4375,12.4664306640625,26.55029296875
16.1299999,-1.1492167711257935,0.6751648783683777,-9.59596061706543,-8.8653564453125,-22.491455078125,15.3961181640625
16.1499999,-1.0630255937576294,0.40940847992897034,-9.296685218811035,14.3890380859375,-29.7698974609375,-9.8419189453125
16.1699999,-1.0199298858642578,0.1604115068912506,-9.327810287475586,14.6331787109375,-5.340576171875,-18.4478759765625
16.1899999,-1.0462661981582642,0.12449848651885986,-9.603142738342285,-0.6103515625,16.7083740234375,-7.01904296875
16.2099999,-1.115697979927063,0.304063618183136,-9.840168952941895,-1.4495849609375,12.847900390625,4.364013671875
16.2299999,-1.1468225717544556,0.4692635238170624,-9.761159896850586,-19.47021484375,-1.739501953125,18.6920166015625
16.249999900000002,-1.1420341730117798,0.4836287498474121,-9.651026725769043,-9.8419189453125,-22.4761962890625,16.204833984375
16.269999900000002,-1.1324573755264282,0.363918662071228,-9.682151794433594,19.71435546875,-20.660400390625,-2.9296875
16.2899999,-1.158793568611145,0.2082955539226532,-9.926360130310059,13.2598876953125,7.232666015625,-8.5906982421875
16.3099999,-1.2186486721038818,0.13168109953403473,-10.192116737365723,-4.0740966796875,25.8026123046875,2.8076171875
16.3299999,-1.2473790645599365,0.0694318488240242,-10.132261276245117,-17.88330078125,23.7274169921875,18.00537109375
16.3499999,-1.2042834758758545,-0.05267243832349777,-9.732429504394531,-12.1917724609375,-5.0201416015625,15.7318115234375
16.3699999,-1.1204863786697388,-0.19632454216480255,-9.334992408752441,12.969970703125,-31.9976806640625,-7.6446533203125
16.3899999,-1.0654197931289673,-0.2968810200691223,-9.205705642700195,20.721435546875,-19.989013671875,-15.716552734375
16.4099999,-1.039083480834961,-0.28969839215278625,-9.258378028869629,-9.3536376953125,16.2200927734375,0.9613037109375
16.429999900000002,-1.0319008827209473,-0.26815059781074524,-9.275136947631836,-21.8658447265625,16.9830322265625,10.8642578125
16.4499999,-1.0414776802062988,-0.3232172429561615,-9.162610054016113,1.3580322265625,-21.97265625,-3.4942626953125
16.4699999,-1.0893617868423462,-0.4189853072166443,-9.136273384094238,26.3671875,-45.1202392578125,-23.7884521484375
16.4899999,-1.1851298809051514,-0.5267243981361389,-9.318233489990234,1.03759765625,-17.486572265625,-14.2364501953125
16.5099999,-1.292868971824646,-0.6320692300796509,-9.619902610778809,-29.541015625,14.09912109375,7.4615478515625
16.5299999,-1.3718775510787964,-0.790086567401886,-9.813833236694336,-28.80859375,0.8087158203125,6.8206787109375
16.5499999,-1.4413094520568848,-1.0965443849563599,-9.911994934082031,-4.82177734375,-38.7115478515625,-8.941650390625
16.5699999,-1.5298948287963867,-1.5418659448623657,-10.125079154968262,5.7220458984375,-40.58837890625,-18.24951171875
16.589999900000002,-1.647210717201233,-2.094926595687866,-10.38844108581543,-33.2794189453125,5.3253173828125,-19.287109375
16.609999900000002,-1.7381904125213623,-2.6623523235321045,-10.469843864440918,-69.2138671875,30.6549072265625,-27.52685546875
16.6299999,-1.7860745191574097,-3.093308687210083,-10.247182846069336,-51.8951416015625,-15.68603515625,-55.3436279296875
16.6499999,-1.920149803161621,-3.203441858291626,-10.077195167541504,-4.0435791015625,-69.2901611328125,-85.235595703125
16.6699999,-2.188300371170044,-3.095702886581421,-10.280701637268066,-38.299560546875,-54.3670654296875,-65.9637451171875
16.6899999,-2.585737943649292,-2.983175277709961,-11.08754825592041,-91.0491943359375,-9.796142578125,-40.2984619140625
16.7099999,-3.0789434909820557,-2.7724854946136475,-12.375628471374512,-77.850341796875,-4.180908203125,-92.7581787109375
16.7299999,-3.555389642715454,-2.250549554824829,-13.532028198242188,-44.0216064453125,9.5367431640625,-164.764404296875
16.749999900000002,-3.8953661918640137,-1.1563993692398071,-14.319720268249512,-88.4857177734375,40.557861328125,-141.1590576171875
16.769999900000002,-4.125209331512451,0.6560112833976746,-14.717158317565918,-119.5068359375,49.9267578125,-86.0137939453125
16.7899999,-4.244919776916504,2.779668092727661,-14.798561096191406,-105.2398681640625,49.7283935546875,-69.76318359375
16.8099999,-4.244919776916504,4.7405195236206055,-14.61660099029541,-112.2283935546875,77.8350830078125,-55.0079345703125
16.8299999,-4.127603530883789,6.301538944244385,-14.279019355773926,-105.2703857421875,128.1890869140625,-35.58349609375
16.8499999,-3.9049429893493652,7.398083209991455,-13.512874603271484,-108.5968017578125,168.9300537109375,-19.6685791015625
16.8699999,-3.4811692237854004,8.061277389526367,-12.229581832885742,-103.729248046875,171.5087890625,-10.6964111328125
16.8899999,-2.889801502227783,8.38688850402832,-10.457873344421387,-80.1239013671875,150.604248046875,-5.9051513671875
16.9099999,-2.2697031497955322,8.595184326171875,-8.755595207214355,-33.38623046875,120.635986328125,-9.7503662109375
16.929999900000002,-1.680729627609253,8.707711219787598,-7.513004779815674,-13.214111328125,105.6365966796875,3.570556640625
16.9499999,-1.1755530834197998,8.889671325683594,-6.732495307922363,-2.5482177734375,138.24462890625,19.6990966796875
16.9699999,-0.871489405632019,9.126696586608887,-6.2416839599609375,-19.4091796875,164.5660400390625,19.22607421875
16.9899999,-0.5746083855628967,9.232041358947754,-5.762843608856201,-35.9344482421875,113.83056640625,60.211181640625
17.0099999,-0.30885201692581177,9.08838939666748,-5.099649429321289,-70.159912109375,73.5321044921875,101.226806640625
17.0299999,-0.011971008032560349,8.62391471862793,-4.424484729766846,-35.82763671875,69.1986083984375,93.4600830078125
17.0499999,0.28730419278144836,8.044517517089844,-3.993528366088867,76.171875,77.117919921875,53.6346435546875
17.0699999,0.44532153010368347,7.565677165985107,-3.691859006881714,147.857666015625,100.40283203125,39.9322509765625
17.089999900000002,0.4213795065879822,7.3023152351379395,-3.354276657104492,108.1695556640625,125.9307861328125,76.629638671875
17.109999900000002,0.3208230137825012,7.110779285430908,-2.9305028915405273,70.7550048828125,105.89599609375,124.6795654296875
17.1299999,0.23702596127986908,6.742072105407715,-2.276885747909546,14.9078369140625,47.1649169921875,141.3726806640625
17.1499999,0.2753331959247589,6.172252178192139,-1.9752163887023926,49.774169921875,-10.6964111328125,122.9705810546875
17.1699999,0.4213795065879822,5.504269599914551,-1.944091796875,37.872314453125,-7.3089599609375,132.965087890625
17.1899999,0.5554547905921936,4.903325080871582,-2.0183119773864746,-14.3585205078125,31.9671630859375,164.1693115234375
17.2099999,0.6129156351089478,4.180276393890381,-2.0805611610412598,-31.43310546875,-0.335693359375,199.0814208984375
17.2299999,0.5793967843055725,3.179499864578247,-2.0422539710998535,-1.495361328125,-94.3603515625,212.7532958984375
17.249999900000002,0.4213795065879822,1.7334020137786865,-2.1930887699127197,28.656005859375,-129.2572021484375,201.995849609375
17.269999900000002,0.24420857429504395,-0.12928688526153564,-2.7940332889556885,-3.6773681640625,-110.7940673828125,197.6470947265625
17.2899999,0.07182604819536209,-2.0901381969451904,-3.845088005065918,-13.4124755859375,-114.959716796875,172.6837158203125
17.3099999,-0.12210428714752197,-3.77565598487854,-5.197812080383301,75.3326416015625,-129.119873046875,111.2518310546875
17.3299999,-0.33279404044151306,-5.0876784324646,-6.588842868804932,124.20654296875,-113.6016845703125,104.55322265625
17.3499999,-0.5434837937355042,-6.1530985832214355,-7.785943984985352,9.3841552734375,-76.690673828125,156.005859375
17.3699999,-0.6703764796257019,-7.163451671600342,-8.595184326171875,-23.0712890625,-62.3626708984375,156.3720703125
17.3899999,-0.6727706789970398,-8.303091049194336,-8.829815864562988,32.989501953125,-87.5244140625,91.552734375
17.409999900000003,-0.5578489899635315,-9.318233489990234,-8.887276649475098,89.8895263671875,-128.23486328125,22.6898193359375
17.429999900000002,-0.5027823448181152,-9.892841339111328,-9.27034854888916,103.5003662109375,-143.49365234375,-9.9334716796875
17.4499999,-0.5602431893348694,-9.847352027893066,-10.098742485046387,41.6107177734375,-101.104736328125,-5.9661865234375
17.4699999,-0.6727706789970398,-9.375694274902344,-11.12346076965332,6.072998046875,-45.623779296875,6.1492919921875
17.4899999,-0.6847416758537292,-8.829815864562988,-11.72201156616211,0.6866455078125,-22.125244140625,9.5062255859375
17.5099999,-0.5027823448181152,-8.518569946289062,-11.616666793823242,-11.4593505859375,-39.12353515625,-4.1046142578125
17.5299999,-0.21787235140800476,-8.403648376464844,-11.070788383483887,-2.8533935546875,-70.6329345703125,-45.2423095703125
17.5499999,0.0071826050989329815,-8.17141056060791,-10.527304649353027,25.604248046875,-75.653076171875,-88.4857177734375
17.5699999,0.043095629662275314,-7.4316020011901855,-10.285490036010742,5.0811767578125,-54.290771484375,-98.5870361328125
17.589999900000002,-0.07900865375995636,-6.210559368133545,-10.314221382141113,-47.36328125,-45.41015625,-60.699462890625
17.609999900000002,-0.26575639843940735,-4.831499099731445,-10.433931350708008,-76.8890380859375,-51.33056640625,-22.3388671875
17.6299999,-0.5051765441894531,-3.7708675861358643,-10.647014617919922,-59.3719482421875,-69.0155029296875,-27.435302734375
17.6499999,-0.8044517636299133,-3.3279404640197754,-11.168951034545898,6.40869140625,-66.2384033203125,-58.2427978515625
17.6699999,-1.1635819673538208,-3.6583402156829834,-11.832144737243652,-8.1634521484375,-18.585205078125,-55.938720703125
17.6899999,-1.2641384601593018,-4.644751071929932,-12.18409252166748,-103.1646728515625,32.8826904296875,-37.4908447265625
17.7099999,-1.2186486721038818,-5.51624059677124,-11.865663528442383,-54.0924072265625,15.19775390625,-133.6669921875
17.7299999,-1.1803414821624756,-5.602431774139404,-11.496956825256348,155.1513671875,-89.4775390625,-277.3895263671875
17.749999900000002,-1.2952631711959839,-4.434061527252197,-11.496956825256348,174.49951171875,-139.2974853515625,-262.63427734375
17.769999900000002,-1.7310078144073486,-2.0901381969451904,-12.452242851257324,19.6380615234375,-62.591552734375,-134.58251953125
17.7899999,-2.1595699787139893,0.47165772318840027,-13.740324020385742,-94.2230224609375,37.139892578125,-44.7235107421875
17.8099999,-2.298433542251587,2.5450363159179688,-14.506467819213867,-85.4034423828125,63.5833740234375,-43.5943603515625
17.8299999,-2.0877439975738525,3.825934410095215,-14.346056938171387,-16.1285400390625,33.0810546875,-61.4471435546875
17.8499999,-1.6903064250946045,4.434061527252197,-13.481749534606934,-16.357421875,21.636962890625,-28.2745361328125
17.8699999,-1.2665326595306396,4.4939165115356445,-12.401965141296387,-65.9027099609375,45.867919921875,25.3143310546875
17.8899999,-0.8068459630012512,3.9240965843200684,-11.219228744506836,-115.3564453125,73.54736328125,60.1043701171875
17.909999900000003,-0.304063618183136,2.8443117141723633,-9.806650161743164,-90.8966064453125,64.300537109375,39.55078125
17.929999900000002,0.15322890877723694,1.6543933153152466,-8.504204750061035,42.388916015625,9.6588134765625,-23.284912109375
17.9499999,0.4572925269603729,0.6200982332229614,-7.733271598815918,77.1942138671875,-32.989501953125,-24.8565673828125
17.9699999,0.5506663918495178,-0.15083470940589905,-7.785943984985352,-3.2501220703125,-18.218994140625,22.2930908203125
17.9899999,0.4405331015586853,-0.7852981686592102,-8.439560890197754,-44.2352294921875,21.9268798828125,30.853271484375
18.0099999,0.2537853717803955,-1.3742717504501343,-9.23682975769043,-20.5230712890625,23.3917236328125,-4.7760009765625
18.0299999,0.07661445438861847,-1.7717092037200928,-9.849745750427246,10.80322265625,-1.7242431640625,-31.9976806640625
18.0499999,-0.043095629662275314,-1.86508309841156,-10.254365921020508,11.138916015625,6.1187744140625,-20.2484130859375
18.0699999,-0.0933738648891449,-1.623268723487854,-10.450690269470215,-13.336181640625,45.10498046875,-5.18798828125
18.089999900000002,-0.021547814831137657,-1.1875240802764893,-10.536881446838379,1.0833740234375,51.4678955078125,-19.3328857421875
18.109999900000002,0.14844051003456116,-0.7565677165985107,-10.376470565795898,17.7459716796875,34.7900390625,-28.076171875
18.1299999,0.395043283700943,-0.5027823448181152,-9.818621635437012,-39.3218994140625,38.75732421875,0.8087158203125
18.1499999,0.7134721279144287,-0.49320554733276367,-9.078812599182129,-71.1822509765625,20.01953125,27.83203125
18.1699999,0.9624691009521484,-0.6320692300796509,-8.418013572692871,15.960693359375,-17.059326171875,-3.0517578125
18.1899999,1.0965443849563599,-0.7445967197418213,-8.020575523376465,59.295654296875,-39.1693115234375,-28.900146484375
18.2099999,1.0534487962722778,-0.7038952708244324,-8.214506149291992,39.6575927734375,-36.956787109375,-0.457763671875
18.2299999,0.9050082564353943,-0.6727706789970398,-8.810662269592285,-29.998779296875,-27.4505615234375,48.4771728515625
18.249999900000002,0.6919242739677429,-0.8259995579719543,-9.617507934570312,-99.12109375,-34.4696044921875,48.309326171875
18.269999900000002,0.586579442024231,-1.2665326595306396,-10.177751541137695,-40.3289794921875,-15.3045654296875,13.214111328125
18.2899999,0.5817909836769104,-1.656787633895874,-10.38604736328125,-8.6822509765625,8.392333984375,-27.5115966796875
18.3099999,0.569819986820221,-1.6184803247451782,-10.283096313476562,9.1400146484375,8.8653564453125,-48.3856201171875
18.3299999,0.5554547905921936,-1.0295066833496094,-10.223240852355957,25.57373046875,-11.138916015625,-36.376953125
18.3499999,0.40940847992897034,-0.1604115068912506,-10.120290756225586,-14.46533203125,4.241943359375,2.3345947265625
18.3699999,0.3423708379268646,0.5578489899635315,-9.95748519897461,-47.7752685546875,30.82275390625,41.6259765625
18.3899999,0.3495534360408783,0.7829039692878723,-9.521739959716797,-42.327880859375,21.1639404296875,50.8270263671875
18.409999900000003,0.49320554733276367,0.5410895943641663,-8.908824920654297,-1.4801025390625,-21.881103515625,21.7437744140625
18.429999900000002,0.6248866319656372,0.2059013396501541,-8.49941635131836,46.295166015625,-51.3458251953125,-20.69091796875
18.4499999,0.5937620401382446,-0.033518824726343155,-8.650250434875488,32.3028564453125,-36.5142822265625,-13.5498046875
18.4699999,0.4596867263317108,-0.16998831927776337,-9.064447402954102,-47.9583740234375,2.4261474609375,40.0543212890625
18.4899999,0.26815059781074524,-0.33279404044151306,-9.528923034667969,-49.98779296875,3.0670166015625,47.119140625
18.5099999,0.12689268589019775,-0.667982280254364,-9.782708168029785,20.416259765625,-27.0843505859375,4.5623779296875
18.5299999,0.05267243832349777,-1.0438719987869263,-9.883264541625977,21.97265625,-36.5447998046875,-15.3656005859375
18.5499999,-0.08379705995321274,-1.1899182796478271,-10.302249908447266,32.135009765625,-24.90234375,-24.3377685546875
18.5699999,-0.2561795711517334,-1.0534487962722778,-10.857705116271973,17.1051025390625,10.0555419921875,-13.4429931640625
18.589999900000002,-0.3471592366695404,-0.8451532125473022,-11.291055679321289,-39.8406982421875,34.5916748046875,17.8375244140625
18.609999900000002,-0.30885201692581177,-0.7350199222564697,-11.367670059204102,-30.792236328125,30.1666259765625,14.373779296875
18.6299999,-0.12449848651885986,-0.7326257228851318,-10.936713218688965,9.796142578125,23.0865478515625,-18.6309814453125
18.6499999,0.10295066982507706,-0.7182605266571045,-10.307038307189941,25.726318359375,12.7410888671875,-31.768798828125
18.6699999,0.2825157940387726,-0.6009446382522583,-9.672574996948242,-11.016845703125,-1.15966796875,-5.06591796875
18.6899999,0.3878606855869293,-0.4429273009300232,-9.334992408752441,-34.423828125,-15.9149169921875,17.303466796875
18.7099999,0.395043283700943,-0.35913026332855225,-9.457097053527832,2.197265625,-18.2647705078125,2.0294189453125
18.7299999,0.3734954595565796,-0.33518823981285095,-10.055646896362305,43.7164306640625,3.5247802734375,-26.8096923828125
18.749999900000002,0.33039984107017517,-0.3256114423274994,-10.493785858154297,-7.293701171875,60.5010986328125,-20.1416015625
18.769999900000002,0.35913026332855225,-0.2059013396501541,-10.553641319274902,-55.8319091796875,68.572998046875,2.4261474609375
18.7899999,0.44771572947502136,-0.043095629662275314,-9.9000244140625,-26.9927978515625,17.15087890625,1.251220703125
18.8099999,0.5793967843055725,0.031124621629714966,-9.10993766784668,30.21240234375,-37.9180908203125,-4.119873046875
18.8299999,0.6847416758537292,-0.08619125932455063,-8.662221908569336,28.6407470703125,-38.4979248046875,4.82177734375
18.8499999,0.6727706789970398,-0.3974374830722809,-9.026140213012695,24.7039794921875,-3.173828125,3.1890869140625
18.8699999,0.5841852426528931,-0.7876923680305481,-9.84256362915039,11.65771484375,28.7017822265625,-11.4288330078125
18.8899999,0.45489832758903503,-1.091755986213684,-10.524910926818848,5.0048828125,48.0499267578125,-20.1416015625
18.909999900000003,0.33518823981285095,-1.2114660739898682,-10.615890502929688,-18.096923828125,41.7327880859375,-7.720947265625
18.929999900000002,0.33039984107017517,-1.1228805780410767,-10.132261276245117,-30.181884765625,-3.72314453125,8.11767578125
18.9499999,0.3878606855869293,-0.8188169598579407,-9.588777542114258,7.3394775390625,-40.283203125,-6.4239501953125
18.9699999,0.5147533416748047,-0.4213795065879822,-9.191340446472168,27.4810791015625,-16.2506103515625,-11.77978515625
18.9899999,0.6416460275650024,-0.09816227108240128,-9.01895809173584,-40.740966796875,21.7132568359375,19.9127197265625
19.0099999,0.7230489253997803,0.043095629662275314,-9.299078941345215,-27.862548828125,-6.5765380859375,24.6734619140625
19.0299999,0.7350199222564697,0.011971008032560349,-9.519346237182617,2.6397705078125,-11.444091796875,-6.0882568359375
19.0499999,0.7038952708244324,-0.13407529890537262,-9.77791976928711,-8.0108642578125,19.2413330078125,-11.41357421875
19.0699999,0.6584054827690125,-0.17238251864910126,-10.007762908935547,-5.1116943359375,17.913818359375,1.5411376953125
19.089999900000002,0.6320692300796509,-0.0694318488240242,-10.074800491333008,1.983642578125,2.4871826171875,9.7198486328125
19.109999900000002,0.646434485912323,0.05027823522686958,-9.983820915222168,-9.9945068359375,1.0986328125,10.5133056640625
19.1299999,0.7493851184844971,0.06224924325942993,-9.725247383117676,-27.16064453125,8.60595703125,12.176513671875
19.1499999,0.8619126081466675,0.009576806798577309,-9.282320022583008,-20.4315185546875,10.345458984375,7.26318359375
19.1699999,0.9145850539207458,-0.05506663769483566,-9.014169692993164,8.7890625,-27.313232421875,0.213623046875
19.1899999,0.9002198576927185,-0.1364694982767105,-8.956708908081055,8.6517333984375,-44.49462890625,6.317138671875
19.2099999,0.7972691655158997,-0.22266076505184174,-9.29189682006836,-34.759521484375,-9.70458984375,12.4664306640625
19.2299999,0.6512228846549988,-0.2992752194404602,-9.852140426635742,-19.500732421875,11.8255615234375,-8.209228515625
19.249999900000002,0.5626373887062073,-0.3280056416988373,-10.273519515991211,-2.99072265625,13.214111328125,-20.3857421875
19.269999900000002,0.5530605912208557,-0.19153612852096558,-10.271124839782715,-6.103515625,6.40869140625,-16.021728515625
19.2899999,0.586579442024231,0.13168109953403473,-10.02691650390625,9.429931640625,-4.3182373046875,-13.3514404296875
19.3099999,0.6631938815116882,0.4405331015586853,-9.78989028930664,5.5389404296875,-20.32470703125,0.9765625
19.3299999,0.7182605266571045,0.5889736413955688,-9.72285270690918,-12.939453125,-16.4947509765625,11.41357421875
19.3499999,0.7134721279144287,0.5291185975074768,-9.847352027893066,-9.94873046875,6.7138671875,-0.4425048828125
19.3699999,0.6847416758537292,0.3663128614425659,-9.976638793945312,-1.2054443359375,14.556884765625,-12.39013671875
19.3899999,0.6057330369949341,0.2944868206977844,-10.031704902648926,18.4173583984375,5.401611328125,-13.153076171875
19.409999900000003,0.5291185975074768,0.37828385829925537,-9.959878921508789,11.1236572265625,-2.166748046875,4.1351318359375
19.429999900000002,0.47644615173339844,0.5482721924781799,-9.885659217834473,-3.84521484375,2.0599365234375,22.9339599609375
19.4499999,0.4668693244457245,0.5937620401382446,-9.904812812805176,5.096435546875,5.7830810546875,24.47509765625
19.4699999,0.5195417404174805,0.4213795065879822,-9.744400978088379,-8.8653564453125,18.585205078125,18.7530517578125
19.4899999,0.6105214357376099,0.17956513166427612,-9.452308654785156,-7.904052734375,12.39013671875,5.7373046875
19.5099999,0.6871358752250671,-0.07661445438861847,-9.119514465332031,2.0599365234375,-24.9481201171875,5.9814453125
19.5299999,0.7326257228851318,-0.26096799969673157,-8.944737434387207,-7.32421875,-42.022705078125,14.16015625
19.5499999,0.7015010714530945,-0.31124621629714966,-9.196128845214844,2.50244140625,-28.3203125,4.058837890625
19.5699999,0.6177040338516235,-0.24181437492370605,-9.797073364257812,22.430419921875,4.180908203125,-10.68115234375
19.589999900000002,0.5171475410461426,-0.1173158809542656,-10.369287490844727,8.1329345703125,27.2674560546875,-5.950927734375
19.609999900000002,0.47884035110473633,-0.0071826050989329815,-10.558429718017578,-24.139404296875,21.54541015625,8.8958740234375
19.6299999,0.47405192255973816,0.12449848651885986,-10.314221382141113,-2.3651123046875,-0.42724609375,-0.3509521484375
19.6499999,0.5051765441894531,0.21547815203666687,-9.926360130310059,33.8287353515625,-18.768310546875,-7.01904296875
19.6699999,0.5315127968788147,0.26575639843940735,-9.72285270690918,21.392822265625,-14.3280029296875,11.0321044921875
19.6899999,0.5506663918495178,0.26815059781074524,-9.758766174316406,-27.740478515625,9.521484375,22.0794677734375
19.7099999,0.5626373887062073,0.16519992053508759,-9.888052940368652,-31.6314697265625,23.0712890625,4.6844482421875
19.7299999,0.608127236366272,-0.0071826050989329815,-9.947908401489258,-4.486083984375,15.411376953125,-14.7247314453125
19.749999900000002,0.6703764796257019,-0.16519992053508759,-9.751583099365234,9.2620849609375,16.143798828125,-13.4429931640625
19.769999900000002,0.7398083209991455,-0.2825157940387726,-9.3828763961792,-14.923095703125,29.0679931640625,0.54931640625
19.7899999,0.8236053586006165,-0.3423708379268646,-8.908824920654297,-7.38525390625,30.4412841796875,-4.5013427734375
19.8099999,0.8188169598579407,-0.2585737705230713,-8.243236541748047,34.088134765625,29.6630859375,-20.4925537109375
19.8299999,0.8188169598579407,-0.023942016065120697,-7.69735860824585,104.9346923828125,33.447265625,-1.89208984375
19.8499999,0.7972691655158997,0.16759411990642548,-7.105990409851074,33.02001953125,9.4451904296875,51.177978515625
19.8699999,0.7637503147125244,0.16759411990642548,-6.873753070831299,37.53662109375,-7.5531005859375,56.6864013671875
19.8899999,0.6799532771110535,0.17238251864910126,-7.048529624938965,137.5885009765625,-5.767822265625,7.6904296875
19.909999900000003,0.5027823448181152,0.35434186458587646,-7.275979042053223,109.0240478515625,11.2457275390625,16.9525146484375
19.929999900000002,0.090979665517807,0.8020575642585754,-7.038952827453613,-101.654052734375,-14.801025390625,101.3641357421875
19.9499999,-0.33518823981285095,1.3096283674240112,-6.160281181335449,-177.8564453125,-112.8082275390625,167.6177978515625
19.9699999,-0.45010992884635925,1.1444283723831177,-5.643133640289307,60.7147216796875,-241.7755126953125,169.921875
19.9899999,-0.37828385829925537,-0.19393034279346466,-5.928043365478516,87.2650146484375,-310.791015625,153.564453125
