# Time (seconds),Accel_X,Accel_Y,Accel_Z,Gyro_X,Gyro_Y,Gyro_Z
0.0099999,-3.1292216777801514,-2.583343744277954,-9.641449928283691,30.792236328125,9.918212890625,-0.5645751953125
0.029999900000000003,-3.0406360626220703,-2.9305028915405273,-10.199298858642578,15.625,15.13671875,0.4425048828125
0.0499999,-2.9759926795959473,-3.5242648124694824,-10.29746150970459,8.36181640625,18.0206298828125,-7.14111328125
0.0699999,-2.959233283996582,-4.0533833503723145,-9.859322547912598,-8.4381103515625,20.0958251953125,-19.7601318359375
0.08999990000000001,-2.9903578758239746,-4.314351558685303,-9.148244857788086,-12.969970703125,6.77490234375,-23.4832763671875
0.10999990000000001,-3.043030261993408,-4.266467571258545,-8.513781547546387,4.058837890625,-11.29150390625,-15.1214599609375
0.1299999,-3.071760892868042,-3.818751811981201,-7.965508937835693,-8.1939697265625,-8.4228515625,-11.871337890625
0.14999990000000002,-3.064578056335449,-3.397372245788574,-7.824251174926758,-2.777099609375,-14.251708984375,4.0435791015625
0.1699999,-2.9927520751953125,-3.1100680828094482,-7.812280178070068,19.317626953125,-22.4151611328125,19.287109375
0.1899999,-2.87064790725708,-3.160346269607544,-8.039729118347168,19.1497802734375,-34.3017578125,17.2576904296875
0.20999990000000002,-2.7269957065582275,-3.490746021270752,-8.415618896484375,18.6920166015625,-28.50341796875,0.030517578125
0.2299999,-2.609679937362671,-3.869029998779297,-8.683769226074219,0.0762939453125,-3.5247802734375,-18.7835693359375
0.2499999,-2.477998733520508,-4.141968727111816,-8.688557624816895,-17.0440673828125,-13.0462646484375,-14.7552490234375
0.2699999,-2.497152328491211,-4.323928356170654,-8.370129585266113,16.5863037109375,-61.676025390625,-1.9989013671875
0.28999990000000003,-2.5689783096313477,-4.49870491027832,-7.95832633972168,73.8983154296875,-94.7265625,-14.434814453125
0.3099999,-2.801215887069702,-4.613626480102539,-7.797914981842041,69.9005126953125,-93.7042236328125,-43.27392578125
0.3299999,-3.134010076522827,-4.627991676330566,-7.800309181213379,11.2457275390625,-83.9080810546875,-37.628173828125
0.34999990000000003,-3.5482068061828613,-4.4532151222229,-7.972691535949707,19.622802734375,-89.53857421875,-11.9781494140625
0.3699999,-3.9600095748901367,-4.120420932769775,-8.147468566894531,66.802978515625,-106.5673828125,1.495361328125
0.3899999,-4.4077253341674805,-3.955221176147461,-8.434772491455078,115.692138671875,-86.4715576171875,13.427734375
0.40999990000000003,-4.699818134307861,-4.173093795776367,-8.853757858276367,85.7086181640625,-38.2080078125,31.31103515625
0.4299999,-4.9368438720703125,-4.620809078216553,-9.07641887664795,-3.0975341796875,5.7220458984375,16.4031982421875
0.4499999,-4.963180065155029,-5.262455463409424,-8.971074104309082,-15.2130126953125,14.9383544921875,-9.6282958984375
0.4699999,-4.884171485900879,-5.729324817657471,-8.480262756347656,14.7552490234375,5.1422119140625,-25.87890625
0.4899999,-4.771644115447998,-5.863399982452393,-7.690176010131836,-3.997802734375,12.298583984375,-31.768798828125
0.5099999,-4.656722068786621,-5.779603004455566,-7.0772600173950195,0.091552734375,9.09423828125,-17.63916015625
0.5299999,-4.613626480102539,-5.564124584197998,-6.670246124267578,10.284423828125,-3.23486328125,-11.199951171875
0.5499999,-4.541800498962402,-5.525817394256592,-6.586448669433594,2.8533935546875,-6.9732666015625,-13.397216796875
0.5699999,-4.5154643058776855,-5.544970989227295,-6.746860504150391,11.4288330078125,7.3394775390625,-31.6925048828125
0.5899998999999999,-4.477157115936279,-5.52821159362793,-6.952761650085449,5.9356689453125,25.3448486328125,-47.3480224609375
0.6099998999999999,-4.46518611907959,-5.418078422546387,-7.101202011108398,9.46044921875,21.8963623046875,-34.515380859375
0.6299999,-4.481945514678955,-5.2480902671813965,-7.096413612365723,24.1851806640625,14.34326171875,-19.9127197265625
0.6499999,-4.462791919708252,-5.161899089813232,-7.003039836883545,25.909423828125,17.88330078125,-23.2391357421875
0.6699999,-4.517858505249023,-5.123591423034668,-7.041347026824951,41.3665771484375,30.517578125,-35.2020263671875
0.6899999,-4.553771495819092,-5.262455463409424,-7.137115478515625,16.3421630859375,51.94091796875,-22.7813720703125
0.7099999,-4.575319290161133,-5.4252610206604,-7.343016624450684,-23.98681640625,77.6824951171875,-16.021728515625
0.7299998999999999,-4.347870349884033,-5.372588634490967,-7.2137298583984375,-32.135009765625,100.40283203125,-17.9443359375
0.7499998999999999,-4.043806552886963,-5.061342239379883,-6.593631267547607,-51.4373779296875,45.9442138671875,-1.708984375
0.7699999,-3.6367924213409424,-4.656722068786621,-6.004657745361328,21.820068359375,-54.779052734375,28.8848876953125
0.7899999,-3.4117374420166016,-4.278438568115234,-5.566518783569336,90.8050537109375,-87.005615234375,53.4515380859375
0.8099999,-3.4093432426452637,-4.304774761199951,-5.595249176025391,33.2794189453125,-48.5382080078125,45.257568359375
0.8299999,-3.5410242080688477,-4.965574264526367,-6.155492782592773,5.2947998046875,-44.097900390625,42.41943359375
0.8499998999999999,-3.7158010005950928,-5.8203043937683105,-6.703764915466309,63.1866455078125,-43.304443359375,10.31494140625
0.8699998999999999,-3.84269380569458,-6.603208065032959,-6.892906665802002,48.2635498046875,-27.1453857421875,-18.8140869140625
0.8899999,-3.957615375518799,-7.0126166343688965,-6.8378400802612305,71.746826171875,-22.4151611328125,-28.1829833984375
0.9099999,-4.082113742828369,-7.050923824310303,-6.627150535583496,106.3232421875,-34.1644287109375,-19.378662109375
0.9299999,-4.268861770629883,-6.842628479003906,-6.358999729156494,109.283447265625,-34.698486328125,-10.955810546875
0.9499999,-4.41969633102417,-6.751648902893066,-6.289567947387695,130.157470703125,-20.5230712890625,-7.87353515625
0.9699998999999999,-4.505887508392334,-6.821080684661865,-6.22731876373291,53.1005859375,-4.45556640625,-7.720947265625
0.9899998999999999,-4.4939165115356445,-6.97430944442749,-6.14831018447876,-12.0391845703125,1.9989013671875,-15.655517578125
1.0099999,-4.37420654296875,-7.173028469085693,-6.021417140960693,29.510498046875,0.5340576171875,-9.2620849609375
1.0299999,-4.235342979431152,-7.309497833251953,-5.808333396911621,17.0135498046875,2.9449462890625,3.082275390625
1.0499999,-4.220977783203125,-7.412448406219482,-5.6191911697387695,13.0615234375,11.1846923828125,-2.9144287109375
1.0699999,-4.089296340942383,-7.489062786102295,-5.415684223175049,12.359619140625,8.1787109375,-5.4779052734375
1.0899999,-4.120420932769775,-7.3885064125061035,-5.082890033721924,1.9073486328125,1.556396484375,-10.43701171875
1.1099999,-4.10366153717041,-7.1921820640563965,-4.8267107009887695,20.08056640625,-17.9290771484375,2.9144287109375
1.1299999,-4.108449935913086,-6.959944248199463,-4.613626480102539,14.617919921875,-27.7252197265625,24.5208740234375
1.1499999,-4.151545524597168,-6.9910688400268555,-4.568136692047119,-18.646240234375,-24.9786376953125,35.797119140625
1.1699998999999999,-4.163516521453857,-7.273584842681885,-4.692635536193848,2.685546875,-19.012451171875,12.786865234375
1.1899998999999999,-4.163516521453857,-7.68538761138916,-4.797980308532715,17.4102783203125,-13.7481689453125,-16.082763671875
1.2099999,-4.228160381317139,-7.91283655166626,-4.81473970413208,0.8087158203125,-20.5535888671875,-21.728515625
1.2299999,-4.3622355461120605,-7.762001991271973,-4.733336925506592,6.011962890625,-42.5872802734375,-7.7056884765625
1.2499999,-4.527435302734375,-7.29034423828125,-4.63517427444458,30.3802490234375,-61.6455078125,17.730712890625
1.2699999,-4.709394931793213,-6.698976516723633,-4.570530891418457,34.72900390625,-60.5010986328125,42.694091796875
1.2899999,-4.802768707275391,-6.404489517211914,-4.551377296447754,-9.246826171875,-67.474365234375,63.9190673828125
1.3099999,-4.812345504760742,-6.660669326782227,-4.829104900360107,51.483154296875,-59.112548828125,52.6275634765625
1.3299999,-4.6950297355651855,-7.515398979187012,-5.147533416748047,121.2921142578125,-9.857177734375,8.2855224609375
1.3499999,-4.663905143737793,-8.382100105285645,-5.307945251464844,5.4168701171875,22.003173828125,-46.56982421875
1.3699999,-4.683058738708496,-9.069235801696777,-5.20978307723999,8.1634521484375,26.763916015625,-56.5185546875
1.3899999,-4.776432514190674,-9.141061782836914,-4.752490520477295,28.6407470703125,1.800537109375,-38.0096435546875
1.4099999,-4.972756862640381,-8.537723541259766,-4.290409564971924,22.735595703125,-15.80810546875,-34.48486328125
1.4299998999999999,-5.104437828063965,-7.86734676361084,-4.173093795776367,1.953125,-1.8157958984375,-9.368896484375
1.4499999,-5.097255229949951,-7.352593421936035,-4.4292731285095215,-66.680908203125,32.440185546875,16.815185546875
1.4699999,-5.037400245666504,-7.108384609222412,-4.836287498474121,-87.677001953125,57.8765869140625,5.950927734375
1.4899999,-5.094861030578613,-7.072471618652344,-5.0900726318359375,-68.328857421875,60.9588623046875,-1.40380859375
1.5099999,-4.786009311676025,-7.261613845825195,-5.044582843780518,-82.5653076171875,67.1539306640625,27.313232421875
1.5299999,-4.754884719848633,-7.261613845825195,-4.7836151123046875,-63.720703125,57.9681396484375,23.5595703125
1.5499999,-4.51067590713501,-7.331045627593994,-4.496310710906982,-16.1285400390625,32.2265625,11.5966796875
1.5699999,-4.316745758056641,-7.4100542068481445,-4.3191399574279785,-31.31103515625,16.448974609375,12.3138427734375
1.5899999,-4.256890773773193,-7.448361396789551,-4.400542736053467,-16.0369873046875,12.4053955078125,0.4119873046875
1.6099999,-4.242525577545166,-7.429207801818848,-4.697423934936523,-14.7552490234375,16.2811279296875,-6.77490234375
1.6299999,-4.259284973144531,-7.275979042053223,-5.073313236236572,-35.400390625,18.402099609375,-1.129150390625
1.6499999,-4.278438568115234,-6.998251438140869,-5.386953830718994,-31.9976806640625,15.31982421875,11.23046875
1.6699999,-4.290409564971924,-6.720524311065674,-5.578489780426025,-21.026611328125,5.2642822265625,20.99609375
1.6899998999999999,-4.316745758056641,-6.5265936851501465,-5.69580602645874,-19.9737548828125,-1.28173828125,21.8505859375
1.7099999,-4.335899353027344,-6.449979305267334,-5.789179801940918,-49.6063232421875,1.3427734375,19.8516845703125
1.7299999,-4.390965938568115,-6.485892295837402,-5.935225963592529,-58.8226318359375,7.4310302734375,20.721435546875
1.7499999,-4.311957359313965,-6.531382083892822,-6.04775333404541,-75.0732421875,8.514404296875,23.712158203125
1.7699999,-4.371812343597412,-6.447585105895996,-6.160281181335449,-33.9508056640625,6.8359375,15.899658203125
1.7899999,-4.3622355461120605,-6.48828649520874,-6.344634532928467,-1.15966796875,2.655029296875,24.6734619140625
1.8099999,-4.4292731285095215,-6.557718276977539,-6.555324077606201,3.631591796875,14.068603515625,22.0489501953125
1.8299999,-4.4508209228515625,-6.449979305267334,-6.677428722381592,7.537841796875,36.3311767578125,-14.95361328125
1.8499999,-4.460397720336914,-6.332663536071777,-6.746860504150391,31.585693359375,27.5115966796875,-8.8348388671875
1.8699999,-4.3861775398254395,-6.150704383850098,-6.72531270980835,45.0592041015625,7.4920654296875,29.6783447265625
1.8899999,-4.367023944854736,-6.030993938446045,-6.631938934326172,7.9345703125,13.4124755859375,30.2581787109375
1.9099999,-4.381389141082764,-6.095637321472168,-6.5696892738342285,-13.36669921875,20.7672119140625,7.171630859375
1.9299998999999999,-4.417302131652832,-6.248866558074951,-6.471527099609375,-13.641357421875,12.1612548828125,0.9307861328125
1.9499999,-4.438849925994873,-6.342240333557129,-6.414066314697266,-3.0364990234375,1.4801025390625,9.5367431640625
1.9699999,-4.460397720336914,-6.320692539215088,-6.404489517211914,-7.8277587890625,5.4473876953125,8.5296630859375
1.9899999,-4.458003520965576,-6.279991149902344,-6.44279670715332,-36.0260009765625,15.6707763671875,6.4849853515625
2.0099999,-4.446032524108887,-6.186617374420166,-6.502651691436768,-38.6199951171875,13.031005859375,4.4708251953125
2.0299999,-4.496310710906982,-6.064512729644775,-6.5050458908081055,-28.0914306640625,3.60107421875,4.6539306640625
2.0499999,-4.527435302734375,-5.913678169250488,-6.4834980964660645,-12.4053955078125,2.4566650390625,10.650634765625
2.0699999,-4.572925090789795,-5.810727596282959,-6.531382083892822,-8.0108642578125,0.91552734375,10.1165771484375
2.0899999,-4.522646903991699,-5.738901615142822,-6.567295074462891,-1.708984375,1.6632080078125,-4.21142578125
2.1099999,-4.572925090789795,-5.6670756340026855,-6.5912370681762695,21.026611328125,-9.063720703125,7.14111328125
2.1299999,-4.58968448638916,-5.556941986083984,-6.495469093322754,9.7808837890625,-0.9613037109375,28.289794921875
2.1499999,-4.707000732421875,-5.449203014373779,-6.342240333557129,-26.6265869140625,2.9296875,28.167724609375
2.1699999,-4.836287498474121,-5.463568210601807,-6.2201361656188965,-15.228271484375,-19.3634033203125,18.4173583984375
2.1899999,-4.867412090301514,-5.592854976654053,-6.179434776306152,-14.6636962890625,-33.3251953125,6.6070556640625
2.2099999,-4.929661273956299,-5.669469833374023,-6.234501361846924,-20.477294921875,-23.01025390625,-15.7012939453125
2.2299999,-4.932055473327637,-5.796362400054932,-6.339846134185791,-17.425537109375,-11.016845703125,-26.214599609375
2.2499999,-4.869806289672852,-5.92325496673584,-6.464344501495361,-1.495361328125,-24.4140625,-32.989501953125
2.2699999,-4.8051629066467285,-5.892130374908447,-6.4834980964660645,24.10888671875,-33.87451171875,-56.4727783203125
2.2899999,-4.766855716705322,-5.858611583709717,-6.560112476348877,27.2064208984375,-18.73779296875,-57.708740234375
2.3099999,-4.687847137451172,-5.8873419761657715,-6.768408298492432,9.2926025390625,-2.62451171875,-25.054931640625
2.3299999,-4.666299343109131,-5.796362400054932,-6.8809356689453125,6.8359375,6.0272216796875,-10.4217529296875
2.3499999,-4.637568473815918,-5.767632007598877,-6.780379295349121,7.9345703125,8.1634521484375,-14.83154296875
2.3699999,-4.532223701477051,-5.8873419761657715,-6.734889507293701,16.876220703125,-10.2386474609375,-1.89208984375
2.3899999,-4.431667327880859,-6.007051944732666,-6.754043102264404,18.951416015625,-3.753662109375,-14.1754150390625
2.4099999,-4.345476150512695,-6.064512729644775,-6.840234279632568,-5.7525634765625,41.0308837890625,-41.5191650390625
2.4299999,-4.201824188232422,-6.14831018447876,-7.058106422424316,-4.547119140625,62.43896484375,-38.421630859375
2.4499999,-4.158728122711182,-6.121973514556885,-7.038952827453613,8.3465576171875,50.96435546875,-31.494140625
2.4699999,-4.101267337799072,-6.009446144104004,-6.744466304779053,1.3427734375,40.0848388671875,-41.6259765625
2.4899999,-4.077325344085693,-5.805939197540283,-6.404489517211914,15.0909423828125,27.4505615234375,-37.353515625
2.5099999,-4.072536945343018,-5.66228723526001,-6.133944988250732,16.7083740234375,7.7667236328125,-0.9765625
2.5299999,-4.02465295791626,-5.590460777282715,-6.0190229415893555,-1.7547607421875,0.48828125,30.0140380859375
2.5499999,-3.9839515686035156,-5.571307182312012,-5.980715751647949,-5.5999755859375,4.730224609375,19.6990966796875
2.5699999,-3.9025487899780273,-5.805939197540283,-6.009446144104004,3.326416015625,-8.9569091796875,16.4947509765625
2.5899999,-3.845088005065918,-6.114790916442871,-6.088454723358154,38.299560546875,-25.4058837890625,20.08056640625
2.6099999,-3.797203779220581,-6.40927791595459,-6.133944988250732,42.7703857421875,-17.8070068359375,11.016845703125
2.6299999,-3.7828385829925537,-6.646304130554199,-6.253654956817627,32.470703125,-12.908935546875,-0.42724609375
2.6499999,-3.8067808151245117,-6.8162922859191895,-6.421248912811279,37.3992919921875,-15.4571533203125,-0.823974609375
2.6699999,-3.823540210723877,-6.806715488433838,-6.457161903381348,28.564453125,-9.3841552734375,0.0457763671875
2.6899999,-3.883395195007324,-6.557718276977539,-6.337451934814453,49.1790771484375,-4.94384765625,-2.9754638671875
2.7099999,-3.936067581176758,-6.2632317543029785,-6.121973514556885,105.6671142578125,-19.9127197265625,11.4288330078125
2.7299999,-4.0749311447143555,-5.875370979309082,-5.6910176277160645,141.7083740234375,-24.3682861328125,28.9154052734375
2.7499999,-4.2951979637146,-5.590460777282715,-5.137956619262695,127.0599365234375,-26.5655517578125,47.2564697265625
2.7699999,-4.529829502105713,-6.057330131530762,-4.81473970413208,126.6326904296875,-40.3289794921875,84.0911865234375
2.7899999,-4.733336925506592,-6.890512466430664,-4.46518611907959,111.0687255859375,-31.25,63.1103515625
2.8099999,-4.8722004890441895,-7.850587368011475,-4.168305397033691,115.6005859375,-9.6588134765625,-3.173828125
2.8299999,-4.90571928024292,-8.707711219787598,-3.9839515686035156,124.0386962890625,-22.491455078125,-4.4708251953125
2.8499999,-4.946420669555664,-9.045293807983398,-3.88818359375,114.6392822265625,-32.40966796875,17.63916015625
2.8699999,-4.977545261383057,-8.980650901794434,-3.627215623855591,37.261962890625,-7.171630859375,10.345458984375
2.8899999,-5.0685248374938965,-8.920795440673828,-3.3710360527038574,22.0794677734375,0.5340576171875,0.2288818359375
2.9099999,-5.1116204261779785,-8.927978515625,-3.026270866394043,26.641845703125,-35.6292724609375,-2.99072265625
2.9299999,-5.166687488555908,-8.932766914367676,-2.7246015071868896,11.29150390625,-47.5921630859375,-18.1884765625
2.9499999,-5.145139217376709,-8.846575736999512,-2.7557260990142822,8.056640625,-26.3519287109375,-33.233642578125
2.9699999,-5.157110691070557,-8.53532886505127,-3.2321722507476807,-0.18310546875,0.42724609375,-28.2440185546875
2.9899999,-5.1116204261779785,-7.99184513092041,-3.9624037742614746,-46.3409423828125,25.1312255859375,3.8299560546875
3.0099999,-5.1331682205200195,-7.453149795532227,-4.400542736053467,-100.6622314453125,62.1795654296875,45.196533203125
3.0299999,-5.097255229949951,-7.196970462799072,-4.4508209228515625,-99.9603271484375,63.201904296875,56.0760498046875
3.0499999,-5.051765441894531,-7.46033239364624,-3.8570590019226074,-65.277099609375,33.660888671875,38.848876953125
3.0699999,-4.912901878356934,-8.054094314575195,-2.9089550971984863,-23.0560302734375,-8.453369140625,1.7242431640625
3.0899999,-4.833893299102783,-8.5903959274292,-2.1715409755706787,56.6558837890625,-43.0908203125,-38.9862060546875
3.1099999,-4.778826713562012,-8.78432559967041,-1.9632453918457031,65.8721923828125,-51.605224609375,-44.7540283203125
3.1299999,-4.807557106018066,-8.451532363891602,-2.451662540435791,26.8096923828125,-32.073974609375,-27.191162109375
3.1499999,-4.920084476470947,-7.82185697555542,-3.2824504375457764,-22.6287841796875,-1.4190673828125,0.1983642578125
3.1699999,-5.018246650695801,-7.259219646453857,-4.094084739685059,-47.5616455078125,16.632080078125,27.5726318359375
3.1899999,-5.1116204261779785,-6.97430944442749,-4.54419469833374,-21.91162109375,20.1263427734375,30.1971435546875
3.2099999,-5.12119722366333,-7.105990409851074,-4.551377296447754,-23.8494873046875,15.8233642578125,21.5301513671875
3.2299999,-5.125985622406006,-7.42681360244751,-4.311957359313965,-12.7105712890625,10.8642578125,4.547119140625
3.2499999,-5.106832027435303,-7.740454196929932,-3.9624037742614746,-6.011962890625,6.16455078125,-4.608154296875
3.2699999,-5.099649429321289,-7.864952564239502,-3.708618402481079,6.4544677734375,5.43212890625,-0.3814697265625
3.2899999,-5.128379821777344,-7.8098859786987305,-3.581725835800171,9.002685546875,8.1939697265625,7.38525390625
3.3099999,-5.161899089813232,-7.694964408874512,-3.5697548389434814,-1.5869140625,9.3994140625,11.810302734375
3.3299999000000002,-5.20978307723999,-7.603984832763672,-3.6296098232269287,7.080078125,9.521484375,8.2244873046875
3.3499999,-5.219359874725342,-7.5968017578125,-3.646369218826294,2.5177001953125,10.345458984375,6.866455078125
3.3699999,-5.231330871582031,-7.613561630249023,-3.624821424484253,-0.4730224609375,7.568359375,4.669189453125
3.3899999,-5.238513469696045,-7.627926826477051,-3.581725835800171,5.9814453125,0.4425048828125,2.410888671875
3.4099999,-5.25527286529541,-7.608773231506348,-3.529053211212158,4.0130615234375,-2.8228759765625,3.6773681640625
3.4299999,-5.257667064666748,-7.582436561584473,-3.4979286193847656,-6.622314453125,-2.3651123046875,6.7138671875
3.4499999,-5.257667064666748,-7.575253963470459,-3.5266590118408203,-5.31005859375,-5.06591796875,6.2408447265625
3.4699999,-5.240907669067383,-7.613561630249023,-3.600879430770874,6.5155029296875,-6.1798095703125,3.60107421875
3.4899999,-5.2049946784973145,-7.659051418304443,-3.6846764087677,7.080078125,-1.5106201171875,1.5411376953125
3.5099999,-5.195417881011963,-7.675810813903809,-3.77565598487854,8.087158203125,0.946044921875,0.885009765625
3.5299999,-5.207388877868652,-7.666234016418457,-3.8163576126098633,1.4495849609375,-0.8697509765625,3.265380859375
3.5499999,-5.22175407409668,-7.632715225219727,-3.773261785507202,-10.345458984375,-1.6632080078125,4.4097900390625
3.5699999,-5.243301868438721,-7.649474620819092,-3.711012601852417,-15.80810546875,-4.1046142578125,4.150390625
3.5899999,-5.2672438621521,-7.702147006988525,-3.663128614425659,-17.0440673828125,-6.0577392578125,-0.244140625
3.6099999,-5.279214859008789,-7.752425193786621,-3.648763418197632,-24.3072509765625,-4.3182373046875,-1.8463134765625
3.6299999,-5.317522048950195,-7.726089000701904,-3.6391866207122803,-26.397705078125,-2.471923828125,-1.708984375
3.6499999,-5.324704647064209,-7.644686222076416,-3.6774938106536865,-8.7890625,-7.9193115234375,2.5634765625
3.6699999,-5.3342814445495605,-7.532158374786377,-3.756502389907837,-1.3580322265625,-11.9171142578125,5.4473876953125
3.6899999,-5.3127336502075195,-7.433996200561523,-3.8522706031799316,-7.01904296875,-4.8980712890625,3.021240234375
3.7099999,-5.286397457122803,-7.3669586181640625,-4.003105163574219,7.0037841796875,1.1138916015625,2.5482177734375
3.7299999,-5.305551052093506,-7.326257228851318,-4.0964789390563965,3.5858154296875,1.983642578125,6.103515625
3.7499999,-5.406107425689697,-7.139509677886963,-4.101267337799072,-8.4228515625,3.692626953125,12.298583984375
3.7699999,-5.468356609344482,-7.024587631225586,-3.998316764831543,0.0457763671875,4.241943359375,35.9649658203125
3.7899999,-5.547365188598633,-7.029376029968262,-3.914519786834717,14.9383544921875,-3.5247802734375,49.5452880859375
3.8099999,-5.501875400543213,-7.264008045196533,-3.8379054069519043,10.650634765625,-3.4637451171875,33.6456298828125
3.8299999000000002,-5.439626216888428,-7.572859764099121,-3.8498764038085938,5.6915283203125,2.838134765625,-2.655029296875
3.8499999,-5.3797712326049805,-7.884106159210205,-3.952826976776123,6.6680908203125,7.8125,-13.24462890625
3.8699999,-5.3582234382629395,-7.994239330291748,-4.022258758544922,-8.6669921875,13.5498046875,-12.9547119140625
3.8899999,-5.365406036376953,-7.929595947265625,-4.048594951629639,-8.4991455078125,14.617919921875,-19.134521484375
3.9099999,-5.382165431976318,-7.773972988128662,-4.01268196105957,19.1650390625,11.1236572265625,-27.9541015625
3.9299999,-5.4013190269470215,-7.5848307609558105,-3.971980571746826,33.8897705078125,8.23974609375,-26.18408203125
3.9499999,-5.413290023803711,-7.405265808105469,-3.93367338180542,11.8865966796875,11.23046875,-14.3890380859375
3.9699999,-5.396530628204346,-7.268796443939209,-3.907337188720703,-3.8909912109375,15.6097412109375,-7.4005126953125
3.9899999,-5.3582234382629395,-7.228095054626465,-3.9480385780334473,19.256591796875,13.2904052734375,-6.1187744140625
4.0099999,-5.295974254608154,-7.280767440795898,-4.041412353515625,26.5960693359375,18.341064453125,-1.5411376953125
4.029999900000001,-5.25527286529541,-7.3669586181640625,-4.10366153717041,4.6539306640625,37.994384765625,-3.2806396484375
4.0499999,-5.243301868438721,-7.46033239364624,-4.0749311447143555,-4.57763671875,43.5333251953125,-9.368896484375
4.069999900000001,-5.252878665924072,-7.50582218170166,-3.8594532012939453,3.8909912109375,24.2767333984375,-9.8114013671875
4.0899999000000005,-5.233725070953369,-7.539340972900391,-3.5745432376861572,14.3585205078125,-2.44140625,-1.2054443359375
4.1099999,-5.207388877868652,-7.582436561584473,-3.3734302520751953,7.8125,-8.331298828125,0.640869140625
4.1299999000000005,-5.1331682205200195,-7.6782050132751465,-3.361459255218506,-2.1514892578125,-0.885009765625,-7.904052734375
4.1499999,-5.099649429321289,-7.793126583099365,-3.5721490383148193,12.51220703125,4.57763671875,-19.1497802734375
4.1699999000000005,-5.058948040008545,-7.802703380584717,-3.708618402481079,4.547119140625,8.8653564453125,-23.1475830078125
4.1899999,-5.051765441894531,-7.6782050132751465,-3.797203779220581,-1.89208984375,3.6773681640625,-11.0931396484375
4.209999900000001,-5.056553840637207,-7.527369976043701,-3.797203779220581,5.43212890625,-6.9427490234375,6.7138671875
4.2299999,-5.03021764755249,-7.486668586730957,-3.7660791873931885,-0.030517578125,-4.6234130859375,11.5814208984375
4.249999900000001,-4.98472785949707,-7.5968017578125,-3.7421371936798096,-6.561279296875,2.532958984375,-0.701904296875
4.2699999,-4.932055473327637,-7.778761386871338,-3.7612907886505127,-2.1514892578125,-1.3275146484375,-10.8184814453125
4.289999900000001,-4.881777286529541,-7.881711959838867,-3.780444383621216,-1.4495849609375,-5.6915283203125,-7.720947265625
4.3099999,-4.843470096588135,-7.836222171783447,-3.821146011352539,-4.1046142578125,-2.8839111328125,1.0528564453125
4.329999900000001,-4.8267107009887695,-7.716512203216553,-3.885789394378662,-2.7618408203125,1.28173828125,6.3018798828125
4.3499999,-4.819528102874756,-7.644686222076416,-3.931279182434082,-5.55419921875,2.62451171875,6.65283203125
4.369999900000001,-4.831499099731445,-7.671022415161133,-3.9624037742614746,-4.9285888671875,0.7781982421875,3.1585693359375
4.3899999,-4.843470096588135,-7.785943984985352,-3.9647979736328125,1.2969970703125,1.434326171875,-2.4261474609375
4.409999900000001,-4.857835292816162,-7.908048152923584,-3.9432501792907715,1.4495849609375,4.0283203125,-7.415771484375
4.4299999,-4.867412090301514,-8.003816604614258,-3.9408559799194336,3.6163330078125,2.01416015625,-9.6435546875
4.449999900000001,-4.881777286529541,-7.996633529663086,-3.909731388092041,-3.570556640625,0.3662109375,-7.2784423828125
4.4699999,-4.8722004890441895,-7.936778545379639,-3.8498764038085938,-16.876220703125,0.2288818359375,-2.1514892578125
4.489999900000001,-4.869806289672852,-7.860164165496826,-3.825934410095215,-8.7127685546875,-4.0283203125,-1.8768310546875
4.5099999,-4.831499099731445,-7.833827972412109,-3.8762125968933105,7.232666015625,-5.6304931640625,-3.9825439453125
4.529999900000001,-4.790797710418701,-7.797914981842041,-3.9624037742614746,10.284423828125,1.8157958984375,-9.0789794921875
4.5499999,-4.757278919219971,-7.7763671875,-4.0533833503723145,-1.2664794921875,6.7291259765625,-7.843017578125
4.569999900000001,-4.716577529907227,-7.805097579956055,-4.110844135284424,-6.89697265625,2.410888671875,1.5716552734375
4.5899999000000005,-4.685452938079834,-7.857769966125488,-4.10366153717041,-5.92041015625,-1.1749267578125,-0.06103515625
4.609999900000001,-4.656722068786621,-7.9415669441223145,-4.091690540313721,-8.3160400390625,-1.0223388671875,-9.857177734375
4.6299999000000005,-4.642356872558594,-8.039729118347168,-4.122815132141113,-19.622802734375,-0.7476806640625,-11.2152099609375
4.6499999,-4.632780075073242,-8.078036308288574,-4.170699596405029,-36.224365234375,-0.640869140625,-7.6446533203125
4.6699999000000005,-4.637568473815918,-8.030152320861816,-4.225766181945801,-33.3251953125,-0.9002685546875,-10.986328125
4.6899999,-4.627991676330566,-7.955932140350342,-4.2760443687438965,-19.6533203125,-1.5106201171875,-10.955810546875
4.709999900000001,-4.6255974769592285,-7.833827972412109,-4.311957359313965,-9.8114013671875,0.6103515625,-7.8125
4.7299999,-4.627991676330566,-7.716512203216553,-4.338293552398682,-8.270263671875,2.5482177734375,-5.340576171875
4.749999900000001,-4.637568473815918,-7.603984832763672,-4.316745758056641,-15.655517578125,2.44140625,-5.2947998046875
4.7699999,-4.651933670043945,-7.515398979187012,-4.273650169372559,-15.80810546875,0.0152587890625,-7.1868896484375
4.789999900000001,-4.668693542480469,-7.436390399932861,-4.240131378173828,-9.82666015625,-2.2735595703125,-6.2103271484375
4.8099999,-4.687847137451172,-7.347805023193359,-4.218583583831787,-16.1285400390625,-0.1678466796875,-2.6397705078125
4.829999900000001,-4.702212333679199,-7.311892032623291,-4.244919776916504,-23.2086181640625,1.40380859375,2.44140625
4.8499999,-4.702212333679199,-7.338228225708008,-4.280832767486572,-27.679443359375,1.251220703125,2.197265625
4.869999900000001,-4.685452938079834,-7.395689010620117,-4.280832767486572,-27.4200439453125,0.30517578125,-4.302978515625
4.8899999,-4.6734819412231445,-7.436390399932861,-4.304774761199951,-13.85498046875,-3.5247802734375,-7.7667236328125
4.909999900000001,-4.663905143737793,-7.405265808105469,-4.345476150512695,-9.3536376953125,-6.2103271484375,-3.143310546875
4.9299999,-4.659116744995117,-7.331045627593994,-4.4292731285095215,-8.4075927734375,-3.4637451171875,3.3721923828125
4.949999900000001,-4.692635536193848,-7.252037048339844,-4.54419469833374,-6.134033203125,-0.4425048828125,3.7841796875
4.9699999,-4.659116744995117,-7.307103633880615,-4.659116744995117,-27.557373046875,-0.2288818359375,3.35693359375
4.989999900000001,-4.639962673187256,-7.4100542068481445,-4.778826713562012,-40.435791015625,-2.86865234375,-2.3040771484375
5.0099999,-4.60165548324585,-7.481880187988281,-4.836287498474121,-32.379150390625,1.77001953125,-12.237548828125
5.029999900000001,-4.568136692047119,-7.4770917892456055,-4.884171485900879,-22.03369140625,1.007080078125,-7.9803466796875
5.0499999,-4.572925090789795,-7.359776020050049,-4.903325080871582,-8.4381103515625,-3.4027099609375,1.373291015625
5.069999900000001,-4.592078685760498,-7.208941459655762,-4.896142482757568,-1.7547607421875,-4.45556640625,5.126953125
5.0899999000000005,-4.606443881988525,-7.146692276000977,-4.927267074584961,-2.7008056640625,-5.2947998046875,4.547119140625
5.109999900000001,-4.608838081359863,-7.139509677886963,-4.960785865783691,-4.9591064453125,-4.3182373046875,-0.5035400390625
5.1299999000000005,-4.606443881988525,-7.175422668457031,-5.018246650695801,-4.241943359375,-3.0517578125,-3.2196044921875
5.1499999,-4.60165548324585,-7.194576263427734,-5.082890033721924,-2.105712890625,-2.166748046875,-1.9073486328125
5.1699999000000005,-4.6040496826171875,-7.184999465942383,-5.114014625549316,-0.79345703125,0.9307861328125,-1.1138916015625
5.1899999,-4.611232280731201,-7.180211067199707,-5.12119722366333,-0.9307861328125,0.6256103515625,-0.2899169921875
5.209999900000001,-4.630385875701904,-7.16584587097168,-5.080495834350586,-1.495361328125,-2.4566650390625,-0.7781982421875
5.2299999,-4.654327869415283,-7.1490864753723145,-5.023035049438477,-3.0364990234375,-4.302978515625,-1.0528564453125
5.249999900000001,-4.680664539337158,-7.115567684173584,-4.991910457611084,0.1220703125,-4.7607421875,-0.18310546875
5.2699999,-4.683058738708496,-7.089231014251709,-4.991910457611084,-0.3204345703125,-2.7618408203125,1.89208984375
5.289999900000001,-4.668693542480469,-7.089231014251709,-5.03021764755249,-3.90625,-1.3885498046875,1.7547607421875
5.3099999,-4.642356872558594,-7.122750282287598,-5.078101634979248,-1.0833740234375,-0.946044921875,-0.213623046875
5.329999900000001,-4.616020679473877,-7.1706342697143555,-5.094861030578613,-0.9307861328125,-0.0762939453125,-0.5950927734375
5.3499999,-4.608838081359863,-7.175422668457031,-5.07570743560791,-3.4942626953125,-0.9765625,-1.9378662109375
5.369999900000001,-4.620809078216553,-7.175422668457031,-5.07570743560791,-1.1749267578125,-4.39453125,-1.1138916015625
5.3899999,-4.627991676330566,-7.173028469085693,-5.0685248374938965,-8.30078125,-3.692626953125,1.373291015625
5.409999900000001,-4.651933670043945,-7.168240070343018,-5.085284233093262,-8.1024169921875,-0.4425048828125,-1.15966796875
5.4299999,-4.656722068786621,-7.19936466217041,-5.106832027435303,-4.669189453125,-1.739501953125,-0.6103515625
5.449999900000001,-4.6734819412231445,-7.187393665313721,-5.099649429321289,-1.2664794921875,-2.25830078125,-1.2054443359375
5.4699999,-4.680664539337158,-7.1706342697143555,-5.0685248374938965,-0.0457763671875,-1.983642578125,-0.457763671875
5.489999900000001,-4.67827033996582,-7.144298076629639,-5.037400245666504,1.0223388671875,-3.204345703125,1.1749267578125
5.5099999,-4.6734819412231445,-7.122750282287598,-5.027823448181152,7.232666015625,-4.547119140625,-0.3814697265625
5.529999900000001,-4.661510944366455,-7.127538681030273,-5.054159641265869,8.0108642578125,-2.7618408203125,-0.7171630859375
5.5499999,-4.659116744995117,-7.122750282287598,-5.078101634979248,2.50244140625,0.823974609375,-0.5035400390625
5.569999900000001,-4.663905143737793,-7.137115478515625,-5.085284233093262,-0.42724609375,1.8768310546875,0.5950927734375
5.5899999000000005,-4.675876140594482,-7.156269073486328,-5.080495834350586,0.6256103515625,-1.739501953125,0.5340576171875
5.609999900000001,-4.692635536193848,-7.175422668457031,-5.032611846923828,-1.739501953125,-1.2359619140625,-1.739501953125
5.6299999000000005,-4.704606533050537,-7.206547260284424,-4.99669885635376,-2.593994140625,-0.3662109375,-1.190185546875
5.6499999,-4.714183330535889,-7.230489253997803,-4.972756862640381,-0.18310546875,-2.5634765625,0.091552734375
5.6699999000000005,-4.711789131164551,-7.247248649597168,-4.965574264526367,-1.6632080078125,-4.2724609375,-0.3509521484375
5.6899999,-4.704606533050537,-7.268796443939209,-5.011064052581787,-3.0517578125,-4.1656494140625,-2.4261474609375
5.709999900000001,-4.6950297355651855,-7.259219646453857,-5.078101634979248,-11.138916015625,-1.4495849609375,-3.3416748046875
5.7299999,-4.69024133682251,-7.218518257141113,-5.118803024291992,-14.34326171875,2.3651123046875,-2.01416015625
5.749999900000001,-4.699818134307861,-7.1490864753723145,-5.135562419891357,-13.0615234375,-1.7242431640625,2.01416015625
5.7699999,-4.714183330535889,-7.084442615509033,-5.097255229949951,-34.7442626953125,-9.674072265625,5.584716796875
5.789999900000001,-4.728548526763916,-7.0317702293396,-5.061342239379883,-43.6553955078125,-10.9710693359375,4.2724609375
5.8099999,-4.752490520477295,-6.9695210456848145,-5.0900726318359375,-15.2130126953125,-9.307861328125,-1.2664794921875
5.829999900000001,-4.78122091293335,-6.900089263916016,-5.1595048904418945,-4.913330078125,-7.110595703125,-0.06103515625
5.8499999,-4.809951305389404,-6.8378400802612305,-5.25527286529541,-4.8675537109375,-4.669189453125,3.4027099609375
5.869999900000001,-4.824316501617432,-6.7923502922058105,-5.374982833862305,-7.049560546875,-4.7149658203125,2.593994140625
5.8899999,-4.831499099731445,-6.746860504150391,-5.494692802429199,-11.627197265625,-2.2430419921875,-0.7781982421875
5.909999900000001,-4.824316501617432,-6.675034523010254,-5.6191911697387695,-30.7769775390625,0.7781982421875,4.669189453125
5.9299999,-4.829104900360107,-6.586448669433594,-5.75326681137085,-61.676025390625,1.922607421875,15.472412109375
5.949999900000001,-4.855441093444824,-6.435614109039307,-5.849034786224365,-89.080810546875,2.44140625,18.341064453125
5.9699999,-4.874594688415527,-6.303933143615723,-5.928043365478516,-83.43505859375,3.60107421875,17.02880859375
5.989999900000001,-4.884171485900879,-6.1530985832214355,-6.04775333404541,-59.112548828125,5.5999755859375,16.6015625
6.0099999,-4.8937482833862305,-5.961562156677246,-6.248866558074951,-64.51416015625,9.6893310546875,18.73779296875
6.029999900000001,-4.8937482833862305,-5.714959621429443,-6.464344501495361,-91.97998046875,13.1072998046875,26.397705078125
6.0499999,-4.929661273956299,-5.4659624099731445,-6.715735912322998,-72.7996826171875,9.185791015625,36.6058349609375
6.069999900000001,-5.037400245666504,-5.1331682205200195,-6.8593878746032715,-51.910400390625,1.1138916015625,46.32568359375
6.0899999000000005,-5.104437828063965,-4.908113479614258,-7.086836814880371,-105.3466796875,-29.6783447265625,73.7152099609375
6.109999900000001,-5.183446884155273,-4.812345504760742,-7.46033239364624,-134.2620849609375,-41.68701171875,88.1500244140625
6.1299999000000005,-5.128379821777344,-4.757278919219971,-8.044517517089844,-103.2562255859375,-6.2103271484375,70.61767578125
6.149999900000001,-5.1595048904418945,-4.766855716705322,-8.669404029846191,-133.9874267578125,16.0064697265625,55.511474609375
6.1699999000000005,-5.149928092956543,-4.766855716705322,-9.136273384094238,-153.7628173828125,20.172119140625,57.5714111328125
6.1899999,-5.315127849578857,-4.642356872558594,-9.339780807495117,-62.835693359375,17.5018310546875,41.473388671875
6.209999900000001,-5.494692802429199,-4.505887508392334,-9.313444137573242,-56.9915771484375,-2.9754638671875,27.099609375
6.2299999,-5.681440830230713,-4.331110954284668,-9.318233489990234,-60.150146484375,-12.9241943359375,21.3775634765625
6.249999900000001,-5.817910194396973,-4.000710964202881,-9.311050415039062,-40.0238037109375,6.9732666015625,15.3350830078125
6.2699999,-5.875370979309082,-3.624821424484253,-9.78989028930664,-22.216796875,7.3089599609375,18.8751220703125
6.289999900000001,-5.92325496673584,-3.1890766620635986,-10.280701637268066,-32.3486328125,33.6456298828125,8.6517333984375
6.3099999,-5.91128396987915,-2.827552318572998,-10.579977035522461,-100.9521484375,71.3043212890625,7.7667236328125
6.329999900000001,-5.834669589996338,-2.5450363159179688,-10.630255699157715,-107.60498046875,51.69677734375,6.8511962890625
6.3499999,-5.75326681137085,-2.315192937850952,-10.29746150970459,-73.0743408203125,25.0244140625,-2.9296875
6.369999900000001,-5.600037574768066,-2.1930887699127197,-9.81143856048584,-53.3599853515625,35.369873046875,-2.44140625
6.3899999,-5.449203014373779,-2.032677173614502,-9.512163162231445,-35.6903076171875,53.558349609375,-13.18359375
6.409999900000001,-5.295974254608154,-1.8507179021835327,-9.435548782348633,-44.158935546875,59.5855712890625,-25.5584716796875
6.4299999,-5.142745018005371,-1.403002142906189,-9.418789863586426,-64.2547607421875,63.17138671875,-25.4364013671875
6.449999900000001,-5.006275653839111,-0.8978256583213806,-9.351752281188965,-74.7833251953125,69.8699951171875,-0.1983642578125
6.4699999,-4.790797710418701,-0.5267243981361389,-9.248801231384277,-62.6678466796875,62.9730224609375,18.4173583984375
6.489999900000001,-4.592078685760498,-0.2825157940387726,-9.040505409240723,-32.7301025390625,55.2825927734375,-5.615234375
6.5099999,-4.371812343597412,-0.42856210470199585,-8.87291145324707,-7.598876953125,54.3060302734375,-18.463134765625
6.529999900000001,-4.1395745277404785,-0.5650315880775452,-8.786720275878906,9.735107421875,61.1419677734375,-17.822265625
6.5499999,-3.9887399673461914,-0.49559974670410156,-8.78193187713623,-8.941650390625,65.8111572265625,-20.538330078125
6.569999900000001,-3.892971992492676,-0.27054479718208313,-8.769960403442383,-37.567138671875,65.643310546875,-7.6904296875
6.5899999000000005,-3.778050184249878,0.004788403399288654,-8.655038833618164,-25.146484375,63.323974609375,9.6435546875
6.609999900000001,-3.6750996112823486,0.21308395266532898,-8.530540466308594,0,56.3812255859375,5.92041015625
6.6299999000000005,-3.5170822143554688,0.1628057211637497,-8.358158111572266,-2.3651123046875,56.2591552734375,-1.708984375
6.649999900000001,-3.335123062133789,-0.026336219161748886,-8.185775756835938,-7.2479248046875,60.394287109375,-7.8582763671875
6.6699999000000005,-3.1316158771514893,-0.19393034279346466,-7.982268333435059,-2.9449462890625,57.2662353515625,-9.674072265625
6.6899999,-2.9496564865112305,-0.2298433631658554,-7.934384346008301,12.7716064453125,40.252685546875,-3.5400390625
6.709999900000001,-2.7748796939849854,-0.15322890877723694,-7.931990146636963,17.1051025390625,38.8336181640625,5.7525634765625
6.7299999,-2.6360161304473877,-0.08140286058187485,-8.037335395812988,0.4425048828125,46.93603515625,8.819580078125
6.749999900000001,-2.47560453414917,-0.1412578970193863,-8.24084186553955,6.134033203125,40.6341552734375,3.72314453125
6.7699999,-2.315192937850952,-0.24660277366638184,-8.322244644165039,9.9639892578125,37.750244140625,-7.9193115234375
6.789999900000001,-2.1116859912872314,-0.363918662071228,-8.374917984008789,5.92041015625,36.0107421875,-7.171630859375
6.8099999,-1.8962076902389526,-0.33518823981285095,-8.432378768920898,5.9814453125,33.0963134765625,-1.312255859375
6.829999900000001,-1.6903064250946045,-0.181959331035614,-8.56645393371582,5.6915283203125,33.111572265625,-0.518798828125
6.8499999,-1.5394717454910278,0.009576806798577309,-8.583212852478027,-4.6234130859375,41.900634765625,2.7618408203125
6.869999900000001,-1.4389152526855469,0.15083470940589905,-8.518569946289062,0.91552734375,31.6619873046875,8.575439453125
6.8899999,-1.338358759880066,0.14365209639072418,-8.470685958862305,41.748046875,0.1220703125,9.3231201171875
6.909999900000001,-1.1851298809051514,0.023942016065120697,-8.619126319885254,62.774658203125,-11.199951171875,6.103515625
6.9299999,-1.0247182846069336,-0.24660277366638184,-8.973467826843262,25.9857177734375,14.8162841796875,6.6986083984375
6.949999900000001,-0.8978256583213806,-0.5099649429321289,-9.514557838439941,6.8206787109375,25.7110595703125,6.866455078125
6.9699999,-0.9169792532920837,-0.6368576288223267,-10.065223693847656,36.590576171875,7.354736328125,-0.0762939453125
6.989999900000001,-1.1204863786697388,-0.5674257874488831,-10.467450141906738,51.055908203125,-1.3580322265625,-0.9307861328125
7.0099999,-1.434126853942871,-0.42377370595932007,-10.795455932617188,32.1197509765625,5.5389404296875,16.7236328125
7.029999900000001,-1.7812861204147339,-0.40462008118629456,-10.989385604858398,5.615234375,20.4925537109375,34.2559814453125
7.0499999,-2.049436569213867,-0.6512228846549988,-10.943896293640137,-20.2484130859375,31.158447265625,27.7099609375
7.069999900000001,-2.2146365642547607,-1.0797849893569946,-10.611102104187012,-37.04833984375,31.8603515625,4.5623779296875
7.0899999000000005,-2.31758713722229,-1.5394717454910278,-10.010157585144043,-32.7301025390625,29.6630859375,-8.9111328125
7.109999900000001,-2.3080103397369385,-1.6879122257232666,-9.433155059814453,-1.03759765625,17.0135498046875,-9.6588134765625
7.1299999000000005,-2.3056161403656006,-1.4628572463989258,-8.935160636901855,20.1263427734375,15.7623291015625,-11.3677978515625
7.149999900000001,-2.2649147510528564,-1.0462661981582642,-8.702922821044922,20.5078125,29.60205078125,3.9215087890625
7.1699999000000005,-2.0901381969451904,-0.5722141861915588,-8.669404029846191,11.199951171875,41.656494140625,27.496337890625
7.1899999,-1.8746598958969116,-0.2753331959247589,-8.705317497253418,-24.8870849609375,39.7491455078125,28.50341796875
7.209999900000001,-1.5945383310317993,-0.16519992053508759,-8.678980827331543,-53.64990234375,34.5458984375,8.30078125
7.2299999,-1.2713210582733154,-0.24899697303771973,-8.525752067565918,-39.947509765625,37.3992919921875,7.1868896484375
7.249999900000001,-1.0271124839782715,-0.2968810200691223,-8.365341186523438,-5.79833984375,24.9176025390625,2.655029296875
7.2699999,-0.8164227604866028,-0.363918662071228,-8.271966934204102,3.7384033203125,13.641357421875,-4.547119140625
7.289999900000001,-0.5913678407669067,-0.5267243981361389,-8.29830265045166,-18.280029296875,11.9171142578125,-7.171630859375
7.3099999,-0.40462008118629456,-0.5937620401382446,-8.425195693969727,-20.4620361328125,10.284423828125,-27.3284912109375
7.329999900000001,-0.2106897532939911,-0.6129156351089478,-8.5903959274292,2.9449462890625,6.7138671875,-43.3502197265625
7.3499999,-0.07422025501728058,-0.42856210470199585,-8.774748802185059,19.561767578125,-0.5340576171875,-35.15625
7.369999900000001,-0.023942016065120697,0.040701430290937424,-8.853757858276367,11.3067626953125,5.615234375,-23.529052734375
7.3899999,-0.014365210197865963,0.4213795065879822,-8.96389102935791,4.1046142578125,-1.434326171875,0.1373291015625
7.409999900000001,-0.0694318488240242,0.6655880808830261,-9.047688484191895,12.2222900390625,-14.312744140625,11.7340087890625
7.4299999,-0.08379705995321274,0.5554547905921936,-9.17936897277832,6.2713623046875,-12.75634765625,12.908935546875
7.449999900000001,-0.05506663769483566,0.1867477297782898,-9.435548782348633,-0.5340576171875,-8.2244873046875,13.580322265625
7.4699999,0.026336219161748886,-0.33518823981285095,-9.746794700622559,-5.9814453125,-3.5247802734375,9.5367431640625
7.489999900000001,0.15562310814857483,-0.7613561153411865,-10.053253173828125,-8.8348388671875,-2.3956298828125,0.4119873046875
7.5099999,0.3016694188117981,-0.993593692779541,-10.342951774597168,-5.7830810546875,-4.21142578125,-3.23486328125
7.529999900000001,0.3902548849582672,-1.072602391242981,-10.522516250610352,-2.6092529296875,8.1634521484375,4.7760009765625
7.5499999,0.4357447028160095,-1.0582371950149536,-10.522516250610352,5.4931640625,23.49853515625,5.218505859375
7.569999900000001,0.43095630407333374,-1.0606313943862915,-10.431536674499512,20.2484130859375,13.275146484375,-8.544921875
7.5899999000000005,0.40222588181495667,-1.0773907899856567,-10.32858657836914,27.2064208984375,8.30078125,-20.3094482421875
7.609999900000001,0.42377370595932007,-1.0079588890075684,-10.256759643554688,17.059326171875,26.9012451171875,-21.728515625
7.6299999000000005,0.4668693244457245,-0.8355764150619507,-10.228029251098633,7.5531005859375,37.445068359375,-15.80810546875
7.649999900000001,0.524330198764801,-0.646434485912323,-10.187328338623047,10.4522705078125,28.1219482421875,-9.4146728515625
7.6699999000000005,0.6129156351089478,-0.5386953949928284,-10.022128105163574,11.0626220703125,25.6195068359375,-7.4310302734375
7.6899999,0.6847416758537292,-0.5554547905921936,-9.713275909423828,4.45556640625,28.4423828125,-7.75146484375
7.709999900000001,0.7757213711738586,-0.6512228846549988,-9.387664794921875,17.9443359375,16.6015625,-7.415771484375
7.7299999,0.8738836050033569,-0.8236053586006165,-9.059659004211426,29.8309326171875,1.0528564453125,-10.9710693359375
7.749999900000001,0.9624691009521484,-0.9768342971801758,-8.834604263305664,25.2685546875,-15.2740478515625,-15.7623291015625
7.7699999,0.9672574996948242,-0.8978256583213806,-8.951920509338379,30.2581787109375,-30.7769775390625,-22.8424072265625
7.789999900000001,0.9074024558067322,-0.6727706789970398,-9.277531623840332,21.6064453125,-20.538330078125,-9.3841552734375
7.8099999,0.8068459630012512,-0.37828385829925537,-9.672574996948242,-5.5694580078125,-3.448486328125,21.4996337890625
7.829999900000001,0.667982280254364,-0.12928688526153564,-9.947908401489258,-7.6141357421875,-3.448486328125,23.8800048828125
7.8499999,0.5554547905921936,-0.19393034279346466,-9.96945571899414,3.60107421875,-14.1448974609375,18.4783935546875
7.869999900000001,0.4596867263317108,-0.33997663855552673,-9.849745750427246,6.7291259765625,-18.9666748046875,13.4735107421875
7.8899999,0.3711012601852417,-0.5434837937355042,-9.6989107131958,-20.8740234375,-15.93017578125,16.387939453125
7.909999900000001,0.31603461503982544,-0.7230489253997803,-9.612719535827637,-34.8968505859375,-14.0380859375,24.23095703125
7.9299999,0.2801215946674347,-0.7972691655158997,-9.524134635925293,-23.0712890625,-16.754150390625,12.51220703125
7.949999900000001,0.23702596127986908,-0.7445967197418213,-9.469067573547363,-3.1585693359375,-24.4293212890625,-0.152587890625
7.9699999,0.16519992053508759,-0.6105214357376099,-9.461885452270508,17.4407958984375,-30.8074951171875,9.033203125
7.989999900000001,0.10055647045373917,-0.4620809257030487,-9.50737476348877,26.30615234375,-22.03369140625,22.6593017578125
8.0099999,0.06464344263076782,-0.3998316824436188,-9.550470352172852,10.68115234375,-12.8936767578125,14.556884765625
8.0299999,0.08140286058187485,-0.4620809257030487,-9.552865028381348,-22.5067138671875,-21.240234375,3.204345703125
8.049999900000001,0.09816227108240128,-0.49559974670410156,-9.490615844726562,-45.7763671875,-33.50830078125,4.5013427734375
8.069999900000001,0.08858546614646912,-0.43095630407333374,-9.488221168518066,-9.94873046875,-31.2347412109375,16.510009765625
8.0899999,0.038307227194309235,-0.3423708379268646,-9.44752025604248,-24.871826171875,-20.0958251953125,31.524658203125
8.1099999,-0.06703764945268631,-0.3208230137825012,-9.464279174804688,6.378173828125,-13.2293701171875,30.1971435546875
8.129999900000001,-0.15083470940589905,-0.4357447028160095,-9.373299598693848,10.1776123046875,-25.3143310546875,22.52197265625
8.149999900000001,-0.29209262132644653,-0.6560112833976746,-9.361329078674316,-14.251708984375,-38.299560546875,24.10888671875
8.1699999,-0.43095630407333374,-0.8810662031173706,-9.385271072387695,29.2510986328125,-26.0009765625,22.5372314453125
8.1899999,-0.5147533416748047,-1.2042834758758545,-9.464279174804688,13.0615234375,-14.5111083984375,21.453857421875
8.2099999,-0.6009446382522583,-1.2880805730819702,-9.75637149810791,-7.6446533203125,-29.083251953125,0.67138671875
8.229999900000001,-0.6129156351089478,-1.2665326595306396,-10.050858497619629,-28.6865234375,-26.275634765625,0.48828125
8.2499999,-0.6033388376235962,-1.1420341730117798,-10.383652687072754,-22.0489501953125,-3.021240234375,22.6898193359375
8.2699999,-0.6248866319656372,-0.8667010068893433,-10.496180534362793,-17.303466796875,9.70458984375,20.5841064453125
8.2899999,-0.6105214357376099,-0.6272808313369751,-10.383652687072754,-35.247802734375,-16.66259765625,17.9595947265625
8.309999900000001,-0.6631938815116882,-0.4620809257030487,-10.273519515991211,-20.0958251953125,-46.630859375,31.219482421875
8.3299999,-0.7565677165985107,-0.35673606395721436,-10.093954086303711,-27.679443359375,-21.881103515625,39.1082763671875
8.3499999,-0.8595184087753296,-0.4429273009300232,-10.02452278137207,-30.6396484375,1.953125,32.6690673828125
8.3699999,-1.0079588890075684,-0.6416460275650024,-10.050858497619629,-13.671875,-12.02392578125,9.94873046875
8.389999900000001,-1.1468225717544556,-0.7805097699165344,-9.952696800231934,2.655029296875,-14.984130859375,-9.4146728515625
8.4099999,-1.2330138683319092,-0.7086837291717529,-9.8784761428833,-18.7530517578125,-14.8162841796875,2.6397705078125
8.4299999,-1.2665326595306396,-0.45010992884635925,-9.986215591430664,-28.13720703125,-25.604248046875,22.552490234375
8.4499999,-1.3215993642807007,-0.181959331035614,-10.034099578857422,-54.656982421875,-19.287109375,23.4222412109375
8.469999900000001,-1.2737152576446533,-0.05027823522686958,-10.000580787658691,-83.404541015625,-9.2315673828125,11.77978515625
8.4899999,-1.292868971824646,0.10534487664699554,-9.825803756713867,-52.4749755859375,-12.8936767578125,-6.3934326171875
8.5099999,-1.2832920551300049,0.26815059781074524,-9.454702377319336,-22.308349609375,-17.7459716796875,-2.5787353515625
8.5299999,-1.2258312702178955,0.4429273009300232,-9.224859237670898,13.6260986328125,-22.0184326171875,16.1285400390625
8.549999900000001,-1.1348515748977661,0.6368576288223267,-9.133879661560059,40.496826171875,-11.0931396484375,5.92041015625
8.569999900000001,-0.9792284965515137,0.790086567401886,-9.339780807495117,24.322509765625,-6.4849853515625,-9.70458984375
8.5899999,-0.8355764150619507,0.8451532125473022,-9.742006301879883,-15.8233642578125,-8.36181640625,-4.9285888671875
8.6099999,-0.730231523513794,0.8810662031173706,-10.0580415725708,-18.85986328125,10.3302001953125,6.1492919921875
8.629999900000001,-0.7398083209991455,0.7374141216278076,-10.108319282531738,-18.463134765625,17.8680419921875,6.6070556640625
8.649999900000001,-0.8858546018600464,0.3926490843296051,-10.055646896362305,-6.744384765625,-11.5509033203125,-4.39453125
8.6699999,-1.1755530834197998,0.1604115068912506,-9.888052940368652,1.220703125,-24.5361328125,-24.3988037109375
8.6899999,-1.556231141090393,0.009576806798577309,-9.734824180603027,2.9449462890625,-1.708984375,-18.8446044921875
8.709999900000001,-1.8722656965255737,-0.05267243832349777,-9.710882186889648,11.7034912109375,6.927490234375,-0.762939453125
8.729999900000001,-2.0638017654418945,-0.181959331035614,-9.813833236694336,37.0635986328125,-5.3558349609375,-7.354736328125
8.7499999,-2.1140801906585693,-0.3998316824436188,-9.801861763000488,40.1763916015625,14.3280029296875,-34.515380859375
8.7699999,-2.0422539710998535,-0.5506663918495178,-9.66539192199707,13.7481689453125,24.627685546875,-42.083740234375
8.7899999,-1.968033790588379,-0.3902548849582672,-9.397241592407227,15.8843994140625,-4.4403076171875,-32.5469970703125
8.809999900000001,-1.9081788063049316,0.021547814831137657,-9.148244857788086,47.3480224609375,-30.8837890625,-19.2108154296875
8.8299999,-1.9632453918457031,0.5554547905921936,-9.026140213012695,70.0531005859375,-14.9993896484375,-10.8795166015625
8.8499999,-2.006340980529785,0.811634361743927,-9.121908187866211,72.265625,11.627197265625,4.45556640625
8.8699999,-2.140416383743286,0.7589619159698486,-9.239224433898926,53.5736083984375,13.24462890625,6.8817138671875
8.889999900000001,-2.2816741466522217,0.4141969084739685,-9.21288776397705,52.6580810546875,-3.2196044921875,-5.1116943359375
8.9099999,-2.4157495498657227,-0.15801730751991272,-9.090784072875977,40.4205322265625,-18.5546875,-7.537841796875
8.9299999,-2.4851813316345215,-0.6919242739677429,-9.035717010498047,13.9617919921875,-19.6990966796875,-8.9569091796875
8.9499999,-2.5258827209472656,-1.0199298858642578,-9.186552047729492,21.331787109375,-14.1754150390625,-15.380859375
8.969999900000001,-2.5043349266052246,-1.2042834758758545,-9.337387084960938,19.287109375,-3.0364990234375,-6.40869140625
8.9899999,-2.410961151123047,-1.3096283674240112,-9.567230224609375,-3.4027099609375,-9.1400146484375,7.4462890625
9.0099999,-2.434903144836426,-1.3623007535934448,-9.758766174316406,-12.237548828125,-11.5814208984375,-3.11279296875
9.0299999,-2.492363929748535,-1.5131354331970215,-9.763554573059082,-8.8958740234375,7.26318359375,-8.7890625
9.049999900000001,-2.6575639247894287,-1.6543933153152466,-9.75397777557373,2.2735595703125,4.150390625,-4.5013427734375
9.069999900000001,-2.873042106628418,-1.7070658206939697,-9.763554573059082,7.01904296875,-10.6658935546875,-4.2266845703125
9.0899999,-3.045424461364746,-1.7070658206939697,-9.742006301879883,1.46484375,-1.52587890625,-0.3662109375
9.1099999,-3.0861260890960693,-1.764526605606079,-9.684545516967773,-8.4381103515625,14.5263671875,6.4239501953125
9.129999900000001,-2.9544448852539062,-1.8267759084701538,-9.651026725769043,1.251220703125,2.8839111328125,-0.79345703125
9.149999900000001,-2.6671407222747803,-1.824381709098816,-9.526528358459473,15.228271484375,-8.1939697265625,-13.36669921875
9.1699999,-2.322375535964966,-1.723825216293335,-9.493009567260742,16.90673828125,-1.89208984375,-10.92529296875
9.1899999,-2.0039467811584473,-1.534683346748352,-9.526528358459473,-0.6866455078125,10.80322265625,1.617431640625
9.209999900000001,-1.8124107122421265,-1.2042834758758545,-9.555258750915527,-5.9967041015625,13.0157470703125,-0.9765625
9.229999900000001,-1.7501614093780518,-1.0199298858642578,-9.442731857299805,12.420654296875,4.974365234375,2.8076171875
9.2499999,-1.778891921043396,-1.0103530883789062,-9.279925346374512,15.0604248046875,-5.859375,14.984130859375
9.2699999,-1.9153614044189453,-1.1252747774124146,-9.277531623840332,1.5716552734375,-15.9149169921875,10.6201171875
9.2899999,-2.1045033931732178,-1.3120225667953491,-9.490615844726562,3.936767578125,-10.9100341796875,5.18798828125
9.309999900000001,-2.365471363067627,-1.5921441316604614,-9.806650161743164,4.425048828125,5.9051513671875,14.1754150390625
9.3299999,-2.58813214302063,-1.9393033981323242,-9.926360130310059,-8.880615234375,9.5672607421875,24.2462158203125
9.3499999,-2.698265314102173,-2.3989901542663574,-9.840168952941895,-8.453369140625,-8.636474609375,14.9078369140625
9.3699999,-2.626439332962036,-2.832340717315674,-9.560047149658203,-3.3111572265625,-17.6849365234375,-3.47900390625
9.389999900000001,-2.4157495498657227,-3.1962592601776123,-9.409213066101074,-5.706787109375,-13.7786865234375,-5.9814453125
9.4099999,-2.1475989818573,-3.3446998596191406,-9.576807022094727,-2.4261474609375,-10.0555419921875,1.0986328125
9.4299999,-1.9847931861877441,-3.31118106842041,-9.86650562286377,-8.636474609375,2.227783203125,-6.591796875
9.4499999,-1.9057846069335938,-3.3925838470458984,-9.99100399017334,-29.2816162109375,12.542724609375,-4.82177734375
9.469999900000001,-1.9177556037902832,-3.490746021270752,-9.904812812805176,-22.247314453125,-1.0986328125,-8.5906982421875
9.4899999,-1.987187385559082,-3.552995204925537,-9.763554573059082,15.3350830078125,-20.7977294921875,-18.3563232421875
9.5099999,-2.0374655723571777,-3.643975019454956,-9.708487510681152,13.9312744140625,-10.2691650390625,-14.4805908203125
9.5299999,-2.0901381969451904,-3.7229835987091064,-9.797073364257812,-19.500732421875,14.068603515625,-10.7421875
9.549999900000001,-2.164358377456665,-3.780444383621216,-9.974244117736816,-26.397705078125,15.2587890625,-27.9083251953125
9.569999900000001,-2.2457611560821533,-3.732560396194458,-10.017339706420898,-14.6331787109375,4.57763671875,-45.8221435546875
9.5899999,-2.343923568725586,-3.5649664402008057,-9.885659217834473,-20.3704833984375,6.4544677734375,-44.6624755859375
9.6099999,-2.4205379486083984,-3.270479440689087,-9.785101890563965,-20.751953125,8.1787109375,-38.3758544921875
9.629999900000001,-2.4588451385498047,-2.935291290283203,-9.667786598205566,-16.7999267578125,7.6141357421875,-50.4150390625
9.649999900000001,-2.432508945465088,-2.6384103298187256,-9.567230224609375,-16.021728515625,6.591796875,-62.469482421875
9.6699999,-2.3511061668395996,-2.341529369354248,-9.57441234588623,-9.9945068359375,1.983642578125,-62.56103515625
9.6899999,-2.2840683460235596,-2.0231003761291504,-9.593565940856934,-10.4522705078125,5.7525634765625,-57.281494140625
9.709999900000001,-2.2577321529388428,-1.659181833267212,-9.53849983215332,-20.5535888671875,13.9617919921875,-60.1654052734375
9.729999900000001,-2.2649147510528564,-1.3311761617660522,-9.454702377319336,-19.4549560546875,2.6092529296875,-64.4989013671875
9.7499999,-2.3319525718688965,-1.0247182846069336,-9.378087997436523,-0.762939453125,-12.054443359375,-63.323974609375
9.7699999,-2.382230758666992,-0.7829039692878723,-9.339780807495117,6.195068359375,-5.3558349609375,-59.4482421875
9.7899999,-2.408566951751709,-0.6224924325942993,-9.461885452270508,-6.805419921875,2.655029296875,-58.7005615234375
9.809999900000001,-2.406172752380371,-0.43335050344467163,-9.653421401977539,-18.585205078125,3.11279296875,-67.169189453125
9.8299999,-2.3965959548950195,-0.22266076505184174,-9.799467086791992,-19.5465087890625,3.2196044921875,-63.9190673828125
9.8499999,-2.3798365592956543,0.009576806798577309,-9.864110946655273,-5.55419921875,5.9661865234375,-47.637939453125
9.8699999,-2.3702597618103027,0.24899697303771973,-9.849745750427246,-2.716064453125,3.9520263671875,-43.7164306640625
9.889999900000001,-2.3319525718688965,0.33758243918418884,-9.746794700622559,-12.725830078125,3.84521484375,-43.5638427734375
9.9099999,-2.2697031497955322,0.26336219906806946,-9.576807022094727,-10.5743408203125,7.9193115234375,-39.6881103515625
9.9299999,-2.185906171798706,0.13407529890537262,-9.421183586120605,-6.2255859375,4.0283203125,-39.031982421875
9.9499999,-2.1045033931732178,0.06464344263076782,-9.334992408752441,-0.0152587890625,-2.7923583984375,-40.5120849609375
9.969999900000001,-2.0422539710998535,0.05985504388809204,-9.375694274902344,4.241943359375,-2.7618408203125,-32.3028564453125
9.9899999,-1.9943699836730957,-0.011971008032560349,-9.469067573547363,3.47900390625,7.415771484375,-18.4478759765625
10.0099999,-1.965639591217041,-0.1604115068912506,-9.50498104095459,-13.0615234375,11.90185546875,-20.416259765625
10.0299999,-1.9608511924743652,-0.40940847992897034,-9.481039047241211,-24.5361328125,0.6866455078125,-31.5704345703125
10.049999900000001,-1.9776105880737305,-0.6631938815116882,-9.454702377319336,-5.0506591796875,-8.2244873046875,-30.303955078125
10.069999900000001,-2.030282974243164,-0.6799532771110535,-9.512163162231445,-3.4332275390625,-0.6256103515625,-23.8494873046875
10.0899999,-2.075772762298584,-0.6057330369949341,-9.658209800720215,-10.498046875,10.0555419921875,-14.068603515625
10.1099999,-2.0638017654418945,-0.5817909836769104,-9.706093788146973,-21.42333984375,17.2882080078125,-7.843017578125
10.129999900000001,-2.013523578643799,-0.6105214357376099,-9.612719535827637,-13.5650634765625,9.979248046875,-20.7366943359375
10.149999900000001,-1.922544002532959,-0.5841852426528931,-9.495404243469238,0.1220703125,-2.197265625,-33.538818359375
10.1699999,-1.8579005002975464,-0.4381389021873474,-9.435548782348633,1.4495849609375,2.86865234375,-24.139404296875
10.1899999,-1.8291701078414917,-0.1628057211637497,-9.41400146484375,-8.8348388671875,17.5018310546875,-7.598876953125
10.209999900000001,-1.802833914756775,0.016759412363171577,-9.442731857299805,-7.2174072265625,9.490966796875,-4.0130615234375
10.229999900000001,-1.778891921043396,0.08140286058187485,-9.428366661071777,1.5716552734375,-4.7607421875,-13.3056640625
10.2499999,-1.7166426181793213,-0.038307227194309235,-9.411606788635254,-5.92041015625,-5.1727294921875,-14.739990234375
10.2699999,-1.6831238269805908,-0.07182604819536209,-9.459490776062012,-21.8963623046875,0.152587890625,-12.969970703125
10.2899999,-1.6711528301239014,-0.05267243832349777,-9.57441234588623,-12.2528076171875,3.1280517578125,-9.33837890625
10.309999900000001,-1.7142484188079834,0.07422025501728058,-9.653421401977539,-0.9307861328125,4.8065185546875,-5.3253173828125
10.3299999,-1.7764976024627686,0.19153612852096558,-9.615114212036133,-13.6566162109375,4.608154296875,-1.4801025390625
10.3499999,-1.8411411046981812,0.2298433631658554,-9.526528358459473,-28.1829833984375,-1.190185546875,2.5482177734375
10.3699999,-1.8914192914962769,0.22744916379451752,-9.373299598693848,-15.1519775390625,-2.4261474609375,-1.129150390625
10.389999900000001,-1.9081788063049316,0.24181437492370605,-9.229647636413574,-3.326416015625,1.4495849609375,-4.486083984375
10.4099999,-1.86508309841156,0.3256114423274994,-9.11233139038086,5.5694580078125,10.43701171875,0.4119873046875
10.4299999,-1.8100165128707886,0.4572925269603729,-9.093177795410156,31.0821533203125,22.7813720703125,8.026123046875
10.4499999,-1.6711528301239014,0.3734954595565796,-9.100360870361328,34.9578857421875,28.8543701171875,16.78466796875
10.469999900000001,-1.53707754611969,0.2585737705230713,-9.126696586608887,5.706787109375,28.533935546875,1.800537109375
10.4899999,-1.4053963422775269,0.05267243832349777,-9.368511199951172,0.244140625,10.6048583984375,-9.27734375
10.5099999,-1.314416766166687,-0.031124621629714966,-9.682151794433594,-1.556396484375,7.1563720703125,2.9449462890625
10.5299999,-1.2449848651885986,-0.181959331035614,-10.070012092590332,-20.2178955078125,17.730712890625,19.0887451171875
10.549999900000001,-1.2066776752471924,-0.33758243918418884,-10.383652687072754,-37.811279296875,21.148681640625,5.035400390625
10.569999900000001,-1.1492167711257935,-0.6057330369949341,-10.474632263183594,-40.252685546875,16.7388916015625,-13.702392578125
10.5899999,-1.048660397529602,-0.7541735172271729,-10.350133895874023,-29.7698974609375,11.3372802734375,-14.556884765625
10.6099999,-0.9409212470054626,-0.5985504388809204,-10.1753568649292,-9.5672607421875,10.711669921875,-11.932373046875
10.629999900000001,-0.8403648138046265,-0.17477671802043915,-9.962273597717285,8.0108642578125,15.869140625,-5.6304931640625
10.649999900000001,-0.7398083209991455,0.28730419278144836,-9.706093788146973,13.4735107421875,15.0909423828125,6.77490234375
10.6699999,-0.6512228846549988,0.5530605912208557,-9.545681953430176,18.2952880859375,-5.3863525390625,17.5628662109375
10.6899999,-0.5626373887062073,0.5746083855628967,-9.30386734008789,8.819580078125,-11.0015869140625,13.2904052734375
10.709999900000001,-0.44771572947502136,0.44771572947502136,-9.205705642700195,2.471923828125,-11.077880859375,6.500244140625
10.729999900000001,-0.363918662071228,0.3758896589279175,-9.263166427612305,-1.5716552734375,-18.5089111328125,6.072998046875
10.7499999,-0.31603461503982544,0.30885201692581177,-9.442731857299805,-5.1116943359375,-17.425537109375,22.39990234375
10.7699999,-0.3256114423274994,0.2322375625371933,-9.655815124511719,-2.4871826171875,-9.3994140625,29.3121337890625
10.7899999,-0.395043283700943,-0.009576806798577309,-9.715670585632324,-9.8876953125,-7.2021484375,17.181396484375
10.809999900000001,-0.4668693244457245,-0.33039984107017517,-9.636661529541016,-7.1868896484375,-22.1099853515625,4.9285888671875
10.8299999,-0.5722141861915588,-0.4620809257030487,-9.646238327026367,20.99609375,-33.477783203125,-3.3721923828125
10.8499999,-0.6320692300796509,-0.44532153010368347,-9.612719535827637,15.106201171875,-9.246826171875,5.7525634765625
10.8699999,-0.6512228846549988,-0.3447650372982025,-9.672574996948242,-9.3841552734375,3.1585693359375,15.655517578125
10.889999900000001,-0.6368576288223267,-0.2992752194404602,-9.739612579345703,3.0517578125,-17.578125,5.3863525390625
10.9099999,-0.6129156351089478,-0.33997663855552673,-9.792284965515137,12.908935546875,-29.4647216796875,-6.8817138671875
10.9299999,-0.6177040338516235,-0.3471592366695404,-9.823410034179688,-10.8795166015625,-13.85498046875,-6.3323974609375
10.9499999,-0.6560112833976746,-0.29209262132644653,-9.950302124023438,-24.749755859375,-1.9378662109375,2.4871826171875
10.969999900000001,-0.7015010714530945,-0.21787235140800476,-10.053253173828125,-8.4686279296875,-5.035400390625,4.21142578125
10.9899999,-0.7637503147125244,-0.11252748221158981,-9.983820915222168,4.5928955078125,-4.8370361328125,-4.69970703125
11.0099999,-0.8619126081466675,-0.05746084079146385,-9.93593692779541,15.80810546875,-10.68115234375,-4.180908203125
11.0299999,-1.039083480834961,-0.011971008032560349,-9.828198432922363,15.1824951171875,-9.5672607421875,3.7994384765625
11.049999900000001,-1.1875240802764893,-0.21308395266532898,-9.62947940826416,0.244140625,1.0986328125,12.9852294921875
11.069999900000001,-1.314416766166687,-0.40701428055763245,-9.548076629638672,9.58251953125,-8.941650390625,-3.60107421875
11.0899999,-1.314416766166687,-0.7541735172271729,-9.545681953430176,29.510498046875,-7.8887939453125,-15.9759521484375
11.1099999,-1.2473790645599365,-1.0223240852355957,-9.624691009521484,21.8505859375,10.3302001953125,-7.2479248046875
11.129999900000001,-1.216254472732544,-0.9193734526634216,-9.785101890563965,10.9710693359375,14.6942138671875,-13.7176513671875
11.149999900000001,-1.256955862045288,-0.7326257228851318,-9.880870819091797,16.3116455078125,7.537841796875,-5.0506591796875
11.1699999,-1.338358759880066,-0.5985504388809204,-9.823410034179688,6.1187744140625,4.0740966796875,16.7388916015625
11.1899999,-1.460463047027588,-0.507570743560791,-9.679757118225098,-0.5645751953125,6.195068359375,10.3912353515625
11.209999900000001,-1.5514427423477173,-0.5937620401382446,-9.48343276977539,7.3394775390625,6.8817138671875,-2.7923583984375
11.229999900000001,-1.5825673341751099,-0.7781155705451965,-9.30386734008789,0.9307861328125,0.0762939453125,4.33349609375
11.2499999,-1.599326729774475,-0.7876923680305481,-9.097966194152832,-16.5252685546875,-1.9989013671875,5.18798828125
11.2699999,-1.6041151285171509,-0.6631938815116882,-8.918401718139648,-21.4691162109375,-5.096435546875,3.1585693359375
11.2899999,-1.5921441316604614,-0.6177040338516235,-8.973467826843262,-4.8675537109375,-20.965576171875,14.251708984375
11.309999900000001,-1.6208745241165161,-0.5410895943641663,-9.105149269104004,2.471923828125,-15.533447265625,10.7574462890625
11.3299999,-1.623268723487854,-0.6823474764823914,-9.327810287475586,-10.8642578125,1.64794921875,4.150390625
11.3499999,-1.659181833267212,-0.7589619159698486,-9.59596061706543,5.06591796875,-0.6866455078125,-4.0283203125
11.3699999,-1.7094600200653076,-0.790086567401886,-9.751583099365234,16.9677734375,-5.1727294921875,-2.9449462890625
11.389999900000001,-1.7597382068634033,-0.7613561153411865,-9.773131370544434,5.8135986328125,-0.6561279296875,7.99560546875
11.4099999,-1.8076223134994507,-0.6847416758537292,-9.768342971801758,4.4097900390625,-2.777099609375,7.9803466796875
11.4299999,-1.8339585065841675,-0.6823474764823914,-9.734824180603027,16.571044921875,-7.598876953125,0.885009765625
11.4499999,-1.800439715385437,-0.8092401623725891,-9.66299819946289,20.2178955078125,-5.340576171875,3.6163330078125
11.469999900000001,-1.778891921043396,-0.8307880163192749,-9.651026725769043,12.9547119140625,-5.462646484375,-2.01416015625
11.4899999,-1.7741034030914307,-0.7972691655158997,-9.694122314453125,9.82666015625,-6.805419921875,-2.288818359375
11.5099999,-1.7836803197860718,-0.7852981686592102,-9.763554573059082,12.0086669921875,-3.60107421875,9.307861328125
11.5299999,-1.7884687185287476,-0.8331822156906128,-9.804255485534668,12.39013671875,-1.8310546875,11.77978515625
11.549999900000001,-1.7860745191574097,-0.912190854549408,-9.861717224121094,8.9263916015625,-6.16455078125,-1.7852783203125
11.569999900000001,-1.7741034030914307,-1.0295066833496094,-9.914389610290527,5.5389404296875,-8.9111328125,-5.157470703125
11.5899999,-1.7525556087493896,-1.091755986213684,-9.888052940368652,1.6937255859375,-0.1373291015625,6.04248046875
11.6099999,-1.7621324062347412,-0.9648633003234863,-9.77791976928711,-1.861572265625,-0.274658203125,5.3863525390625
11.629999900000001,-1.766920804977417,-0.950498104095459,-9.732429504394531,10.650634765625,-13.24462890625,7.01904296875
11.649999900000001,-1.7956513166427612,-0.8858546018600464,-9.493009567260742,13.1683349609375,-4.82177734375,5.279541015625
11.6699999,-1.8267759084701538,-0.7852981686592102,-9.129091262817383,-3.60107421875,-0.2288818359375,4.7607421875
11.6899999,-1.8483237028121948,-0.6919242739677429,-8.834604263305664,13.6871337890625,-35.2783203125,14.6942138671875
11.709999900000001,-1.9129672050476074,-0.17238251864910126,-8.379706382751465,11.0931396484375,-50.5218505859375,13.1072998046875
11.729999900000001,-1.987187385559082,0.3711012601852417,-8.51138687133789,-10.711669921875,-70.037841796875,33.3251953125
11.7499999,-2.070984363555908,0.7374141216278076,-9.536105155944824,9.246826171875,-89.0350341796875,76.934814453125
11.7699999,-2.276885747909546,1.048660397529602,-10.975020408630371,34.820556640625,-20.3857421875,72.784423828125
11.7899999,-2.473210334777832,0.3687070608139038,-12.84968090057373,44.5404052734375,34.5306396484375,86.029052734375
11.809999900000001,-2.6168625354766846,-0.8762778043746948,-14.508862495422363,27.6641845703125,51.025390625,85.3271484375
11.8299999,-2.87064790725708,-2.0590133666992188,-15.907075881958008,18.341064453125,74.310302734375,26.2298583984375
11.8499999,-3.004723072052002,-3.7277719974517822,-16.563087463378906,8.1634521484375,144.1650390625,35.5987548828125
11.8699999,-3.071760892868042,-5.097255229949951,-16.47210693359375,8.941650390625,198.2574462890625,44.3572998046875
11.889999900000001,-3.1651346683502197,-6.030993938446045,-15.377957344055176,52.978515625,193.42041015625,-18.85986328125
11.9099999,-3.0837318897247314,-6.8043212890625,-12.990938186645508,36.1480712890625,204.7882080078125,-43.7469482421875
11.9299999,-2.892195701599121,-7.12035608291626,-10.20887565612793,-18.5089111328125,165.58837890625,-38.51318359375
11.9499999,-2.6575639247894287,-6.830657482147217,-7.694964408874512,-13.946533203125,103.5919189453125,-74.15771484375
11.969999900000001,-2.389413356781006,-6.423643112182617,-5.530605792999268,7.8887939453125,117.49267578125,-105.40771484375
11.9899999,-2.1523873805999756,-5.815515995025635,-3.77565598487854,-27.008056640625,137.1002197265625,-117.1722412109375
12.0099999,-1.9943699836730957,-5.015852451324463,-2.1715409755706787,-35.15625,74.005126953125,-140.8538818359375
12.0299999,-1.965639591217041,-4.185064792633057,-0.3519476354122162,17.3187255859375,-3.0517578125,-164.093017578125
12.049999900000001,-2.121262788772583,-3.354276657104492,1.824381709098816,61.065673828125,-47.7447509765625,-186.03515625
12.069999900000001,-2.7509377002716064,-2.296039342880249,4.273650169372559,74.2950439453125,-130.6610107421875,-215.728759765625
12.0899999,-3.9911341667175293,-0.038307227194309235,5.489904403686523,127.1514892578125,-331.11572265625,-242.2943115234375
12.1099999,-5.75326681137085,3.4524388313293457,3.928884983062744,189.910888671875,-500,-182.55615234375
12.129999900000001,-7.501033782958984,7.132327079772949,-0.4118026793003082,109.954833984375,-445.00732421875,7.75146484375
12.149999900000001,-8.676587104797363,9.2033109664917,-5.657498836517334,-20.0042724609375,-190.7501220703125,147.8424072265625
12.1699999,-9.011775016784668,8.863334655761719,-11.628637313842773,62.713623046875,-285.308837890625,89.691162109375
12.1899999,-8.968679428100586,6.799532890319824,-16.915035247802734,222.2442626953125,-432.6934814453125,2.410888671875
12.209999900000001,-8.578424453735352,3.9025487899780273,-20.803218841552734,80.108642578125,-138.24462890625,85.75439453125
12.229999900000001,-8.461109161376953,1.5825673341751099,-24.84223747253418,-95.21484375,34.820556640625,182.8155517578125
12.2499999,-8.415618896484375,-0.49799394607543945,-27.3346004486084,-53.8787841796875,40.4052734375,173.3551025390625
12.2699999,-8.327033042907715,-2.8586769104003906,-27.516559600830078,12.176513671875,168.670654296875,151.6876220703125
12.289999900000002,-8.398859977722168,-5.061342239379883,-26.226085662841797,35.5224609375,277.587890625,112.9608154296875
12.309999900000001,-8.487444877624512,-7.163451671600342,-23.556550979614258,-50.7659912109375,316.864013671875,108.0474853515625
12.3299999,-8.638279914855957,-8.777143478393555,-19.369091033935547,-122.86376953125,366.7144775390625,102.630615234375
12.3499999,-8.468291282653809,-9.897629737854004,-13.347674369812012,-181.7474365234375,388.275146484375,49.9267578125
12.3699999,-7.577648162841797,-10.599130630493164,-6.356605529785156,-208.465576171875,225.6622314453125,-8.6212158203125
12.389999900000001,-6.246472358703613,-9.938331604003906,-0.35434186458587646,-75.68359375,-9.6588134765625,-98.3734130859375
12.4099999,-4.508281707763672,-7.682993412017822,3.5960910320281982,-3.0975341796875,-64.4683837890625,-145.0042724609375
12.4299999,-2.9927520751953125,-3.861847400665283,3.670311212539673,18.890380859375,-46.9512939453125,-105.072021484375
12.4499999,-1.8339585065841675,0.13168109953403473,1.0773907899856567,34.9273681640625,-23.3917236328125,-18.2342529296875
12.469999900000001,-1.1109095811843872,3.5051112174987793,-2.406172752380371,9.1400146484375,13.5040283203125,12.2222900390625
12.4899999,-0.7230489253997803,5.128379821777344,-5.846640586853027,42.7703857421875,-8.6212158203125,-12.451171875
12.5099999,-0.5363011956214905,4.944026470184326,-8.169015884399414,58.4259033203125,-17.7154541015625,5.2032470703125
12.5299999,-0.5937620401382446,3.974374771118164,-9.531316757202148,35.614013671875,-7.62939453125,6.1798095703125
12.549999900000001,-0.7326257228851318,2.5234885215759277,-10.287884712219238,22.0794677734375,-18.3258056640625,-0.1220703125
12.569999900000001,-0.9217676520347595,1.2018892765045166,-10.551246643066406,19.34814453125,-19.1497802734375,-4.9285888671875
12.5899999,-1.0869675874710083,0.23942017555236816,-10.532093048095703,28.38134765625,-3.4637451171875,-4.8370361328125
12.6099999,-1.2114660739898682,-0.36152446269989014,-10.496180534362793,44.49462890625,-5.0201416015625,4.9591064453125
12.629999900000001,-1.3048399686813354,-0.6871358752250671,-10.445901870727539,43.1060791015625,-8.544921875,6.6070556640625
12.649999900000001,-1.3455413579940796,-0.8188169598579407,-10.211270332336426,-5.2947998046875,2.716064453125,-0.9765625
12.6699999,-1.3766659498214722,-0.8403648138046265,-10.053253173828125,-10.9405517578125,-7.8582763671875,-1.739501953125
12.6899999,-1.3670891523361206,-0.8068459630012512,-9.832986831665039,32.9437255859375,-18.463134765625,9.7198486328125
12.709999900000001,-1.3503297567367554,-0.6488286852836609,-9.588777542114258,15.3350830078125,-8.209228515625,11.566162109375
12.729999900000001,-1.3407529592514038,-0.4620809257030487,-9.622296333312988,-13.0767822265625,-9.6435546875,3.936767578125
12.7499999,-1.338358759880066,-0.47405192255973816,-9.66299819946289,4.45556640625,-5.2337646484375,17.364501953125
12.7699999,-1.335964560508728,-0.5913678407669067,-9.528923034667969,-5.9661865234375,10.6201171875,17.8985595703125
12.789999900000002,-1.359906554222107,-0.7709329724311829,-9.588777542114258,-4.4403076171875,-16.9677734375,1.922607421875
12.809999900000001,-1.3910311460494995,-0.8906430602073669,-9.605537414550781,-2.3345947265625,-22.430419921875,-4.302978515625
12.8299999,-1.4293384552001953,-0.8619126081466675,-9.744400978088379,-9.2315673828125,0.8392333984375,8.5601806640625
12.8499999,-1.4915876388549805,-0.6799532771110535,-9.967061996459961,-2.99072265625,5.4779052734375,11.4898681640625
12.8699999,-1.5275006294250488,-0.5386953949928284,-10.125079154968262,10.5438232421875,-2.044677734375,7.537841796875
12.889999900000001,-1.558625340461731,-0.47405192255973816,-10.11789608001709,-0.1373291015625,-0.1983642578125,3.265380859375
12.9099999,-1.5658079385757446,-0.507570743560791,-9.99100399017334,-6.8817138671875,6.591796875,4.4708251953125
12.9299999,-1.5682021379470825,-0.5123591423034668,-9.876082420349121,7.4310302734375,1.739501953125,1.89208984375
12.9499999,-1.5753847360610962,-0.4644751250743866,-9.742006301879883,8.60595703125,-5.4168701171875,-2.5177001953125
12.969999900000001,-1.580173134803772,-0.43095630407333374,-9.674968719482422,2.2430419921875,-2.716064453125,3.326416015625
12.9899999,-1.599326729774475,-0.3495534360408783,-9.586383819580078,7.415771484375,5.3863525390625,4.1961669921875
13.0099999,-1.5969325304031372,-0.4405331015586853,-9.50498104095459,10.07080078125,0.6866455078125,4.9591064453125
13.0299999,-1.5921441316604614,-0.5123591423034668,-9.404424667358398,14.1754150390625,-10.5133056640625,-2.655029296875
13.049999900000001,-1.580173134803772,-0.5482721924781799,-9.387664794921875,13.36669921875,-8.880615234375,-5.92041015625
13.069999900000001,-1.5705963373184204,-0.5482721924781799,-9.452308654785156,11.9781494140625,0.30517578125,5.584716796875
13.0899999,-1.580173134803772,-0.4644751250743866,-9.521739959716797,6.7901611328125,2.3651123046875,10.223388671875
13.1099999,-1.6041151285171509,-0.47884035110473633,-9.586383819580078,4.5623779296875,-10.009765625,8.36181640625
13.129999900000001,-1.625662922859192,-0.608127236366272,-9.555258750915527,4.7607421875,-9.6588134765625,5.462646484375
13.149999900000001,-1.6687586307525635,-0.7422025203704834,-9.497797966003418,-1.312255859375,-2.960205078125,-0.2288818359375
13.1699999,-1.699883222579956,-0.8164227604866028,-9.500192642211914,-2.044677734375,-8.056640625,-0.8392333984375
13.1899999,-1.7357962131500244,-0.7254431247711182,-9.550470352172852,2.8839111328125,-14.58740234375,0.640869140625
13.209999900000001,-1.742978811264038,-0.6560112833976746,-9.624691009521484,9.70458984375,-7.7667236328125,8.9569091796875
13.229999900000001,-1.7525556087493896,-0.5195417404174805,-9.725247383117676,8.7890625,-0.6561279296875,6.3018798828125
13.2499999,-1.7573440074920654,-0.5051765441894531,-9.828198432922363,12.02392578125,-3.692626953125,4.45556640625
13.2699999,-1.745373010635376,-0.6009446382522583,-9.782708168029785,7.843017578125,1.2359619140625,7.781982421875
13.289999900000002,-1.7621324062347412,-0.6584054827690125,-9.68694019317627,6.256103515625,0.5035400390625,2.4566650390625
13.309999900000001,-1.7884687185287476,-0.6823474764823914,-9.53849983215332,15.655517578125,-4.6539306640625,0.885009765625
13.3299999,-1.8076223134994507,-0.7469909191131592,-9.385271072387695,16.845703125,-7.1258544921875,11.138916015625
13.3499999,-1.8387469053268433,-0.7589619159698486,-9.361329078674316,11.016845703125,-10.162353515625,12.451171875
13.3699999,-1.8722656965255737,-0.7733271718025208,-9.47146224975586,13.6566162109375,-9.8724365234375,6.256103515625
13.389999900000001,-1.900996208190918,-0.8738836050033569,-9.543288230895996,3.1280517578125,-0.0457763671875,13.0767822265625
13.4099999,-1.9129672050476074,-0.9744400978088379,-9.550470352172852,-14.58740234375,-5.4931640625,18.768310546875
13.4299999,-1.946485996246338,-0.9433154463768005,-9.488221168518066,0.7171630859375,-24.0631103515625,7.8582763671875
13.4499999,-1.965639591217041,-0.9026140570640564,-9.454702377319336,18.9208984375,-27.40478515625,9.9639892578125
13.469999900000001,-1.9536685943603516,-0.6703764796257019,-9.586383819580078,4.9285888671875,-17.3492431640625,22.5677490234375
13.4899999,-1.9512743949890137,-0.4165911078453064,-10.034099578857422,8.3465576171875,-15.9454345703125,29.266357421875
13.5099999,-1.8698714971542358,-0.3878606855869293,-10.553641319274902,22.15576171875,-5.706787109375,39.764404296875
13.5299999,-1.7908629179000854,-0.47165772318840027,-11.322179794311523,37.0941162109375,1.1444091796875,31.036376953125
13.549999900000001,-2.0638017654418945,-1.0414776802062988,-14.171279907226562,56.7779541015625,27.6031494140625,54.2144775390625
13.569999900000001,-2.346317768096924,-1.9704279899597168,-15.514427185058594,-44.1436767578125,127.960205078125,86.9140625
13.5899999,-2.583343744277954,-3.181894063949585,-16.187198638916016,-74.15771484375,159.0118408203125,44.891357421875
13.6099999,-2.7102363109588623,-4.649539470672607,-16.05072784423828,-14.801025390625,125.5340576171875,-0.335693359375
13.629999900000001,-2.6623523235321045,-5.971138954162598,-14.913482666015625,-8.5906982421875,153.13720703125,-1.8157958984375
13.649999900000001,-2.6431987285614014,-6.572083473205566,-13.347674369812012,-35.9344482421875,201.324462890625,-23.223876953125
13.6699999,-2.612074136734009,-6.718130111694336,-11.473014831542969,-15.4266357421875,193.90869140625,-54.534912109375
13.6899999,-2.5546131134033203,-6.4380083084106445,-9.026140213012695,-38.665771484375,179.6417236328125,-61.70654296875
13.709999900000001,-2.4468741416931152,-5.834669589996338,-6.4164605140686035,-46.6766357421875,146.5911865234375,-71.807861328125
13.729999900000001,-2.252943754196167,-5.0254292488098145,-3.7158010005950928,-18.798828125,117.2637939453125,-104.00390625
13.7499999,-2.0183119773864746,-4.120420932769775,-0.9624691009521484,-0.5950927734375,92.4072265625,-132.38525390625
13.7699999,-1.7525556087493896,-3.1675288677215576,2.027888774871826,-26.611328125,35.21728515625,-147.7203369140625
13.789999900000002,-1.723825216293335,-2.209848165512085,5.1810526847839355,15.2587890625,-82.000732421875,-168.8690185546875
13.809999900000001,-2.3965959548950195,-0.7613561153411865,8.24084186553955,84.65576171875,-235.16845703125,-207.000732421875
13.8299999,-3.9408559799194336,1.1683704853057861,9.066842079162598,126.7852783203125,-445.3582763671875,-206.9854736328125
13.8499999,-6.234501361846924,3.584120035171509,5.870582580566406,198.7152099609375,-500,-141.7236328125
13.8699999,-8.56645393371582,6.610390663146973,-1.1899182796478271,113.76953125,-467.0562744140625,-70.953369140625
13.889999900000001,-10.187328338623047,8.9064302444458,-9.888052940368652,-56.610107421875,-187.1490478515625,23.468017578125
13.9099999,-10.302249908447266,9.313444137573242,-17.17839813232422,-93.5821533203125,-94.23828125,115.1580810546875
13.9299999,-9.208099365234375,8.212111473083496,-21.492748260498047,-106.3995361328125,-161.7584228515625,54.8248291015625
13.9499999,-8.018181800842285,6.030993938446045,-22.77604103088379,-70.9075927734375,-155.4718017578125,-12.6190185546875
13.969999900000001,-6.847416877746582,3.88818359375,-22.37141990661621,-26.519775390625,-12.20703125,56.396484375
13.9899999,-6.603208065032959,2.7246015071868896,-21.581335067749023,49.9267578125,35.797119140625,112.36572265625
14.0099999,-6.761225700378418,1.8579005002975464,-20.819978713989258,218.0023193359375,0.8544921875,142.2882080078125
14.0299999,-7.036558628082275,0.035913024097681046,-20.061016082763672,499.9847412109375,95.3826904296875,133.5601806640625
14.049999900000001,-7.331045627593994,-3.5051112174987793,-20.329166412353516,499.9847412109375,223.3123779296875,44.403076171875
14.069999900000001,-7.735665798187256,-8.092401504516602,-20.128053665161133,363.3270263671875,316.2689208984375,-112.701416015625
14.0899999,-8.59997272491455,-10.946290016174316,-17.575834274291992,-165.9088134765625,499.9847412109375,-266.510009765625
14.1099999,-8.959102630615234,-11.908759117126465,-11.137825965881348,-500,494.6136474609375,-149.9786376953125
14.129999900000001,-8.42040729522705,-11.068394660949707,-2.4899697303771973,-410.9649658203125,107.48291015625,113.5406494140625
14.149999900000001,-7.0341644287109375,-8.389283180236816,5.647922039031982,20.782470703125,-182.5408935546875,0.823974609375
14.1699999,-4.821922302246094,-6.141127586364746,9.461885452270508,65.5059814453125,-247.7874755859375,-121.1700439453125
14.1899999,-2.801215887069702,-3.734954595565796,7.6997528076171875,34.637451171875,-154.47998046875,-74.3560791015625
14.209999900000001,-1.580173134803772,-0.8619126081466675,2.456450939178467,-7.5836181640625,-37.8570556640625,-36.7889404296875
14.229999900000001,-0.9840168952941895,1.5682021379470825,-3.9240965843200684,3.5858154296875,-31.890869140625,-16.0675048828125
14.2499999,-0.8259995579719543,2.851494312286377,-8.860940933227539,55.206298828125,-26.0162353515625,11.505126953125
14.2699999,-0.8475474119186401,2.676717519760132,-11.554417610168457,3.84521484375,19.287109375,32.3638916015625
14.289999900000002,-0.9241618514060974,1.292868971824646,-12.36365795135498,-25.787353515625,1.40380859375,15.93017578125
14.309999900000001,-1.0295066833496094,-0.45010992884635925,-11.741165161132812,-25.421142578125,-32.562255859375,-17.486572265625
14.3299999,-1.173158884048462,-1.8315643072128296,-10.843339920043945,-5.79833984375,-44.769287109375,-24.8870849609375
14.3499999,-1.381454348564148,-2.5234885215759277,-10.359710693359375,14.2059326171875,-27.4810791015625,-2.8076171875
14.3699999,-1.5969325304031372,-2.652775526046753,-10.086771965026855,-29.9072265625,16.998291015625,15.5487060546875
14.389999900000001,-1.7381904125213623,-2.6360161304473877,-9.861717224121094,-58.0902099609375,8.23974609375,16.7083740234375
14.4099999,-1.7932571172714233,-2.6791117191314697,-9.715670585632324,-13.031005859375,-44.1131591796875,13.031005859375
14.4299999,-1.7836803197860718,-2.698265314102173,-9.593565940856934,-1.64794921875,-42.2515869140625,5.7373046875
14.4499999,-1.7477672100067139,-2.626439332962036,-9.639056205749512,-50.048828125,0.396728515625,1.7242431640625
14.469999900000001,-1.7190368175506592,-2.5258827209472656,-9.945513725280762,-41.6107177734375,-1.4190673828125,-0.91552734375
14.4899999,-1.7405846118927002,-2.279279947280884,-10.134655952453613,9.27734375,-17.669677734375,-14.0380859375
14.5099999,-1.7812861204147339,-2.0901381969451904,-10.160991668701172,3.1280517578125,-7.293701171875,-10.3912353515625
14.5299999,-1.900996208190918,-1.7884687185287476,-10.15141487121582,-18.37158203125,2.25830078125,-2.0904541015625
14.549999900000001,-2.006340980529785,-1.5682021379470825,-10.041281700134277,-22.3236083984375,-1.220703125,8.4991455078125
14.569999900000001,-2.0829553604125977,-1.4532804489135742,-9.880870819091797,-10.894775390625,-9.2315673828125,12.3443603515625
14.5899999,-2.1116859912872314,-1.4293384552001953,-9.658209800720215,-13.2293701171875,-6.103515625,4.8675537109375
14.6099999,-2.10210919380188,-1.4700398445129395,-9.478644371032715,-24.9176025390625,-0.7781982421875,3.570556640625
14.629999900000001,-2.0829553604125977,-1.5490485429763794,-9.459490776062012,-1.312255859375,-4.1961669921875,8.270263671875
14.649999900000001,-2.0805611610412598,-1.599326729774475,-9.370905876159668,8.9111328125,4.57763671875,7.415771484375
14.6699999,-2.10210919380188,-1.599326729774475,-9.241618156433105,-2.62451171875,7.293701171875,5.55419921875
14.6899999,-2.1116859912872314,-1.6950948238372803,-9.205705642700195,13.580322265625,-11.505126953125,13.671875
14.709999900000001,-2.1332337856292725,-1.7334020137786865,-9.114726066589355,20.8587646484375,-13.1378173828125,12.5885009765625
14.729999900000001,-2.142810583114624,-1.8171991109848022,-9.050082206726074,-8.1024169921875,-2.044677734375,7.6751708984375
14.7499999,-2.140416383743286,-1.944091796875,-9.172186851501465,1.2969970703125,-13.580322265625,11.1846923828125
14.7699999,-2.1356279850006104,-2.0398597717285156,-9.244012832641602,6.6375732421875,-13.1683349609375,9.8876953125
14.789999900000002,-2.1930887699127197,-1.9033904075622559,-9.287108421325684,-20.416259765625,-4.69970703125,3.570556640625
14.809999900000001,-2.250549554824829,-1.745373010635376,-9.509769439697266,-15.07568359375,-16.8914794921875,17.0745849609375
14.8299999,-2.3104045391082764,-1.580173134803772,-9.605537414550781,-6.0272216796875,-8.2244873046875,30.57861328125
14.8499999,-2.3319525718688965,-1.5203180313110352,-9.603142738342285,-23.5748291015625,5.9967041015625,20.233154296875
14.8699999,-2.3056161403656006,-1.5969325304031372,-9.586383819580078,-9.7198486328125,-5.157470703125,1.9989013671875
14.889999900000001,-2.27209734916687,-1.647210717201233,-9.457097053527832,4.3487548828125,-10.3607177734375,-5.615234375
14.9099999,-2.2840683460235596,-1.4772224426269531,-9.275136947631836,-9.70458984375,-1.007080078125,0.8087158203125
14.9299999,-2.3080103397369385,-1.316810965538025,-9.172186851501465,-19.1497802734375,-5.889892578125,15.31982421875
14.9499999,-2.3511061668395996,-1.0989385843276978,-9.090784072875977,-20.233154296875,-17.852783203125,10.8489990234375
14.969999900000001,-2.3989901542663574,-0.9552865028381348,-9.14585018157959,-3.4637451171875,-18.3563232421875,-1.0833740234375
14.9899999,-2.4229321479797363,-0.950498104095459,-9.188945770263672,-4.3487548828125,-1.2054443359375,6.7596435546875
15.0099999,-2.451662540435791,-0.993593692779541,-9.29189682006836,-11.4593505859375,0.48828125,11.2152099609375
15.0299999,-2.516305923461914,-0.9768342971801758,-9.387664794921875,4.364013671875,-12.7716064453125,-2.960205078125
15.049999900000001,-2.5737667083740234,-0.9768342971801758,-9.421183586120605,-0.7781982421875,-14.007568359375,2.4261474609375
15.069999900000001,-2.6216509342193604,-1.0223240852355957,-9.497797966003418,-20.5230712890625,-9.3536376953125,20.93505859375
15.0899999,-2.669534921646118,-1.0103530883789062,-9.569623947143555,-15.7318115234375,-4.852294921875,12.5274658203125
15.1099999,-2.6886885166168213,-1.05105459690094,-9.59596061706543,-3.3416748046875,-5.035400390625,-0.946044921875
15.129999900000001,-2.6791117191314697,-1.1204863786697388,-9.643844604492188,6.927490234375,-9.521484375,4.33349609375
15.149999900000001,-2.6815059185028076,-1.1348515748977661,-9.667786598205566,2.8228759765625,-3.143310546875,8.1634521484375
15.1699999,-2.693476915359497,-1.1037269830703735,-9.655815124511719,-7.7362060546875,2.74658203125,1.220703125
15.1899999,-2.7126305103302,-1.094150185585022,-9.605537414550781,-2.5787353515625,-5.5389404296875,-0.30517578125
15.209999900000001,-2.7485435009002686,-1.0414776802062988,-9.545681953430176,11.8408203125,-11.8255615234375,2.7313232421875
15.229999900000001,-2.7700912952423096,-1.0438719987869263,-9.485827445983887,14.1143798828125,-4.33349609375,7.2174072265625
15.2499999,-2.779668092727661,-0.9792284965515137,-9.440337181091309,1.220703125,4.0740966796875,1.5411376953125
15.2699999,-2.7772738933563232,-0.9217676520347595,-9.394847869873047,3.692626953125,-3.570556640625,-3.021240234375
15.289999900000002,-2.7533318996429443,-0.9433154463768005,-9.306262016296387,13.1378173828125,-9.58251953125,8.72802734375
15.309999900000001,-2.7437551021575928,-0.9097966551780701,-9.167398452758789,12.420654296875,-4.547119140625,6.2408447265625
15.3299999,-2.7269957065582275,-0.9217676520347595,-9.08838939666748,-3.021240234375,-6.77490234375,-0.0152587890625
15.3499999,-2.7126305103302,-0.8619126081466675,-9.279925346374512,3.8299560546875,-21.4996337890625,1.5716552734375
15.3699999,-2.7246015071868896,-0.646434485912323,-9.643844604492188,12.451171875,-12.8021240234375,9.6282958984375
15.389999900000001,-2.782062292098999,-0.33279404044151306,-10.345345497131348,13.397216796875,3.9825439453125,19.59228515625
15.4099999,-2.9161376953125,-0.05506663769483566,-11.398794174194336,24.017333984375,3.0975341796875,30.3192138671875
15.4299999,-3.0526070594787598,-0.27054479718208313,-12.667720794677734,32.2723388671875,15.9759521484375,47.05810546875
15.4499999,-3.205836057662964,-0.8547300100326538,-13.883975982666016,1.251220703125,59.26513671875,42.0379638671875
15.469999900000001,-3.268085241317749,-1.9608511924743652,-14.719552040100098,-32.958984375,92.1478271484375,29.5257568359375
15.4899999,-3.2561142444610596,-3.205836057662964,-14.925453186035156,-24.2462158203125,99.2584228515625,17.4407958984375
15.5099999,-3.1866824626922607,-4.230554580688477,-14.508862495422363,-17.1051025390625,103.607177734375,-2.0294189453125
15.5299999,-3.0550012588500977,-5.12119722366333,-13.563152313232422,-20.2178955078125,128.875732421875,-11.7950439453125
15.549999900000001,-2.8802247047424316,-5.758055210113525,-12.160150527954102,-19.59228515625,161.68212890625,-29.052734375
15.569999900000001,-2.6815059185028076,-6.045359134674072,-10.402806282043457,-19.0582275390625,154.1748046875,-68.328857421875
15.5899999,-2.4827871322631836,-5.916072368621826,-8.394071578979492,-12.2833251953125,123.7640380859375,-89.935302734375
15.6099999,-2.3032219409942627,-5.240907669067383,-6.426037311553955,-10.1165771484375,107.9254150390625,-86.97509765625
15.629999900000001,-2.1499931812286377,-4.170699596405029,-4.575319290161133,-17.181396484375,104.156494140625,-83.2061767578125
15.649999900000001,-1.9345149993896484,-3.098097085952759,-2.7724854946136475,-26.824951171875,85.906982421875,-82.763671875
15.6699999,-1.6496049165725708,-2.1978771686553955,-0.8906430602073669,-14.373779296875,35.7208251953125,-95.0775146484375
15.6899999,-1.3479355573654175,-1.3670891523361206,0.9241618514060974,12.8326416015625,-33.416748046875,-114.898681640625
15.709999900000001,-1.2713210582733154,-0.040701430290937424,3.00711727142334,-21.9573974609375,-67.596435546875,-137.26806640625
15.729999900000001,-1.7621324062347412,1.9608511924743652,5.367800235748291,-96.3897705078125,-129.6234130859375,-124.4659423828125
15.7499999,-3.0597896575927734,3.861847400665283,7.129932880401611,30.70068359375,-311.5234375,-30.1055908203125
15.7699999,-5.240907669067383,5.130774021148682,6.493074893951416,239.6240234375,-492.1417236328125,21.4996337890625
15.789999900000002,-7.91283655166626,5.894524574279785,1.314416766166687,346.4202880859375,-500,-11.1083984375
15.809999900000001,-10.309432983398438,5.892130374908447,-6.732495307922363,166.595458984375,-294.0673828125,39.947509765625
15.8299999,-11.616666793823242,4.534617900848389,-15.488090515136719,-96.9085693359375,-33.477783203125,210.3729248046875
15.8499999,-11.69806957244873,2.801215887069702,-22.3570556640625,29.4952392578125,-98.9532470703125,165.618896484375
15.869999900000002,-10.8505220413208,0.4405331015586853,-25.299530029296875,109.06982421875,-82.45849609375,44.830322265625
15.889999900000001,-9.691728591918945,-1.900996208190918,-26.06806755065918,53.6651611328125,0.0152587890625,55.4046630859375
15.9099999,-8.7484130859375,-3.3207578659057617,-25.723302841186523,3.4027099609375,64.5751953125,104.4921875
15.9299999,-8.142680168151855,-3.7493197917938232,-24.214956283569336,-22.4609375,157.16552734375,81.23779296875
15.9499999,-7.654263019561768,-4.460397720336914,-21.794418334960938,-20.3094482421875,200.3021240234375,79.2388916015625
15.969999900000001,-7.240066051483154,-5.049371242523193,-18.363527297973633,10.3759765625,192.81005859375,61.8896484375
15.9899999,-6.715735912322998,-5.966350555419922,-14.338873863220215,-14.007568359375,176.605224609375,39.2608642578125
16.0099999,-6.074089527130127,-6.976703643798828,-10.888829231262207,-12.3291015625,134.0484619140625,22.6287841796875
16.0299999,-5.458779811859131,-7.33583402633667,-8.283937454223633,5.706787109375,130.950927734375,-36.4227294921875
16.0499999,-4.869806289672852,-7.465120792388916,-6.6127848625183105,-25.604248046875,165.7257080078125,-45.0439453125
16.0699999,-4.3622355461120605,-7.321468830108643,-5.583278179168701,-28.289794921875,161.0565185546875,-29.7698974609375
16.089999900000002,-3.9193081855773926,-7.132327079772949,-4.446032524108887,-16.876220703125,146.636962890625,-75.2105712890625
16.109999900000002,-3.533841609954834,-6.3949127197265625,-3.0310592651367188,-36.0107421875,104.7515869140625,-153.9764404296875
16.1299999,-3.2321722507476807,-4.402936935424805,-1.6950948238372803,-78.18603515625,23.9715576171875,-168.4722900390625
16.1499999,-2.9089550971984863,-1.6496049165725708,-1.599326729774475,-38.421630859375,-63.385009765625,-67.5506591796875
16.1699999,-2.604891538619995,1.7166426181793213,-2.456450939178467,7.568359375,-32.806396484375,-6.744384765625
16.1899999,-2.2170307636260986,4.587290287017822,-3.821146011352539,-26.06201171875,50.5218505859375,-22.216796875
16.2099999,-1.6041151285171509,5.468356609344482,-5.556941986083984,-1.2664794921875,-13.61083984375,33.172607421875
16.2299999,-1.0654197931289673,5.2911858558654785,-6.734889507293701,14.9383544921875,-69.15283203125,42.877197265625
16.249999900000002,-0.730231523513794,4.508281707763672,-7.817068576812744,-1.2054443359375,-39.48974609375,-20.538330078125
16.269999900000002,-0.545877993106842,3.1220390796661377,-8.978256225585938,12.8326416015625,-6.8511962890625,3.448486328125
16.2899999,-0.646434485912323,2.006340980529785,-9.883264541625977,7.598876953125,-7.1563720703125,38.238525390625
16.3099999,-0.8307880163192749,0.8595184087753296,-10.383652687072754,5.767822265625,-26.3519287109375,24.10888671875
16.3299999,-1.072602391242981,-0.09576806426048279,-10.520122528076172,1.2054443359375,-33.660888671875,-9.246826171875
16.3499999,-1.3000515699386597,-0.8427590131759644,-10.958261489868164,14.4195556640625,-42.144775390625,-9.002685546875
16.3699999,-1.5538369417190552,-1.0845733880996704,-11.468226432800293,9.9945068359375,-9.82666015625,13.641357421875
16.3899999,-1.742978811264038,-1.0989385843276978,-11.652579307556152,-29.7393798828125,41.168212890625,21.30126953125
16.4099999,-1.8195933103561401,-1.1540051698684692,-11.470620155334473,-22.216796875,15.350341796875,11.23046875
16.429999900000002,-1.7956513166427612,-1.1563993692398071,-10.764330863952637,-3.875732421875,-22.5372314453125,-7.7362060546875
16.4499999,-1.742978811264038,-0.9744400978088379,-9.986215591430664,-20.7977294921875,-16.41845703125,-7.8125
16.4699999,-1.6855180263519287,-0.6847416758537292,-9.536105155944824,-26.641845703125,1.0223388671875,10.8795166015625
16.4899999,-1.6759412288665771,-0.2825157940387726,-9.330204010009766,-16.6473388671875,6.3934326171875,11.4898681640625
16.5099999,-1.6519991159439087,-0.14604631066322327,-9.318233489990234,9.5977783203125,-7.598876953125,4.8980712890625
16.5299999,-1.625662922859192,-0.2322375625371933,-9.272743225097656,17.1051025390625,-7.7667236328125,2.288818359375
16.5499999,-1.6400281190872192,-0.31603461503982544,-9.349357604980469,11.2152099609375,-4.119873046875,-6.2255859375
16.5699999,-1.6639702320098877,-0.3758896589279175,-9.5408935546875,7.2479248046875,-8.209228515625,-3.7689208984375
16.589999900000002,-1.7070658206939697,-0.33758243918418884,-9.694122314453125,9.765625,-1.220703125,4.302978515625
16.609999900000002,-1.7405846118927002,-0.2968810200691223,-9.737217903137207,16.5863037109375,6.9732666015625,5.126953125
16.6299999,-1.7381904125213623,-0.40940847992897034,-9.775525093078613,28.3355712890625,-4.913330078125,3.8604736328125
16.6499999,-1.7190368175506592,-0.5770025849342346,-9.799467086791992,25.6195068359375,-9.4451904296875,-4.5623779296875
16.6699999,-1.7286136150360107,-0.6009446382522583,-9.847352027893066,31.92138671875,6.072998046875,-12.02392578125
16.6899999,-1.7717092037200928,-0.5195417404174805,-9.897629737854004,40.740966796875,15.0909423828125,-0.244140625
16.7099999,-1.7693150043487549,-0.6129156351089478,-9.909601211547852,28.99169921875,4.7607421875,20.355224609375
16.7299999,-1.7764976024627686,-0.6584054827690125,-9.674968719482422,-8.9263916015625,4.0740966796875,3.5247802734375
16.749999900000002,-1.7405846118927002,-0.8355764150619507,-9.493009567260742,-13.9312744140625,-3.0517578125,-14.8162841796875
16.769999900000002,-1.6974890232086182,-0.9433154463768005,-9.363722801208496,17.27294921875,-4.425048828125,0.2899169921875
16.7899999,-1.6950948238372803,-0.8403648138046265,-9.354146003723145,26.397705078125,4.302978515625,10.467529296875
16.8099999,-1.678335428237915,-0.8092401623725891,-9.433155059814453,12.298583984375,6.622314453125,11.627197265625
16.8299999,-1.6400281190872192,-0.9265560507774353,-9.349357604980469,-19.3939208984375,5.3863525390625,6.8511962890625
16.8499999,-1.6280571222305298,-1.0079588890075684,-9.404424667358398,-2.166748046875,-14.95361328125,-2.2735595703125
16.8699999,-1.6041151285171509,-1.1540051698684692,-9.44991397857666,24.749755859375,-14.007568359375,5.828857421875
16.8899999,-1.6328455209732056,-1.194706678390503,-9.627084732055664,22.5982666015625,8.2550048828125,10.0250244140625
16.9099999,-1.680729627609253,-1.3311761617660522,-9.832986831665039,13.763427734375,16.693115234375,1.1444091796875
16.929999900000002,-1.742978811264038,-1.5466543436050415,-9.837775230407715,12.054443359375,16.7999267578125,-7.843017578125
16.9499999,-1.843535304069519,-1.6927006244659424,-9.66299819946289,22.8729248046875,13.4429931640625,-15.7928466796875
16.9699999,-1.946485996246338,-1.7286136150360107,-9.361329078674316,28.1219482421875,13.3514404296875,-10.1776123046875
16.9899999,-2.0159177780151367,-1.7310078144073486,-8.978256225585938,1.1444091796875,19.5770263671875,-2.38037109375
17.0099999,-2.0901381969451904,-1.5394717454910278,-8.746018409729004,9.490966796875,10.833740234375,-13.73291015625
17.0299999,-2.1068975925445557,-1.316810965538025,-8.592789649963379,37.5213623046875,15.3350830078125,-20.2178955078125
17.0499999,-1.987187385559082,-1.280897855758667,-8.707711219787598,52.24609375,26.947021484375,-4.791259765625
17.0699999,-1.764526605606079,-1.256955862045288,-8.580819129943848,-4.6844482421875,51.788330078125,-11.383056640625
17.089999900000002,-1.4867992401123047,-0.9959878921508789,-8.406042098999023,-35.7666015625,34.332275390625,-44.0673828125
17.109999900000002,-1.1540051698684692,-0.7038952708244324,-8.303091049194336,34.8358154296875,-9.5672607421875,-21.17919921875
17.1299999,-0.8595184087753296,-0.3711012601852417,-8.130708694458008,48.40087890625,4.8980712890625,24.4293212890625
17.1499999,-0.6440402865409851,-0.11971008777618408,-8.281543731689453,-13.3819580078125,10.1776123046875,17.730712890625
17.1699999,-0.4692635238170624,-0.3926490843296051,-9.01895809173584,6.8206787109375,-35.491943359375,8.4075927734375
17.1899999,-0.40222588181495667,-0.9481038451194763,-9.761159896850586,37.1551513671875,-18.00537109375,14.312744140625
17.2099999,-0.40462008118629456,-1.7310078144073486,-10.517727851867676,14.6942138671875,20.599365234375,29.0374755859375
17.2299999,-0.4692635238170624,-2.497152328491211,-11.30302619934082,-2.38037109375,-3.3111572265625,17.8985595703125
17.249999900000002,-0.545877993106842,-3.0358476638793945,-11.635820388793945,-13.1988525390625,-14.8162841796875,-1.617431640625
17.269999900000002,-0.5793967843055725,-3.2992098331451416,-11.688492774963379,-9.796142578125,5.340576171875,5.67626953125
17.2899999,-0.5674257874488831,-3.2082302570343018,-11.532869338989258,0.9002685546875,11.993408203125,20.3094482421875
17.3099999,-0.49559974670410156,-2.7509377002716064,-11.166556358337402,1.434326171875,2.532958984375,6.9732666015625
17.3299999,-0.3687070608139038,-2.0853497982025146,-10.685321807861328,-1.068115234375,-9.9334716796875,2.38037109375
17.3499999,-0.16759411990642548,-1.4676456451416016,-10.431536674499512,6.7901611328125,-20.6146240234375,28.900146484375
17.3699999,-0.0071826050989329815,-0.7876923680305481,-10.639832496643066,22.6593017578125,-24.383544921875,40.8477783203125
17.3899999,0.09576806426048279,-0.4908113479614258,-11.571176528930664,27.679443359375,-23.37646484375,42.694091796875
17.409999900000003,0.043095629662275314,-0.7110779285430908,-13.117831230163574,28.2440185546875,-7.2479248046875,48.6297607421875
17.429999900000002,-0.1843535304069519,-1.6112977266311646,-14.798561096191406,38.818359375,42.999267578125,56.396484375
17.4499999,-0.5746083855628967,-3.181894063949585,-16.326061248779297,33.02001953125,72.8912353515625,46.3714599609375
17.4699999,-1.048660397529602,-5.3342814445495605,-17.338808059692383,9.674072265625,79.6051025390625,20.08056640625
17.4899999,-1.5945383310317993,-7.364564418792725,-17.465702056884766,-20.904541015625,130.4779052734375,-23.9105224609375
17.5099999,-2.164358377456665,-8.789113998413086,-16.673221588134766,-30.3497314453125,180.0079345703125,-58.5479736328125
17.5299999,-2.612074136734009,-9.619902610778809,-14.791378021240234,-17.9595947265625,191.40625,-52.55126953125
17.5499999,-2.911349296569824,-9.564835548400879,-11.824962615966797,-11.3525390625,186.4471435546875,-86.2274169921875
17.5699999,-2.9951462745666504,-8.877699851989746,-8.238448143005371,-19.6380615234375,161.6058349609375,-139.5416259765625
17.589999900000002,-2.8874073028564453,-7.625532627105713,-4.489128112792969,-12.4359130859375,128.1585693359375,-148.92578125
17.609999900000002,-2.626439332962036,-5.95677375793457,-1.0031704902648926,-2.6702880859375,90.5609130859375,-122.6806640625
17.6299999,-2.2673089504241943,-4.094084739685059,1.6328455209732056,20.3857421875,21.97265625,-121.9940185546875
17.6499999,-1.8914192914962769,-2.250549554824829,3.2609026432037354,53.52783203125,-34.1796875,-145.477294921875
17.6699999,-1.6759412288665771,-0.49559974670410156,4.141968727111816,48.1109619140625,-49.072265625,-140.7012939453125
17.6899999,-1.8315643072128296,1.280897855758667,4.240131378173828,28.0609130859375,-98.724365234375,-104.3243408203125
17.7099999,-2.322375535964966,2.853888511657715,3.0837318897247314,47.42431640625,-199.76806640625,-60.4400634765625
17.7299999,-2.8634653091430664,3.7684733867645264,1.5083470344543457,64.9871826171875,-177.001953125,-23.1170654296875
17.749999900000002,-3.471592426300049,4.49870491027832,0.17717093229293823,-7.6141357421875,-99.6551513671875,-31.219482421875
17.769999900000002,-4.094084739685059,4.654327869415283,-1.2832920551300049,2.8839111328125,-235.1837158203125,-27.313232421875
17.7899999,-4.757278919219971,4.49870491027832,-2.63362193107605,114.593505859375,-368.34716796875,31.1737060546875
17.8099999,-5.583278179168701,4.469974517822266,-5.626373767852783,158.203125,-402.191162109375,28.80859375
17.8299999,-6.3973069190979,4.692635536193848,-10.484209060668945,149.3072509765625,-302.5970458984375,21.3775634765625
17.8499999,-6.833051681518555,4.3191399574279785,-16.27578353881836,87.0361328125,-146.8048095703125,123.4893798828125
17.8699999,-6.794744491577148,3.0861260890960693,-21.557392120361328,76.324462890625,-95.5047607421875,208.9691162109375
17.8899999,-6.610390663146973,1.2952631711959839,-24.72970962524414,33.050537109375,-47.882080078125,122.1160888671875
17.909999900000003,-6.366182327270508,-1.7836803197860718,-26.405651092529297,32.684326171875,-11.0626220703125,103.6529541015625
17.929999900000002,-6.380547523498535,-5.020640850067139,-26.779146194458008,7.62939453125,34.7900390625,158.935546875
17.9499999,-6.660669326782227,-7.790732383728027,-25.82146453857422,-88.1195068359375,142.303466796875,135.9100341796875
17.9699999,-6.876147270202637,-10.15141487121582,-23.841461181640625,-91.6748046875,201.5380859375,80.841064453125
17.9899999,-6.9024834632873535,-11.774683952331543,-21.282058715820312,-6.072998046875,174.102783203125,53.619384765625
18.0099999,-6.811503887176514,-12.277466773986816,-17.767370223999023,-10.6353759765625,228.6376953125,19.683837890625
18.0299999,-6.430825710296631,-12.289437294006348,-13.73314094543457,-108.5662841796875,313.0340576171875,6.317138671875
18.0499999,-5.9088897705078125,-11.425130844116211,-9.002198219299316,-130.5084228515625,260.040283203125,-37.6434326171875
18.0699999,-5.135562419891357,-9.691728591918945,-3.5889084339141846,-133.1329345703125,150.1007080078125,-95.2911376953125
18.089999900000002,-4.2090067863464355,-7.046135425567627,0.4692635238170624,-30.9600830078125,-5.9661865234375,-77.789306640625
18.109999900000002,-3.268085241317749,-3.670311212539673,2.185906171798706,31.7840576171875,-47.5006103515625,-49.9725341796875
18.1299999,-2.3918075561523438,-0.5506663918495178,1.7693150043487549,-28.6865234375,46.875,-25.0091552734375
18.1499999,-1.6376339197158813,1.6184803247451782,-0.12210428714752197,-49.49951171875,57.31201171875,-13.97705078125
18.1699999,-1.0582371950149536,2.7317841053009033,-2.293645143508911,34.7900390625,-36.376953125,-23.5748291015625
18.1899999,-0.6320692300796509,2.827552318572998,-4.017470359802246,55.999755859375,-57.6171875,-14.7705078125
18.2099999,-0.40701428055763245,2.3942017555236816,-5.875370979309082,23.681640625,-38.7420654296875,-2.899169921875
18.2299999,-0.3711012601852417,1.7717092037200928,-7.716512203216553,14.1143798828125,-28.3966064453125,-8.8653564453125
18.249999900000002,-0.4118026793003082,0.9576807022094727,-9.14345645904541,35.5072021484375,-14.9078369140625,1.8310546875
18.269999900000002,-0.5219359993934631,0.16759411990642548,-10.06043529510498,46.9818115234375,-17.0745849609375,8.575439453125
18.2899999,-0.6560112833976746,-0.48602294921875,-10.47702693939209,20.904541015625,-26.123046875,-0.6256103515625
18.3099999,-0.7469909191131592,-1.0821791887283325,-10.63743782043457,5.2032470703125,-23.5137939453125,3.23486328125
18.3299999,-0.8188169598579407,-1.436521053314209,-10.532093048095703,12.14599609375,-8.514404296875,5.31005859375
18.3499999,-0.8690952062606812,-1.5705963373184204,-10.488997459411621,21.8505859375,-14.2669677734375,1.007080078125
18.3699999,-0.8930372595787048,-1.6543933153152466,-10.47702693939209,29.11376953125,-23.0255126953125,4.33349609375
18.3899999,-0.8954314589500427,-1.7286136150360107,-10.412383079528809,-6.8359375,-1.739501953125,8.97216796875
18.409999900000003,-0.9169792532920837,-1.723825216293335,-10.390835762023926,-12.2528076171875,2.6702880859375,-0.030517578125
18.429999900000002,-0.933738648891449,-1.7597382068634033,-10.417171478271484,9.1705322265625,-14.9383544921875,2.1820068359375
18.4499999,-0.9600749015808105,-1.7262194156646729,-10.383652687072754,5.9356689453125,-10.040283203125,9.246826171875
18.4699999,-0.9600749015808105,-1.7381904125213623,-10.381258964538574,-17.08984375,5.8746337890625,9.8876953125
18.4899999,-0.9481038451194763,-1.7597382068634033,-10.342951774597168,-13.0157470703125,4.69970703125,0.6561279296875
18.5099999,-0.9433154463768005,-1.721431016921997,-10.199298858642578,3.2196044921875,-4.45556640625,-7.3394775390625
18.5299999,-0.9528923034667969,-1.6519991159439087,-10.074800491333008,6.4544677734375,-9.3231201171875,1.9683837890625
18.5499999,-0.9792284965515137,-1.5466543436050415,-9.897629737854004,-11.627197265625,1.89208984375,10.6658935546875
18.5699999,-1.0127472877502441,-1.4484920501708984,-9.785101890563965,-14.1448974609375,2.3193359375,3.60107421875
18.589999900000002,-1.0319008827209473,-1.4317326545715332,-9.734824180603027,15.228271484375,-9.368896484375,-2.74658203125
18.609999900000002,-1.05105459690094,-1.4269442558288574,-9.646238327026367,13.8702392578125,-3.631591796875,0.91552734375
18.6299999,-1.0869675874710083,-1.357512354850769,-9.718064308166504,-5.096435546875,1.77001953125,2.2735595703125
18.6499999,-1.0989385843276978,-1.338358759880066,-9.6989107131958,-9.307861328125,5.1422119140625,4.547119140625
18.6699999,-1.091755986213684,-1.3718775510787964,-9.57201862335205,-2.8533935546875,2.13623046875,3.90625
18.6899999,-1.0869675874710083,-1.4317326545715332,-9.48343276977539,13.2293701171875,-13.824462890625,-0.823974609375
18.7099999,-1.0893617868423462,-1.4915876388549805,-9.457097053527832,12.9852294921875,-11.9171142578125,-2.532958984375
18.7299999,-1.1252747774124146,-1.4772224426269531,-9.545681953430176,-0.457763671875,2.5177001953125,1.068115234375
18.749999900000002,-1.1516109704971313,-1.4963760375976562,-9.579200744628906,-0.6866455078125,6.744384765625,4.7607421875
18.769999900000002,-1.161187767982483,-1.577778935432434,-9.493009567260742,5.2490234375,-7.232666015625,3.4942626953125
18.7899999,-1.1755530834197998,-1.6089035272598267,-9.35893440246582,3.47900390625,-19.47021484375,-8.0108642578125
18.8099999,-1.1971008777618408,-1.6184803247451782,-9.387664794921875,0.885009765625,-14.434814453125,-7.2021484375
18.8299999,-1.2258312702178955,-1.522712230682373,-9.464279174804688,1.3885498046875,3.8909912109375,3.448486328125
18.8499999,-1.2665326595306396,-1.3766659498214722,-9.550470352172852,1.861572265625,4.730224609375,3.8909912109375
18.8699999,-1.256955862045288,-1.400607943534851,-9.552865028381348,2.25830078125,-12.1612548828125,3.9215087890625
18.8899999,-1.2713210582733154,-1.3215993642807007,-9.433155059814453,-9.1400146484375,-12.603759765625,-4.1351318359375
18.909999900000003,-1.2665326595306396,-1.290474772453308,-9.423578262329102,-7.5225830078125,-8.3160400390625,0.1983642578125
18.929999900000002,-1.2832920551300049,-1.1875240802764893,-9.44991397857666,6.4697265625,-5.584716796875,11.962890625
18.9499999,-1.314416766166687,-1.0893617868423462,-9.44991397857666,7.537841796875,-4.8675537109375,8.575439453125
18.9699999,-1.3192051649093628,-1.2018892765045166,-9.38048267364502,0.885009765625,-11.627197265625,7.2174072265625
18.9899999,-1.335964560508728,-1.3024457693099976,-9.301473617553711,-2.86865234375,-20.5841064453125,1.3427734375
19.0099999,-1.359906554222107,-1.2665326595306396,-9.222464561462402,6.6680908203125,-20.5841064453125,-1.3427734375
19.0299999,-1.3192051649093628,-1.1037269830703735,-9.162610054016113,7.5836181640625,-19.9737548828125,12.7105712890625
19.0499999,-1.2545616626739502,-0.5410895943641663,-9.181763648986816,15.7470703125,-34.6832275390625,16.632080078125
19.0699999,-1.1779472827911377,0.13407529890537262,-9.464279174804688,44.1741943359375,-53.22265625,24.6734619140625
19.089999900000002,-1.137245774269104,0.6224924325942993,-10.113107681274414,94.1619873046875,-47.91259765625,55.0689697265625
19.109999900000002,-1.1516109704971313,0.3064578175544739,-11.291055679321289,67.7032470703125,-30.0445556640625,78.887939453125
19.1299999,-1.3623007535934448,-0.6703764796257019,-13.204022407531738,38.0401611328125,-33.5540771484375,52.9327392578125
19.1499999,-1.7573440074920654,-2.185906171798706,-15.440206527709961,42.6788330078125,13.12255859375,15.9149169921875
19.1699999,-2.2409727573394775,-4.189853191375732,-17.542316436767578,35.614013671875,99.6246337890625,39.4744873046875
19.1899999,-2.7940332889556885,-6.076483726501465,-18.854337692260742,-3.0975341796875,157.28759765625,40.3900146484375
19.2099999,-3.1747114658355713,-8.101978302001953,-18.756175994873047,-40.3289794921875,185.1043701171875,-7.598876953125
19.2299999,-3.399766445159912,-9.780313491821289,-17.322050094604492,-16.9830322265625,197.08251953125,-64.14794921875
19.249999900000002,-3.445256233215332,-10.668562889099121,-14.590265274047852,-22.64404296875,220.7183837890625,-109.130859375
19.269999900000002,-3.404554843902588,-10.395624160766602,-11.104307174682617,-49.1943359375,221.0693359375,-127.166748046875
19.2899999,-3.354276657104492,-8.798690795898438,-7.3885064125061035,-44.921875,165.679931640625,-145.599365234375
19.3099999,-3.181894063949585,-6.646304130554199,-3.7684733867645264,-35.3546142578125,116.058349609375,-126.0833740234375
19.3299999,-2.8562827110290527,-4.46518611907959,-0.8403648138046265,-12.2222900390625,80.322265625,-101.07421875
19.3499999,-2.456450939178467,-2.4205379486083984,1.3766659498214722,-8.1329345703125,46.905517578125,-125.8544921875
19.3699999,-2.0614075660705566,-0.6847416758537292,2.674323320388794,1.3275146484375,-11.4593505859375,-139.2364501953125
19.3899999,-1.7836803197860718,0.689530074596405,3.2537200450897217,44.647216796875,-66.2994384765625,-89.324951171875
19.409999900000003,-1.6687586307525635,1.8794482946395874,3.287238836288452,42.8924560546875,-98.0682373046875,-54.107666015625
19.429999900000002,-1.723825216293335,2.8802247047424316,2.999934673309326,20.1568603515625,-144.1192626953125,-56.2286376953125
19.4499999,-2.0159177780151367,3.3877954483032227,2.6839001178741455,12.725830078125,-200.1953125,-38.4979248046875
19.4699999,-2.6360161304473877,3.955221176147461,1.3048399686813354,47.6837158203125,-298.309326171875,-3.3721923828125
19.4899999,-3.4572272300720215,4.496310710906982,-1.5873557329177856,34.9273681640625,-356.1859130859375,7.99560546875
19.5099999,-4.402936935424805,5.453991413116455,-5.705382823944092,3.11279296875,-274.0631103515625,19.3328857421875
19.5299999,-4.9583916664123535,5.588066577911377,-9.715670585632324,-10.4217529296875,-154.84619140625,85.4339599609375
19.5499999,-5.384559631347656,5.394136428833008,-13.165715217590332,53.741455078125,-223.7396240234375,103.6224365234375
19.5699999,-5.870582580566406,4.874594688415527,-16.000450134277344,142.1966552734375,-331.0546875,34.332275390625
19.589999900000002,-6.2632317543029785,2.937685489654541,-18.545486450195312,109.527587890625,-215.6219482421875,105.77392578125
19.609999900000002,-6.813898086547852,1.0007762908935547,-21.045032501220703,-20.843505859375,-54.9163818359375,132.8582763671875
19.6299999,-7.201758861541748,-1.1563993692398071,-22.65154266357422,-22.705078125,-15.7012939453125,65.12451171875
19.6499999,-7.340622425079346,-3.375824451446533,-22.735340118408203,47.515869140625,-14.495849609375,54.50439453125
19.6699999,-7.424419403076172,-5.04218864440918,-22.148759841918945,55.84716796875,1.3580322265625,70.3125
19.6899999,-7.510610580444336,-6.275202751159668,-21.401769638061523,-7.171630859375,83.740234375,63.9190673828125
19.7099999,-7.558494567871094,-7.402871608734131,-20.544645309448242,-50.9033203125,201.080322265625,43.548583984375
19.7299999,-7.486668586730957,-8.549694061279297,-18.863914489746094,-61.981201171875,273.2696533203125,21.087646484375
19.749999900000002,-7.175422668457031,-9.694122314453125,-15.806519508361816,-69.488525390625,272.39990234375,8.9263916015625
19.769999900000002,-6.72531270980835,-9.646238327026367,-11.341333389282227,-109.710693359375,237.97607421875,-63.7359619140625
19.7899999,-6.04775333404541,-8.60236644744873,-6.6630635261535645,-131.3018798828125,149.749755859375,-78.582763671875
19.8099999,-5.1595048904418945,-6.993463039398193,-2.7892448902130127,-62.6220703125,78.2623291015625,2.01416015625
19.8299999,-4.19224739074707,-4.771644115447998,-0.09576806426048279,-55.6488037109375,74.188232421875,-20.6146240234375
19.8499999,-3.184288263320923,-2.8586769104003906,1.05105459690094,-54.50439453125,51.94091796875,-71.0906982421875
19.8699999,-2.2697031497955322,-1.137245774269104,0.8451532125473022,-21.9879150390625,-6.4544677734375,-64.0869140625
19.8899999,-1.6519991159439087,0.7661445140838623,-0.5554547905921936,32.8216552734375,-38.787841796875,-39.4287109375
19.909999900000003,-1.3455413579940796,2.734178304672241,-2.3942017555236816,18.0816650390625,3.5858154296875,-28.2440185546875
19.929999900000002,-1.1779472827911377,3.9169139862060547,-4.446032524108887,-5.18798828125,11.1541748046875,13.6871337890625
19.9499999,-1.070208191871643,4.153939723968506,-6.354211330413818,25.1312255859375,-44.036865234375,35.247802734375
19.9699999,-1.0007762908935547,3.6942532062530518,-7.587224960327148,32.4249267578125,-33.782958984375,-0.213623046875
19.9899999,-0.933738648891449,2.7724854946136475,-8.698134422302246,23.5137939453125,-14.09912109375,-15.380859375
20.0099999,-0.9433154463768005,1.8171991109848022,-9.938331604003906,34.72900390625,-38.4521484375,10.955810546875
20.0299999,-1.0582371950149536,1.1516109704971313,-10.733205795288086,14.46533203125,-15.19775390625,14.9688720703125
