# Time (seconds),Accel_X,Accel_Y,Accel_Z,Gyro_X,Gyro_Y,Gyro_Z
0.0099999,3.4955344200134277,6.44279670715332,6.466738700866699,52.2613525390625,-6.927490234375,-98.236083984375
0.029999900000000003,3.2321722507476807,6.528987884521484,6.354211330413818,18.524169921875,-99.30419921875,-98.052978515625
0.0499999,2.87064790725708,6.789956092834473,6.071695327758789,97.625732421875,-181.427001953125,-29.449462890625
0.0699999,2.5019407272338867,7.108384609222412,5.262455463409424,194.4122314453125,-213.9739990234375,51.45263671875
0.08999990000000001,2.3942017555236816,7.1251444816589355,3.7708675861358643,213.897705078125,-192.352294921875,97.9156494140625
0.10999990000000001,2.6839001178741455,6.675034523010254,1.7334020137786865,162.5823974609375,-127.3040771484375,79.9560546875
0.1299999,3.2824504375457764,5.810727596282959,-0.3974374830722809,66.680908203125,-53.3599853515625,13.4124755859375
0.14999990000000002,3.885789394378662,4.886565685272217,-2.0638017654418945,-57.2967529296875,7.354736328125,-45.684814453125
0.1699999,4.376600742340088,4.367023944854736,-2.7940332889556885,-89.508056640625,73.7457275390625,-53.22265625
0.1899999,4.666299343109131,4.467580318450928,-2.6384103298187256,-39.4134521484375,134.27734375,-35.3851318359375
0.20999990000000002,4.7620673179626465,4.9583916664123535,-1.501164436340332,-106.14013671875,104.18701171875,-2.5787353515625
0.2299999,4.78122091293335,5.600037574768066,0.14844051003456116,-141.4337158203125,65.032958984375,-4.2572021484375
0.2499999,4.774038314819336,6.098031520843506,1.86508309841156,-20.81298828125,70.2056884765625,-15.3656005859375
0.2699999,4.726154327392578,6.36378812789917,3.3470940589904785,8.0413818359375,66.89453125,-1.9073486328125
0.28999990000000003,4.8602294921875,6.476315498352051,4.2760443687438965,-14.984130859375,68.267822265625,20.0653076171875
0.3099999,5.145139217376709,6.466738700866699,4.630385875701904,-2.01416015625,74.1424560546875,24.8870849609375
0.3299999,5.542576789855957,6.325480937957764,4.496310710906982,4.2877197265625,51.4373779296875,11.2152099609375
0.34999990000000003,5.9088897705078125,6.045359134674072,4.027047157287598,-13.6871337890625,21.6827392578125,-2.0294189453125
0.3699999,6.112396717071533,5.635950565338135,3.514688014984131,-56.6558837890625,29.7393798828125,-9.8114013671875
0.3899999,6.380547523498535,5.171475887298584,3.3016040325164795,-142.7154541015625,76.66015625,-45.4559326171875
0.40999990000000003,6.490680694580078,4.836287498474121,3.5410242080688477,-151.5350341796875,88.3636474609375,-99.8382568359375
0.4299999,6.5265936851501465,4.67827033996582,4.37420654296875,-72.69287109375,79.16259765625,-98.7396240234375
0.4499999,6.172252178192139,4.855441093444824,5.559336185455322,-48.76708984375,46.8597412109375,-79.437255859375
0.4699999,5.700594425201416,5.315127849578857,6.756437301635742,25.8941650390625,29.9835205078125,-65.460205078125
0.4899999,5.003881454467773,5.9088897705078125,7.5848307609558105,98.8922119140625,-5.79833984375,-31.280517578125
0.5099999,4.51067590713501,6.730101108551025,7.807491779327393,119.873046875,-36.590576171875,-20.99609375
0.5299999,4.383783340454102,7.321468830108643,7.261613845825195,182.92236328125,-35.7208251953125,8.8958740234375
0.5499999,4.458003520965576,7.884106159210205,6.141127586364746,214.691162109375,0.42724609375,32.073974609375
0.5699999,4.630385875701904,8.429984092712402,5.020640850067139,91.0797119140625,14.312744140625,7.476806640625
0.5899998999999999,4.2975921630859375,8.650250434875488,4.479551315307617,-4.57763671875,-19.2718505859375,12.176513671875
0.6099998999999999,4.51067590713501,8.671798706054688,4.108449935913086,214.4622802734375,33.99658203125,-0.5645751953125
0.6299999,4.216189384460449,8.389283180236816,4.1395745277404785,264.2669677734375,-41.229248046875,-26.5960693359375
0.6499999,4.663905143737793,7.675810813903809,3.952826976776123,30.2886962890625,-138.6260986328125,-111.1297607421875
0.6699999,4.786009311676025,6.919242858886719,3.3949780464172363,37.322998046875,-143.310546875,-214.90478515625
0.6899999,4.584896087646484,7.577648162841797,2.8993782997131348,62.5762939453125,-159.332275390625,-364.68505859375
0.7099999,2.2170307636260986,10.036493301391602,1.4963760375976562,418.792724609375,-178.680419921875,-310.5621337890625
0.7299998999999999,1.01753568649292,12.20803451538086,-0.28969839215278625,499.9847412109375,-30.1971435546875,25.665283203125
0.7499998999999999,-1.434126853942871,14.94460678100586,-3.1244332790374756,357.879638671875,-21.8048095703125,18.1884765625
0.7699999,-1.9273324012756348,15.176844596862793,-6.4595561027526855,428.03955078125,22.247314453125,-30.914306640625
0.7899999,-1.920149803161621,14.410699844360352,-9.526528358459473,301.69677734375,66.5283203125,-39.48974609375
0.8099999,-1.4844050407409668,12.971784591674805,-11.547234535217285,12.9241943359375,72.9217529296875,-9.185791015625
0.8299999,-0.8810662031173706,11.762712478637695,-12.18648624420166,-48.1719970703125,93.68896484375,23.2391357421875
0.8499998999999999,-0.23702596127986908,10.733205795288086,-11.45146656036377,13.946533203125,88.92822265625,34.7442626953125
0.8699998999999999,0.43095630407333374,9.876082420349121,-9.95748519897461,23.25439453125,66.5283203125,37.811279296875
0.8899999,1.0821791887283325,9.251194953918457,-8.403648376464844,-23.406982421875,55.0079345703125,32.135009765625
0.9099999,1.5682021379470825,8.683769226074219,-7.074865818023682,-110.3515625,59.4024658203125,30.9906005859375
0.9299999,1.9847931861877441,8.480262756347656,-5.985504150390625,-191.9708251953125,42.877197265625,28.38134765625
0.9499999,2.389413356781006,8.339004516601562,-3.9456443786621094,-150.665283203125,59.661865234375,17.8680419921875
0.9699998999999999,2.564189910888672,8.456320762634277,-2.9305028915405273,166.68701171875,63.2781982421875,12.20703125
0.9899998999999999,2.82515811920166,8.451532363891602,-1.53707754611969,231.26220703125,42.7093505859375,15.2435302734375
1.0099999,2.8634653091430664,8.470685958862305,-1.6065093278884888,156.6314697265625,23.1781005859375,13.580322265625
1.0299999,2.87064790725708,8.283937454223633,-2.4875755310058594,171.2188720703125,10.6353759765625,20.2484130859375
1.0499999,2.875436305999756,7.857769966125488,-3.7469255924224854,176.7425537109375,21.4996337890625,38.0096435546875
1.0699999,2.913743495941162,7.340622425079346,-5.063736438751221,110.6109619140625,19.71435546875,24.6429443359375
1.0899999,2.9305028915405273,6.8593878746032715,-6.260837554931641,8.5906982421875,17.822265625,19.5770263671875
1.1099999,3.0119056701660156,6.382941722869873,-6.751648902893066,-14.5721435546875,52.2003173828125,67.840576171875
1.1299999,3.2632968425750732,6.2847795486450195,-6.900089263916016,18.9056396484375,71.3653564453125,100.9368896484375
1.1499999,3.399766445159912,6.110002517700195,-6.3973069190979,2.166748046875,93.109130859375,124.69482421875
1.1699998999999999,3.552995204925537,5.858611583709717,-5.95677375793457,-19.3328857421875,121.8719482421875,147.308349609375
1.1899998999999999,3.584120035171509,5.351040840148926,-5.57370138168335,-19.2413330078125,155.609130859375,164.6270751953125
1.2099999,3.4596214294433594,4.941632270812988,-5.583278179168701,63.04931640625,203.3233642578125,146.7132568359375
1.2299999,3.6176388263702393,4.829104900360107,-5.152322292327881,69.244384765625,229.2022705078125,139.678955078125
1.2499999,4.402936935424805,4.508281707763672,-4.144362926483154,116.8670654296875,222.22900390625,163.7725830078125
1.2699999,5.2049946784973145,4.211400985717773,-3.181894063949585,153.7322998046875,89.447021484375,91.766357421875
1.2899999,6.076483726501465,3.246537446975708,-2.255337953567505,96.3287353515625,4.7454833984375,-4.33349609375
1.3099999,6.411672115325928,2.145204782485962,-2.276885747909546,26.0162353515625,-6.988525390625,-28.13720703125
1.3299999,6.337451934814453,1.556231141090393,-2.7269957065582275,-12.664794921875,33.75244140625,-45.257568359375
1.3499999,6.023811340332031,1.4460978507995605,-3.220201253890991,20.1568603515625,85.75439453125,-49.8046875
1.3699999,5.70777702331543,1.889025092124939,-3.2417490482330322,7.8582763671875,108.33740234375,-32.8369140625
1.3899999,5.518634796142578,2.4899697303771973,-3.134010076522827,-21.1944580078125,38.818359375,-37.841796875
1.4099999,5.449203014373779,2.9688100814819336,-3.2178070545196533,-55.572509765625,-50.262451171875,-32.3028564453125
1.4299998999999999,5.571307182312012,3.4308910369873047,-3.4596214294433594,-129.608154296875,-77.0721435546875,-9.9945068359375
1.4499999,5.7772088050842285,4.031835556030273,-3.974374771118164,-129.57763671875,-68.1915283203125,-3.8604736328125
1.4699999,6.042964935302734,4.14915132522583,-4.302380561828613,-49.0875244140625,-31.646728515625,13.6566162109375
1.4899999,6.143521785736084,4.697423934936523,-4.467580318450928,-20.9808349609375,-19.287109375,-12.5274658203125
1.5099999,6.2632317543029785,4.886565685272217,-4.503493309020996,-30.7769775390625,-53.1768798828125,-12.02392578125
1.5299999,6.586448669433594,5.200206279754639,-4.795586109161377,0.030517578125,-54.50439453125,53.253173828125
1.5499999,6.842628479003906,5.585672378540039,-5.252878665924072,-21.209716796875,-0.5645751953125,80.26123046875
1.5699999,7.316680431365967,5.738901615142822,-5.966350555419922,-76.568603515625,30.3192138671875,96.5576171875
1.5899999,7.994239330291748,5.521028995513916,-6.531382083892822,-63.6444091796875,59.6923828125,73.7762451171875
1.6099999,8.78193187713623,5.245696067810059,-6.564900875091553,-15.4876708984375,104.79736328125,-29.4189453125
1.6299999,9.603142738342285,4.972756862640381,-5.803544998168945,18.4326171875,145.3857421875,-91.4459228515625
1.6499999,10.153809547424316,4.843470096588135,-4.218583583831787,49.285888671875,151.0162353515625,-86.2884521484375
1.6699999,10.218452453613281,5.020640850067139,-2.456450939178467,23.49853515625,85.968017578125,-69.64111328125
1.6899998999999999,10.055646896362305,5.353435039520264,-0.8667010068893433,22.0947265625,67.7947998046875,-46.4935302734375
1.7099999,9.854534149169922,5.621585369110107,0.21787235140800476,9.5672607421875,97.9461669921875,-23.0560302734375
1.7299999,9.825803756713867,5.674258232116699,1.0055646896362305,3.0059814453125,105.0872802734375,-24.749755859375
1.7499999,10.146626472473145,5.530605792999268,1.601720929145813,3.7689208984375,59.112548828125,-49.6673583984375
1.7699999,10.649409294128418,5.130774021148682,2.2409727573394775,20.99609375,32.3028564453125,-44.12841796875
1.7899999,11.307814598083496,4.7405195236206055,2.647987127304077,6.622314453125,25.8331298828125,-25.57373046875
1.8099999,11.729193687438965,4.426878929138184,2.80361008644104,-42.8314208984375,12.786865234375,0.9918212890625
1.8299999,11.772290229797363,4.146757125854492,2.655169725418091,-72.0672607421875,3.3111572265625,31.6009521484375
1.8499999,11.118672370910645,3.97916316986084,2.293645143508911,-84.7015380859375,-3.8299560546875,16.021728515625
1.8699999,10.125079154968262,4.084507942199707,1.7046716213226318,-117.095947265625,-0.9307861328125,-24.7039794921875
1.8899999,8.980650901794434,4.436455726623535,1.048660397529602,-122.467041015625,19.0277099609375,-23.651123046875
1.9099999,7.7763671875,4.838681697845459,0.6105214357376099,-141.2200927734375,73.5321044921875,3.8909912109375
1.9299998999999999,7.4100542068481445,5.386953830718994,0.5099649429321289,-161.3311767578125,122.8790283203125,26.9317626953125
1.9499999,7.01979923248291,5.513846397399902,0.8858546018600464,-124.0692138671875,120.7122802734375,28.4423828125
1.9699999,7.24485445022583,5.037400245666504,1.2641384601593018,-139.4805908203125,132.3394775390625,-7.50732421875
1.9899999,7.173028469085693,4.67827033996582,2.319981336593628,-159.332275390625,229.06494140625,-43.9605712890625
2.0099999,6.921637058258057,3.7660791873931885,2.9305028915405273,-185.72998046875,133.544921875,63.3697509765625
2.0299999,6.528987884521484,2.9520506858825684,3.7445313930511475,-188.4918212890625,62.1337890625,77.972412109375
2.0499999,6.045359134674072,1.9943699836730957,4.134786128997803,-143.707275390625,109.039306640625,-41.168212890625
2.0699999,5.772420406341553,1.4173674583435059,4.371812343597412,-139.617919921875,222.3358154296875,-181.7169189453125
2.0899999,5.590460777282715,1.4317326545715332,4.7405195236206055,-154.4952392578125,223.297119140625,-176.7578125
2.1099999,5.446808815002441,2.0661959648132324,5.22175407409668,-163.3758544921875,115.1580810546875,-53.7567138671875
2.1299999,5.240907669067383,3.2345664501190186,5.882553577423096,-141.11328125,88.8214111328125,-17.608642578125
2.1499999,4.955997467041016,4.067748546600342,6.248866558074951,-137.63427734375,109.6954345703125,-18.310546875
2.1699999,4.611232280731201,4.558559894561768,6.279991149902344,-143.3868408203125,120.6207275390625,-34.1033935546875
2.1899999,3.3518824577331543,4.592078685760498,5.664681434631348,-205.596923828125,150.8636474609375,-80.2459716796875
2.2099999,2.166752576828003,4.69024133682251,5.070919036865234,-500,220.8099365234375,-136.1541748046875
2.2299999,0.8643068075180054,4.077325344085693,4.975151062011719,-500,147.125244140625,20.1416015625
2.2499999,0.2298433631658554,2.7772738933563232,5.770026206970215,-500,242.4468994140625,327.08740234375
2.2699999,0.4429273009300232,0.6823474764823914,7.508216381072998,-189.5294189453125,224.456787109375,236.0992431640625
2.2899999,0.6033388376235962,-1.4077905416488647,9.258378028869629,6.0577392578125,159.454345703125,63.934326171875
2.3099999,0.3232172429561615,-3.471592426300049,10.845733642578125,-168.15185546875,109.2529296875,92.9107666015625
2.3299999,-0.5770025849342346,-4.410119533538818,11.403582572937012,-111.1907958984375,125.9918212890625,153.1982421875
2.3499999,-1.6352397203445435,-5.032611846923828,11.473014831542969,-31.9366455078125,140.4266357421875,170.6085205078125
2.3699999,-2.5905263423919678,-5.193023681640625,11.101913452148438,-59.234619140625,120.2392578125,159.5001220703125
2.3899999,-3.31118106842041,-5.03021764755249,10.409989356994629,-22.6898193359375,124.7711181640625,174.1790771484375
2.4099999,-3.9695863723754883,-4.637568473815918,9.696516990661621,42.1600341796875,123.046875,216.7510986328125
2.4299999,-4.752490520477295,-4.32871675491333,9.141061782836914,82.061767578125,87.8753662109375,224.6246337890625
2.4499999,-5.166687488555908,-4.326322555541992,8.810662269592285,52.7496337890625,76.080322265625,197.2503662109375
2.4699999,-5.07570743560791,-4.733336925506592,8.374917984008789,68.4661865234375,52.1392822265625,151.123046875
2.4899999,-4.886565685272217,-5.094861030578613,7.671022415161133,95.794677734375,39.36767578125,21.5606689453125
2.5099999,-4.927267074584961,-5.279214859008789,6.916848659515381,43.0145263671875,103.3477783203125,-78.338623046875
2.5299999,-5.418078422546387,-4.812345504760742,6.825869083404541,80.352783203125,187.9730224609375,-72.479248046875
2.5499999,-6.370970726013184,-3.801992416381836,7.350199222564697,207.82470703125,141.90673828125,-24.0478515625
2.5699999,-7.196970462799072,-2.58813214302063,8.559270858764648,70.1751708984375,12.1917724609375,-0.579833984375
2.5899999,-7.481880187988281,-1.4939818382263184,9.703699111938477,-53.3599853515625,-55.450439453125,8.5906982421875
2.6099999,-7.326257228851318,-0.912190854549408,10.11789608001709,-14.6331787109375,-61.370849609375,21.8353271484375
2.6299999,-6.746860504150391,-1.091755986213684,9.988609313964844,13.18359375,-52.42919921875,30.181884765625
2.6499999,-6.011840343475342,-1.6543933153152466,9.279925346374512,36.285400390625,-54.9163818359375,0.1068115234375
2.6699999,-5.427655220031738,-1.1109095811843872,9.157821655273438,-47.05810546875,-80.13916015625,-44.281005859375
2.6899999,-4.95120906829834,-1.3431471586227417,8.975862503051758,-3.4027099609375,-139.862060546875,97.3052978515625
2.7099999,-4.311957359313965,-0.6344634294509888,8.738836288452148,242.2637939453125,-116.1346435546875,184.3414306640625
2.7299999,-4.036623954772949,-0.5793967843055725,8.707711219787598,35.5682373046875,-57.0831298828125,67.3675537109375
2.7499999,-3.5386300086975098,-1.2976573705673218,8.848969459533691,-51.2847900390625,-38.818359375,20.7977294921875
2.7699999,-3.3303346633911133,-1.6879122257232666,8.975862503051758,-39.8712158203125,-140.3961181640625,-2.3193359375
2.7899999,-3.406949043273926,-1.8698714971542358,9.339780807495117,-60.2264404296875,-182.92236328125,-29.815673828125
2.8099999,-3.4763808250427246,-1.8267759084701538,9.627084732055664,-69.4580078125,-109.8480224609375,-0.091552734375
2.8299999,-3.4739866256713867,-1.644816517829895,9.490615844726562,-100.2655029296875,-83.3282470703125,25.7568359375
2.8499999,-3.2297780513763428,-1.5705963373184204,9.387664794921875,-125.5035400390625,-106.6131591796875,6.439208984375
2.8699999,-2.7772738933563232,-2.0207061767578125,9.502586364746094,-162.3687744140625,-113.311767578125,-13.031005859375
2.8899999,-2.2601263523101807,-2.676717519760132,9.50498104095459,-245.5596923828125,-119.5831298828125,-40.9393310546875
2.9099999,-1.6759412288665771,-3.3494882583618164,9.224859237670898,-313.2781982421875,-109.2987060546875,-49.652099609375
2.9299999,-1.1516109704971313,-4.019864559173584,8.777143478393555,-254.7607421875,-54.107666015625,-38.0401611328125
2.9499999,-0.7493851184844971,-4.577713489532471,8.607154846191406,-137.2222900390625,50.0335693359375,-50.5523681640625
2.9699999,-0.6727706789970398,-4.6734819412231445,8.42040729522705,-65.00244140625,22.5677490234375,-42.083740234375
2.9899999,-0.768538773059845,-4.802768707275391,8.56884765625,-7.4005126953125,-12.786865234375,20.2789306640625
3.0099999,-0.9672574996948242,-4.697423934936523,8.700529098510742,51.81884765625,24.383544921875,89.080810546875
3.0299999,-1.1204863786697388,-4.323928356170654,8.719682693481445,48.1109619140625,51.788330078125,70.61767578125
3.0499999,-1.2210428714752197,-4.185064792633057,8.583212852478027,60.943603515625,34.027099609375,99.3499755859375
3.0699999,-1.4532804489135742,-4.194641590118408,8.556877136230469,120.574951171875,-4.180908203125,136.2762451171875
3.0899999,-1.6855180263519287,-4.268861770629883,8.449137687683105,132.049560546875,1.068115234375,128.082275390625
3.1099999,-1.987187385559082,-4.505887508392334,8.250418663024902,107.574462890625,-1.7547607421875,87.46337890625
3.1299999,-2.0159177780151367,-4.874594688415527,8.26478385925293,102.6153564453125,22.27783203125,41.9921875
3.1499999,-2.0183119773864746,-4.656722068786621,8.197746276855469,80.902099609375,18.6309814453125,-19.1802978515625
3.1699999,-2.118868589401245,-4.398148536682129,8.310274124145508,68.756103515625,27.5115966796875,-12.51220703125
3.1899999,-2.5019407272338867,-3.6128504276275635,8.573636054992676,64.605712890625,93.3685302734375,24.71923828125
3.2099999,-3.114856481552124,-2.808398485183716,8.81784439086914,27.9083251953125,84.0606689453125,84.442138671875
3.2299999,-3.529053211212158,-2.2218191623687744,9.138668060302734,-17.6239013671875,21.9268798828125,132.6141357421875
3.2499999,-3.5242648124694824,-1.9776105880737305,9.05487060546875,-141.8609619140625,-66.58935546875,99.8687744140625
3.2699999,-3.5051112174987793,-2.300827741622925,8.643068313598633,-152.374267578125,-108.45947265625,55.633544921875
3.2899999,-3.1435868740081787,-2.868253707885742,8.147468566894531,108.856201171875,14.3585205078125,85.7086181640625
3.3099999,-3.2106244564056396,-3.5242648124694824,7.843404769897461,233.5205078125,61.279296875,95.3521728515625
3.3299999000000002,-3.512293815612793,-3.818751811981201,8.161833763122559,243.9422607421875,-4.974365234375,64.666748046875
3.3499999,-3.7158010005950928,-3.5697548389434814,8.978256225585938,56.8389892578125,-34.6527099609375,18.0816650390625
3.3699999,-3.892971992492676,-3.0837318897247314,9.59596061706543,-62.3016357421875,-95.76416015625,26.397705078125
3.3899999,-3.706224203109741,-2.537853717803955,10.017339706420898,-32.4554443359375,-87.8143310546875,27.89306640625
3.4099999,-3.1914708614349365,-2.4684219360351562,9.59596061706543,-12.9547119140625,-82.916259765625,6.4697265625
3.4299999,-2.516305923461914,-2.8443117141723633,8.87291145324707,28.8543701171875,-29.083251953125,-31.3873291015625
3.4499999,-1.9033904075622559,-3.1866824626922607,8.145073890686035,63.6444091796875,64.5294189453125,-93.75
3.4699999,-1.647210717201233,-3.2992098331451416,7.615955829620361,71.8231201171875,66.95556640625,-113.3880615234375
3.4899999,-1.8100165128707886,-2.9089550971984863,7.661445617675781,112.2894287109375,54.8858642578125,-68.5577392578125
3.5099999,-2.2002713680267334,-2.145204782485962,8.121131896972656,134.185791015625,73.73046875,-16.17431640625
3.5299999,-2.6671407222747803,-1.4532804489135742,8.832210540771484,79.986572265625,69.03076171875,10.772705078125
3.5499999,-2.892195701599121,-1.072602391242981,9.622296333312988,3.997802734375,52.5054931640625,-10.406494140625
3.5699999,-3.023876667022705,-0.9193734526634216,10.11789608001709,-43.5333251953125,18.3868408203125,-51.33056640625
3.5899999,-2.9328970909118652,-1.2258312702178955,10.33098030090332,-63.690185546875,33.203125,-53.3447265625
3.6099999,-3.023876667022705,-1.5969325304031372,10.232817649841309,14.5111083984375,58.013916015625,-50.4302978515625
3.6299999,-3.251325845718384,-2.032677173614502,10.158597946166992,53.3294677734375,82.5042724609375,-69.000244140625
3.6499999,-3.5649664402008057,-2.4588451385498047,10.194510459899902,8.819580078125,69.0765380859375,-73.2879638671875
3.6699999,-3.8355112075805664,-2.652775526046753,10.163386344909668,-53.6651611328125,27.4200439453125,-76.4923095703125
3.6899999,-3.8379054069519043,-2.5953147411346436,9.967061996459961,-95.0927734375,24.4598388671875,-86.395263671875
3.7099999,-3.6774938106536865,-2.319981336593628,9.411606788635254,-65.97900390625,56.060791015625,-88.1500244140625
3.7299999,-3.469198226928711,-1.9991583824157715,8.681375503540039,-32.3638916015625,94.66552734375,-56.671142578125
3.7499999,-3.469198226928711,-1.7118542194366455,8.118738174438477,-21.209716796875,129.241943359375,-29.6783447265625
3.7699999,-3.734954595565796,-1.5083470344543457,7.864952564239502,33.721923828125,140.716552734375,-8.4075927734375
3.7899999,-4.0294413566589355,-1.7884687185287476,8.061277389526367,71.5179443359375,123.626708984375,44.7235107421875
3.8099999,-4.49870491027832,-1.7956513166427612,8.243236541748047,69.1375732421875,74.737548828125,29.9224853515625
3.8299999000000002,-4.934449672698975,-2.145204782485962,8.638279914855957,63.1103515625,69.1680908203125,31.6009521484375
3.8499999,-5.501875400543213,-2.3319525718688965,8.968679428100586,38.9556884765625,59.50927734375,49.5758056640625
3.8699999,-5.9974751472473145,-2.3343467712402344,9.131484985351562,-32.1502685546875,-10.345458984375,23.5595703125
3.8899999,-6.232107162475586,-2.4372973442077637,9.406818389892578,-51.1627197265625,-48.5992431640625,28.9764404296875
3.9099999,-6.289567947387695,-2.341529369354248,9.47146224975586,-17.9901123046875,-50.0335693359375,15.5181884765625
3.9299999,-6.1052141189575195,-2.2218191623687744,9.425971984863281,-24.2767333984375,-55.694580078125,13.3056640625
3.9499999,-5.7772088050842285,-2.0422539710998535,9.210494041442871,-79.6051025390625,-64.6820068359375,-11.90185546875
3.9699999,-5.489904403686523,-2.070984363555908,9.023746490478516,-118.5150146484375,-74.127197265625,-44.0673828125
3.9899999,-5.135562419891357,-2.2026655673980713,8.688557624816895,-118.22509765625,-70.037841796875,-62.0269775390625
4.0099999,-4.644751071929932,-2.432508945465088,8.334216117858887,-90.118408203125,-51.9561767578125,-77.81982421875
4.029999900000001,-4.144362926483154,-2.7533318996429443,7.893682956695557,-61.004638671875,-46.3409423828125,-79.681396484375
4.0499999,-3.8283286094665527,-2.937685489654541,7.601590633392334,-68.023681640625,-37.261962890625,-92.498779296875
4.069999900000001,-3.7158010005950928,-3.2561142444610596,7.38132381439209,-59.4024658203125,-32.1044921875,-44.43359375
4.0899999000000005,-3.603273630142212,-3.579331636428833,7.400477409362793,-35.308837890625,-33.1573486328125,3.936767578125
4.1099999,-3.5194764137268066,-4.141968727111816,7.515398979187012,-24.627685546875,-48.370361328125,-19.2413330078125
4.1299999000000005,-3.2393548488616943,-4.81473970413208,7.723694801330566,-30.975341796875,-72.20458984375,-56.57958984375
4.1499999,-2.827552318572998,-5.420472621917725,7.7883381843566895,-35.7513427734375,-73.79150390625,-83.1298828125
4.1699999000000005,-2.5498247146606445,-5.954379558563232,7.9415669441223145,-31.1279296875,-57.6629638671875,-117.5384521484375
4.1899999,-2.3343467712402344,-6.098031520843506,7.802703380584717,-38.055419921875,-87.5244140625,-176.0101318359375
4.209999900000001,-2.1380221843719482,-6.172252178192139,7.747636795043945,-50.96435546875,-61.7828369140625,-162.0025634765625
4.2299999,-1.7405846118927002,-6.074089527130127,7.5201873779296875,-68.023681640625,-43.5791015625,-147.430419921875
4.249999900000001,-1.0319008827209473,-5.9735331535339355,7.2568254470825195,-100.311279296875,-47.210693359375,-163.3453369140625
4.2699999,-0.15562310814857483,-6.054935932159424,7.0317702293396,-111.602783203125,-59.967041015625,-172.8973388671875
4.289999900000001,0.5722141861915588,-6.098031520843506,6.821080684661865,-104.9041748046875,-80.56640625,-165.0390625
4.3099999,1.1563993692398071,-6.133944988250732,6.5912370681762695,-112.1368408203125,-118.6676025390625,-116.63818359375
4.329999900000001,1.4484920501708984,-5.990292549133301,6.354211330413818,-111.9384765625,-139.6331787109375,-53.1158447265625
4.3499999,1.5873557329177856,-5.829881191253662,6.042964935302734,-72.3114013671875,-145.233154296875,-3.692626953125
4.369999900000001,1.843535304069519,-5.7987565994262695,5.614402770996094,-63.9801025390625,-149.4293212890625,-6.5155029296875
4.3899999,2.0829553604125977,-6.117185115814209,5.039794445037842,-117.7825927734375,-120.2545166015625,-76.0345458984375
4.409999900000001,2.3989901542663574,-6.435614109039307,4.458003520965576,-162.8875732421875,-11.474609375,-134.5062255859375
4.4299999,2.628833532333374,-6.811503887176514,3.9169139862060547,-135.0860595703125,79.3914794921875,-69.366455078125
4.449999900000001,2.671929121017456,-6.964732646942139,3.7636849880218506,-93.3380126953125,101.4556884765625,-0.7476806640625
4.4699999,2.343923568725586,-6.866570472717285,4.000710964202881,-61.676025390625,114.532470703125,48.370361328125
4.489999900000001,1.9177556037902832,-6.998251438140869,4.484339714050293,-66.2384033203125,67.474365234375,61.9659423828125
4.5099999,1.3072341680526733,-7.041347026824951,5.058948040008545,-127.01416015625,21.97265625,-3.936767578125
4.529999900000001,0.8571242094039917,-7.240066051483154,5.432443618774414,-151.0162353515625,13.702392578125,-35.064697265625
4.5499999,0.6392518281936646,-7.42681360244751,5.3342814445495605,-120.941162109375,8.7127685546875,7.3089599609375
4.569999900000001,0.6584054827690125,-7.740454196929932,4.960785865783691,-96.6339111328125,28.6865234375,55.2215576171875
4.5899999000000005,0.7182605266571045,-8.245630264282227,4.496310710906982,-74.005126953125,74.066162109375,76.690673828125
4.609999900000001,0.5985504388809204,-8.89445972442627,4.455609321594238,-70.5413818359375,87.4786376953125,48.76708984375
4.6299999000000005,0.3926490843296051,-9.548076629638672,4.534617900848389,-102.294921875,-11.23046875,23.2696533203125
4.6499999,0.043095629662275314,-9.835380554199219,4.680664539337158,-119.56787109375,-103.3935546875,14.8162841796875
4.6699999000000005,-0.1867477297782898,-9.988609313964844,4.513070106506348,-79.315185546875,-106.719970703125,48.6297607421875
4.6899999,-0.26096799969673157,-10.101137161254883,4.259284973144531,-52.2918701171875,-54.4586181640625,60.1654052734375
4.709999900000001,-0.304063618183136,-10.211270332336426,4.084507942199707,-76.7822265625,-72.174072265625,20.7366943359375
4.7299999,-0.304063618183136,-10.302249908447266,3.952826976776123,-104.00390625,-135.4827880859375,-19.989013671875
4.749999900000001,-0.2298433631658554,-10.280701637268066,3.756502389907837,-112.73193359375,-147.796630859375,-4.791259765625
4.7699999,-0.028730420395731926,-10.144232749938965,3.2632968425750732,-75.3631591796875,-90.087890625,21.8505859375
4.789999900000001,0.22266076505184174,-9.976638793945312,2.6384103298187256,-75.653076171875,-66.7724609375,2.9449462890625
4.8099999,0.47644615173339844,-9.888052940368652,1.9033904075622559,-146.3775634765625,-114.4256591796875,-35.888671875
4.829999900000001,0.6248866319656372,-9.785101890563965,1.070208191871643,-206.6497802734375,-148.1170654296875,-56.7779541015625
4.8499999,0.7493851184844971,-9.751583099365234,-0.05746084079146385,-162.1246337890625,-110.9771728515625,-25.4364013671875
4.869999900000001,0.8403648138046265,-9.856928825378418,-1.091755986213684,-60.760498046875,-2.44140625,11.1541748046875
4.8899999,0.950498104095459,-10.156203269958496,-1.9321208000183105,-17.364501953125,55.0994873046875,3.5247802734375
4.909999900000001,1.0199298858642578,-10.520122528076172,-2.296039342880249,-43.8690185546875,36.19384765625,-18.6614990234375
4.9299999,1.0821791887283325,-10.876858711242676,-2.3271639347076416,-41.351318359375,26.611328125,-0.9002685546875
4.949999900000001,1.0845733880996704,-11.166556358337402,-2.0877439975738525,5.9356689453125,61.1114501953125,21.026611328125
4.9699999,1.0678139925003052,-11.353304862976074,-1.6304513216018677,20.56884765625,76.3702392578125,13.5040283203125
4.989999900000001,0.9600749015808105,-11.39400577545166,-0.9696516990661621,-4.8675537109375,35.675048828125,-0.8392333984375
5.0099999,0.8667010068893433,-11.221623420715332,-0.40462008118629456,-50.567626953125,-25.4974365234375,-7.2479248046875
5.029999900000001,0.7661445140838623,-10.795455932617188,-0.1867477297782898,-86.5478515625,-38.9556884765625,-10.467529296875
5.0499999,0.727837324142456,-10.146626472473145,-0.42377370595932007,-91.97998046875,-13.73291015625,-8.23974609375
5.069999900000001,0.6727706789970398,-9.411606788635254,-1.0127472877502441,-87.58544921875,-3.84521484375,-5.126953125
5.0899999000000005,0.586579442024231,-8.774748802185059,-1.7573440074920654,-80.9326171875,-1.1138916015625,9.185791015625
5.109999900000001,0.4668693244457245,-8.485051155090332,-2.389413356781006,-26.79443359375,23.7579345703125,50.29296875
5.1299999000000005,0.3758896589279175,-8.647856712341309,-2.851494312286377,17.2882080078125,49.591064453125,74.462890625
5.1499999,0.3495534360408783,-9.227252960205078,-2.96162748336792,2.197265625,45.71533203125,58.4564208984375
5.1699999000000005,0.2944868206977844,-9.914389610290527,-2.7437551021575928,-37.353515625,16.2353515625,26.9775390625
5.1899999,0.22026655077934265,-10.398017883300781,-2.4205379486083984,-60.333251953125,-7.38525390625,20.263671875
5.209999900000001,0.06224924325942993,-10.51054573059082,-2.190694570541382,-27.0538330078125,5.279541015625,36.6058349609375
5.2299999,-0.1412578970193863,-10.292673110961914,-2.1763293743133545,11.9781494140625,34.2254638671875,50.140380859375
5.249999900000001,-0.3232172429561615,-9.919178009033203,-2.38462495803833,2.86865234375,35.4766845703125,51.69677734375
5.2699999,-0.5123591423034668,-9.557653427124023,-2.604891538619995,-23.1475830078125,25.1007080078125,45.47119140625
5.289999900000001,-0.6631938815116882,-9.349357604980469,-2.738966703414917,-19.6685791015625,26.4739990234375,47.454833984375
5.3099999,-0.7709329724311829,-9.346963882446289,-2.7126305103302,-4.39453125,27.4505615234375,49.6978759765625
5.329999900000001,-0.8427590131759644,-9.524134635925293,-2.6144683361053467,-4.669189453125,12.51220703125,42.48046875
5.3499999,-0.9241618514060974,-9.768342971801758,-2.559401512145996,-17.5018310546875,-4.0283203125,33.0047607421875
5.369999900000001,-1.0534487962722778,-9.959878921508789,-2.6623523235321045,-16.510009765625,-1.9378662109375,34.820556640625
5.3899999,-1.2330138683319092,-10.089165687561035,-2.8802247047424316,0.5035400390625,13.8702392578125,44.6929931640625
5.409999900000001,-1.400607943534851,-10.230423927307129,-3.0813376903533936,6.378173828125,16.2200927734375,47.6531982421875
5.4299999,-1.5059528350830078,-10.402806282043457,-3.1531636714935303,1.556396484375,3.2196044921875,38.2537841796875
5.449999900000001,-1.50355863571167,-10.608707427978516,-3.1292216777801514,-3.448486328125,-7.0343017578125,25.4669189453125
5.4699999,-1.434126853942871,-10.759542465209961,-3.095702886581421,-5.5694580078125,-7.293701171875,18.1427001953125
5.489999900000001,-1.359906554222107,-10.759542465209961,-3.1004912853240967,-4.4708251953125,-2.716064453125,16.29638671875
5.5099999,-1.2952631711959839,-10.644620895385742,-3.162740468978882,-7.9498291015625,-5.9814453125,15.13671875
5.529999900000001,-1.2641384601593018,-10.378864288330078,-3.2776620388031006,-14.2822265625,-14.7247314453125,5.8135986328125
5.5499999,-1.2617442607879639,-10.031704902648926,-3.464409828186035,-11.7034912109375,-15.7623291015625,-3.326416015625
5.569999900000001,-1.2665326595306396,-9.653421401977539,-3.7277719974517822,1.617431640625,-2.44140625,2.9144287109375
5.5899999000000005,-1.3072341680526733,-9.318233489990234,-3.9408559799194336,11.23046875,7.2174072265625,8.72802734375
5.609999900000001,-1.3431471586227417,-9.105149269104004,-4.129997730255127,10.2386474609375,1.617431640625,9.5672607421875
5.6299999000000005,-1.359906554222107,-8.99740982055664,-4.244919776916504,11.41357421875,-1.6632080078125,12.0849609375
5.6499999,-1.403002142906189,-8.904036521911621,-4.2975921630859375,2.1209716796875,1.1138916015625,6.3629150390625
5.6699999000000005,-1.460463047027588,-8.808267593383789,-4.2975921630859375,-7.110595703125,0.1220703125,4.1351318359375
5.6899999,-1.5538369417190552,-8.674192428588867,-4.182670593261719,-6.2408447265625,-3.47900390625,6.683349609375
5.709999900000001,-1.6424223184585571,-8.564059257507324,-4.005499362945557,-3.631591796875,-8.3160400390625,7.14111328125
5.7299999,-1.659181833267212,-8.513781547546387,-3.9001545906066895,-8.23974609375,-13.73291015625,5.6915283203125
5.749999900000001,-1.5945383310317993,-8.497021675109863,-3.93367338180542,-14.2974853515625,-10.6964111328125,4.7607421875
5.7699999,-1.501164436340332,-8.485051155090332,-4.07014274597168,-13.5650634765625,-4.364013671875,2.3040771484375
5.789999900000001,-1.3982137441635132,-8.489839553833008,-4.2329487800598145,-10.0250244140625,-4.6539306640625,5.035400390625
5.8099999,-1.3479355573654175,-8.494627952575684,-4.323928356170654,-9.6435546875,-8.36181640625,8.7738037109375
5.829999900000001,-1.338358759880066,-8.494627952575684,-4.381389141082764,-7.293701171875,-8.4228515625,7.9803466796875
5.8499999,-1.3431471586227417,-8.51138687133789,-4.448426723480225,-3.5400390625,-2.1209716796875,10.6658935546875
5.869999900000001,-1.3551181554794312,-8.53293514251709,-4.532223701477051,-2.3956298828125,6.256103515625,13.24462890625
5.8899999,-1.3623007535934448,-8.597578048706055,-4.611232280731201,2.9449462890625,6.89697265625,16.54052734375
5.909999900000001,-1.3646949529647827,-8.688557624816895,-4.6471452713012695,6.317138671875,1.2969970703125,18.646240234375
5.9299999,-1.359906554222107,-8.80587387084961,-4.642356872558594,10.4827880859375,1.4495849609375,20.660400390625
5.949999900000001,-1.3479355573654175,-8.937555313110352,-4.620809078216553,11.749267578125,4.608154296875,20.294189453125
5.9699999,-1.3335703611373901,-9.071630477905273,-4.594472885131836,8.2550048828125,6.591796875,17.5933837890625
5.989999900000001,-1.3407529592514038,-9.196128845214844,-4.584896087646484,6.378173828125,5.7220458984375,14.6026611328125
6.0099999,-1.3646949529647827,-9.306262016296387,-4.587290287017822,9.46044921875,3.662109375,14.4195556640625
6.029999900000001,-1.434126853942871,-9.385271072387695,-4.558559894561768,14.2364501953125,5.9356689453125,16.1590576171875
6.0499999,-1.5275006294250488,-9.41639518737793,-4.469974517822266,17.059326171875,9.3536376953125,16.9830322265625
6.069999900000001,-1.6184803247451782,-9.457097053527832,-4.323928356170654,8.6669921875,7.0648193359375,13.5955810546875
6.0899999000000005,-1.6663644313812256,-9.493009567260742,-4.213795185089111,-2.74658203125,3.387451171875,8.5296630859375
6.109999900000001,-1.680729627609253,-9.502586364746094,-4.1874589920043945,-4.69970703125,4.852294921875,3.2196044921875
6.1299999000000005,-1.6711528301239014,-9.461885452270508,-4.266467571258545,-0.4730224609375,12.5579833984375,0.3509521484375
6.149999900000001,-1.6927006244659424,-9.32541561126709,-4.371812343597412,-0.30517578125,17.2271728515625,-1.6021728515625
6.1699999000000005,-1.7908629179000854,-9.126696586608887,-4.426878929138184,-1.8463134765625,17.0745849609375,-0.1220703125
6.1899999,-1.9560627937316895,-8.925583839416504,-4.405331134796143,0.732421875,18.1884765625,5.6304931640625
6.209999900000001,-2.166752576828003,-8.829815864562988,-4.311957359313965,5.462646484375,20.172119140625,13.24462890625
6.2299999,-2.3702597618103027,-8.925583839416504,-4.173093795776367,5.615234375,21.1181640625,18.829345703125
6.249999900000001,-2.5091233253479004,-9.258378028869629,-3.957615375518799,15.289306640625,21.9573974609375,22.9644775390625
6.2699999,-2.6384103298187256,-9.682151794433594,-3.6128504276275635,32.196044921875,21.0418701171875,16.815185546875
6.289999900000001,-2.8131868839263916,-10.012551307678223,-3.1651346683502197,39.8712158203125,13.1683349609375,7.4462890625
6.3099999,-3.0813376903533936,-10.11550235748291,-2.6001031398773193,36.773681640625,7.3089599609375,9.8114013671875
6.329999900000001,-3.4093432426452637,-10.005369186401367,-1.9584569931030273,42.6483154296875,6.134033203125,16.448974609375
6.3499999,-3.751713991165161,-9.727641105651855,-1.3215993642807007,54.229736328125,-0.030517578125,10.8184814453125
6.369999900000001,-3.9839515686035156,-9.440337181091309,-0.8475474119186401,44.0673828125,-5.2490234375,2.74658203125
6.3899999,-4.077325344085693,-9.260771751403809,-0.608127236366272,42.724609375,-2.9754638671875,9.33837890625
6.409999900000001,-4.019864559173584,-9.100360870361328,-0.586579442024231,53.436279296875,-6.0577392578125,9.5367431640625
6.4299999,-3.8091750144958496,-9.107542991638184,-0.7613561153411865,54.2144775390625,-7.7056884765625,8.331298828125
6.449999900000001,-3.464409828186035,-9.255983352661133,-0.9983820915222168,61.5997314453125,-9.46044921875,14.6331787109375
6.4699999,-3.0789434909820557,-9.459490776062012,-1.2066776752471924,78.399658203125,-5.2642822265625,12.7410888671875
6.489999900000001,-2.7557260990142822,-9.655815124511719,-1.2761094570159912,73.5931396484375,-0.79345703125,5.3253173828125
6.5099999,-2.540247917175293,-9.792284965515137,-1.1779472827911377,63.1256103515625,-1.15966796875,7.7667236328125
6.529999900000001,-2.4396915435791016,-9.849745750427246,-0.8140285611152649,83.251953125,-1.40380859375,19.6533203125
6.5499999,-2.43011474609375,-9.835380554199219,-0.3016694188117981,92.3919677734375,-10.5133056640625,13.580322265625
6.569999900000001,-2.4588451385498047,-9.75637149810791,0.1149216815829277,58.1817626953125,-30.8685302734375,1.1749267578125
6.5899999000000005,-2.5019407272338867,-9.643844604492188,0.33997663855552673,31.8756103515625,-37.139892578125,6.4239501953125
6.609999900000001,-2.564189910888672,-9.533711433410645,0.33518823981285095,36.0260009765625,-29.6173095703125,16.17431640625
6.6299999000000005,-2.650381326675415,-9.466673851013184,0.24660277366638184,53.3447265625,-24.10888671875,16.1285400390625
6.649999900000001,-2.7772738933563232,-9.502586364746094,0.21787235140800476,60.546875,-28.62548828125,12.0697021484375
6.6699999000000005,-2.9281086921691895,-9.655815124511719,0.23702596127986908,46.875,-41.3665771484375,13.1378173828125
6.6899999,-3.0621838569641113,-9.926360130310059,0.3208230137825012,39.520263671875,-44.0216064453125,17.8070068359375
6.709999900000001,-3.1459810733795166,-10.249577522277832,0.3519476354122162,43.243408203125,-48.065185546875,10.3607177734375
6.7299999,-3.181894063949585,-10.51054573059082,0.2825157940387726,32.4249267578125,-60.3790283203125,-3.6163330078125
6.749999900000001,-3.114856481552124,-10.6709566116333,0.10773907601833344,30.9295654296875,-58.9141845703125,-0.4119873046875
6.7699999,-3.023876667022705,-10.623072624206543,-0.08140286058187485,37.04833984375,-47.79052734375,2.6397705078125
6.789999900000001,-2.9017724990844727,-10.426748275756836,-0.2992752194404602,27.0843505859375,-46.783447265625,-6.683349609375
6.8099999,-2.7748796939849854,-10.170568466186523,-0.395043283700943,15.2587890625,-48.2177734375,-9.1552734375
6.829999900000001,-2.695871114730835,-9.916783332824707,-0.2537853717803955,25.421142578125,-36.7584228515625,-1.9989013671875
6.8499999,-2.652775526046753,-9.737217903137207,0.05746084079146385,40.5120849609375,-33.5845947265625,2.8533935546875
6.869999900000001,-2.6360161304473877,-9.641449928283691,0.5219359993934631,39.24560546875,-41.3360595703125,0.3814697265625
6.8899999,-2.612074136734009,-9.607931137084961,1.0319008827209473,36.6058349609375,-45.6085205078125,-0.0152587890625
6.909999900000001,-2.5785553455352783,-9.617507934570312,1.5275006294250488,34.5916748046875,-43.0908203125,3.8299560546875
6.9299999,-2.5019407272338867,-9.677363395690918,1.9081788063049316,15.594482421875,-48.4466552734375,0.885009765625
6.949999900000001,-2.3798365592956543,-9.78989028930664,2.205059766769409,10.07080078125,-53.131103515625,-5.5389404296875
6.9699999,-2.22660756111145,-9.911994934082031,2.4133553504943848,20.99609375,-49.5452880859375,-11.7645263671875
6.989999900000001,-2.0661959648132324,-9.95748519897461,2.5115175247192383,24.658203125,-46.234130859375,-14.739990234375
7.0099999,-1.9105730056762695,-9.897629737854004,2.5282769203186035,15.2740478515625,-43.15185546875,-14.2822265625
7.029999900000001,-1.7717092037200928,-9.761159896850586,2.5306711196899414,10.894775390625,-36.9415283203125,-18.06640625
7.0499999,-1.6543933153152466,-9.59596061706543,2.5306711196899414,8.6822509765625,-34.759521484375,-25.4974365234375
7.069999900000001,-1.5634137392044067,-9.425971984863281,2.580949544906616,8.2550048828125,-36.2548828125,-25.32958984375
7.0899999000000005,-1.5131354331970215,-9.193734169006348,2.5761611461639404,6.3323974609375,-39.7186279296875,-24.2767333984375
7.109999900000001,-1.4460978507995605,-8.925583839416504,2.4636335372924805,4.2572021484375,-39.459228515625,-19.8974609375
7.1299999000000005,-1.3479355573654175,-8.631096839904785,2.248155355453491,-6.77490234375,-31.6925048828125,-19.8822021484375
7.149999900000001,-1.2066776752471924,-8.38688850402832,1.9297266006469727,-20.7366943359375,-26.885986328125,-22.796630859375
7.1699999000000005,-1.039083480834961,-8.255207061767578,1.6376339197158813,-23.13232421875,-28.839111328125,-22.76611328125
7.1899999,-0.849941611289978,-8.26239013671875,1.2689268589019775,-27.191162109375,-32.4554443359375,-23.101806640625
7.209999900000001,-0.6512228846549988,-8.391676902770996,0.849941611289978,-27.740478515625,-22.7203369140625,-23.681640625
7.2299999,-0.507570743560791,-8.56645393371582,0.44532153010368347,-24.9786376953125,-6.439208984375,-24.10888671875
7.249999900000001,-0.44532153010368347,-8.753201484680176,0.17956513166427612,-16.4947509765625,5.4779052734375,-18.218994140625
7.2699999,-0.524330198764801,-8.918401718139648,0.23942017555236816,-8.85009765625,11.688232421875,-11.5966796875
7.289999900000001,-0.706289529800415,-9.131484985351562,0.5913678407669067,-7.7362060546875,10.6201171875,-10.498046875
7.3099999,-0.9097966551780701,-9.404424667358398,1.0630255937576294,-4.8828125,8.819580078125,-10.9405517578125
7.329999900000001,-1.0989385843276978,-9.670180320739746,1.5155296325683594,-7.6446533203125,11.4593505859375,-15.228271484375
7.3499999,-1.259350061416626,-9.84256362915039,1.8722656965255737,-13.519287109375,13.9007568359375,-19.927978515625
7.369999900000001,-1.3718775510787964,-9.86889934539795,2.0638017654418945,-16.1285400390625,9.5977783203125,-16.6015625
7.3899999,-1.4293384552001953,-9.840168952941895,2.169146776199341,-10.3912353515625,7.904052734375,-8.7738037109375
7.409999900000001,-1.4293384552001953,-9.804255485534668,2.1308395862579346,-1.3275146484375,10.589599609375,-8.36181640625
7.4299999,-1.37906014919281,-9.792284965515137,1.9943699836730957,6.3934326171875,13.7481689453125,-13.336181640625
7.449999900000001,-1.3263877630233765,-9.768342971801758,1.764526605606079,6.805419921875,16.0675048828125,-15.5029296875
7.4699999,-1.2761094570159912,-9.713275909423828,1.5155296325683594,4.1351318359375,17.913818359375,-14.22119140625
7.489999900000001,-1.2425906658172607,-9.622296333312988,1.338358759880066,0.8392333984375,21.3623046875,-15.1519775390625
7.5099999,-1.2042834758758545,-9.543288230895996,1.292868971824646,2.4871826171875,22.15576171875,-20.6298828125
7.529999900000001,-1.1420341730117798,-9.512163162231445,1.3718775510787964,1.4495849609375,14.2059326171875,-21.8963623046875
7.5499999,-1.0821791887283325,-9.478644371032715,1.5394717454910278,-2.655029296875,13.7176513671875,-19.0277099609375
7.569999900000001,-1.0007762908935547,-9.445125579833984,1.656787633895874,-4.119873046875,11.7645263671875,-13.8702392578125
7.5899999000000005,-0.8906430602073669,-9.473855972290039,1.680729627609253,-4.425048828125,9.4146728515625,-12.5579833984375
7.609999900000001,-0.7541735172271729,-9.524134635925293,1.6208745241165161,-6.072998046875,15.13671875,-15.869140625
7.6299999000000005,-0.6344634294509888,-9.583989143371582,1.534683346748352,-1.4495849609375,23.1781005859375,-13.519287109375
7.649999900000001,-0.4357447028160095,-9.567230224609375,1.482010841369629,5.1116943359375,29.5257568359375,-8.3770751953125
7.6699999000000005,-0.33997663855552673,-9.581595420837402,1.501164436340332,-0.1220703125,31.6314697265625,8.3465576171875
7.6899999,-0.21547815203666687,-9.555258750915527,1.5825673341751099,-14.3280029296875,28.9459228515625,6.8817138671875
7.709999900000001,-0.13168109953403473,-9.557653427124023,1.680729627609253,-9.735107421875,26.2451171875,-8.23974609375
7.7299999,-0.12928688526153564,-9.641449928283691,1.802833914756775,-2.13623046875,28.3966064453125,-1.800537109375
7.749999900000001,-0.09576806426048279,-9.66299819946289,1.946485996246338,-4.119873046875,30.181884765625,-0.640869140625
7.7699999,-0.12689268589019775,-9.651026725769043,2.0374655723571777,-12.51220703125,20.7977294921875,-7.9498291015625
7.789999900000001,-0.1173158809542656,-9.600749015808105,2.0901381969451904,-18.6004638671875,14.8468017578125,-10.6201171875
7.8099999,-0.13407529890537262,-9.583989143371582,2.0374655723571777,-24.017333984375,16.571044921875,-6.04248046875
7.829999900000001,-0.1173158809542656,-9.651026725769043,1.9919757843017578,-10.5743408203125,30.2276611328125,-4.8980712890625
7.8499999,-0.12689268589019775,-9.75397777557373,2.0207061767578125,20.5230712890625,41.9921875,-7.4462890625
7.869999900000001,-0.16998831927776337,-9.895236015319824,2.183511972427368,26.06201171875,33.99658203125,-5.3558349609375
7.8899999,-0.2513911724090576,-9.938331604003906,2.387019157409668,7.75146484375,15.8843994140625,-4.5013427734375
7.909999900000001,-0.3423708379268646,-9.873687744140625,2.4588451385498047,-5.4168701171875,4.45556640625,-0.9002685546875
7.9299999,-0.45250412821769714,-9.749189376831055,2.403778553009033,-4.7607421875,11.810302734375,5.6915283203125
7.949999900000001,-0.5578489899635315,-9.600749015808105,2.2888567447662354,-3.7689208984375,20.7061767578125,10.92529296875
7.9699999,-0.6607996821403503,-9.478644371032715,2.188300371170044,-3.3416748046875,14.83154296875,14.3280029296875
7.989999900000001,-0.7589619159698486,-9.3828763961792,2.1092917919158936,-6.34765625,3.11279296875,15.07568359375
8.0099999,-0.8427590131759644,-9.344569206237793,1.9512743949890137,-17.730712890625,-1.434326171875,16.2506103515625
8.0299999,-0.9433154463768005,-9.35893440246582,1.7262194156646729,-25.299072265625,5.096435546875,19.3328857421875
8.049999900000001,-1.0582371950149536,-9.459490776062012,1.534683346748352,-11.4898681640625,15.899658203125,24.3072509765625
8.069999900000001,-1.1971008777618408,-9.612719535827637,1.4915876388549805,4.7149658203125,15.9759521484375,26.5045166015625
8.0899999,-1.3431471586227417,-9.794678688049316,1.5897499322891235,4.0283203125,6.134033203125,22.552490234375
8.1099999,-1.4676456451416016,-9.99339771270752,1.7501614093780518,-2.3040771484375,2.3651123046875,18.37158203125
8.129999900000001,-1.5634137392044067,-10.15141487121582,1.843535304069519,-5.6304931640625,3.082275390625,15.5792236328125
8.149999900000001,-1.6424223184585571,-10.247182846069336,1.843535304069519,-10.3759765625,0.1373291015625,10.4217529296875
8.1699999,-1.7190368175506592,-10.254365921020508,1.764526605606079,-17.15087890625,-3.814697265625,7.5531005859375
8.1899999,-1.7812861204147339,-10.192116737365723,1.6711528301239014,-9.3231201171875,0.3814697265625,11.8865966796875
8.2099999,-1.8411411046981812,-10.067618370056152,1.6065093278884888,4.5013427734375,5.8441162109375,14.6484375
8.229999900000001,-1.86508309841156,-9.955090522766113,1.6184803247451782,2.99072265625,4.3487548828125,13.0462646484375
8.2499999,-1.8507179021835327,-9.861717224121094,1.6855180263519287,-6.1187744140625,-1.6632080078125,10.528564453125
8.2699999,-1.8148049116134644,-9.787496566772461,1.7717092037200928,-12.14599609375,-5.523681640625,8.819580078125
8.2899999,-1.7597382068634033,-9.749189376831055,1.824381709098816,-15.960693359375,-3.7078857421875,8.3160400390625
8.309999900000001,-1.721431016921997,-9.732429504394531,1.8124107122421265,-12.3138427734375,-3.0975341796875,8.209228515625
8.3299999,-1.7142484188079834,-9.744400978088379,1.7597382068634033,-5.37109375,-3.387451171875,6.7901611328125
8.3499999,-1.7381904125213623,-9.75397777557373,1.6735470294952393,-8.8958740234375,-4.7607421875,4.94384765625
8.3699999,-1.8171991109848022,-9.734824180603027,1.5705963373184204,-23.7274169921875,-6.3323974609375,2.655029296875
8.389999900000001,-1.8746598958969116,-9.715670585632324,1.3910311460494995,-42.0989990234375,-10.101318359375,2.9144287109375
8.4099999,-1.944091796875,-9.68933391571045,1.2306196689605713,-40.679931640625,-2.86865234375,3.2196044921875
8.4299999,-1.9632453918457031,-9.725247383117676,1.1180921792984009,-29.6630859375,8.5601806640625,6.7291259765625
8.4499999,-1.8914192914962769,-9.84495735168457,0.9959878921508789,-39.9169921875,7.8125,7.2174072265625
8.469999900000001,-1.7142484188079834,-10.043676376342773,0.8643068075180054,-37.567138671875,11.6424560546875,5.615234375
8.4899999,-1.659181833267212,-10.26394271850586,0.8882488012313843,-3.7841796875,41.68701171875,11.474609375
8.5099999,-1.6089035272598267,-10.441113471984863,0.912190854549408,-0.823974609375,32.71484375,0.8087158203125
8.5299999,-1.5969325304031372,-10.60391902923584,0.9624691009521484,-4.852294921875,-6.5765380859375,0.79345703125
8.549999900000001,-1.601720929145813,-10.697293281555176,1.0821791887283325,43.609619140625,3.1280517578125,2.99072265625
8.569999900000001,-1.5107412338256836,-10.764330863952637,1.173158884048462,89.78271484375,24.4903564453125,4.1351318359375
8.5899999,-1.3742717504501343,-10.730812072753906,1.2234370708465576,98.663330078125,4.9591064453125,4.8675537109375
8.6099999,-1.3072341680526733,-10.620678901672363,1.3192051649093628,71.319580078125,-11.0015869140625,-2.8076171875
8.629999900000001,-1.2976573705673218,-10.402806282043457,1.3742717504501343,42.0684814453125,-1.8310546875,-17.8070068359375
8.649999900000001,-1.3335703611373901,-10.182539939880371,1.4389152526855469,11.41357421875,10.2081298828125,-27.8167724609375
8.6699999,-1.3982137441635132,-10.005369186401367,1.556231141090393,-21.4996337890625,12.908935546875,-29.937744140625
8.6899999,-1.501164436340332,-9.835380554199219,1.6950948238372803,-50.689697265625,5.2337646484375,-31.7535400390625
8.709999900000001,-1.599326729774475,-9.737217903137207,1.8148049116134644,-79.803466796875,2.50244140625,-32.40966796875
8.729999900000001,-1.6903064250946045,-9.718064308166504,1.8267759084701538,-88.6383056640625,8.4686279296875,-27.7252197265625
8.7499999,-1.7525556087493896,-9.78989028930664,1.647210717201233,-75.927734375,8.758544921875,-24.4140625
8.7699999,-1.7764976024627686,-9.916783332824707,1.335964560508728,-64.544677734375,8.36181640625,-24.658203125
8.7899999,-1.8124107122421265,-10.029311180114746,1.0103530883789062,-43.6553955078125,14.892578125,-18.951416015625
8.809999900000001,-1.8555063009262085,-10.08437728881836,0.7565677165985107,-42.9534912109375,19.2718505859375,-15.6707763671875
8.8299999,-1.9177556037902832,-10.055646896362305,0.6033388376235962,-39.3524169921875,7.0648193359375,-18.24951171875
8.8499999,-1.9823989868164062,-10.019734382629395,0.6177040338516235,-26.6571044921875,-0.79345703125,-24.261474609375
8.8699999,-2.0015525817871094,-9.923966407775879,0.646434485912323,-27.64892578125,-5.3558349609375,-29.4647216796875
8.889999900000001,-1.9393033981323242,-9.859322547912598,0.6224924325942993,-0.396728515625,-3.4637451171875,-28.0303955078125
8.9099999,-1.8100165128707886,-9.768342971801758,0.5482721924781799,19.10400390625,3.021240234375,-36.1480712890625
8.9299999,-1.6208745241165161,-9.641449928283691,0.4836287498474121,-20.355224609375,-2.8839111328125,-52.3834228515625
8.9499999,-1.3407529592514038,-9.50498104095459,0.3256114423274994,-30.303955078125,-12.7716064453125,-38.0401611328125
8.969999900000001,-1.0319008827209473,-9.337387084960938,0.17477671802043915,-1.4801025390625,-5.43212890625,-21.881103515625
8.9899999,-0.6919242739677429,-9.172186851501465,-0.038307227194309235,-0.0152587890625,3.7689208984375,-16.998291015625
9.0099999,-0.3926490843296051,-9.045293807983398,-0.2322375625371933,-13.4429931640625,-0.091552734375,-8.3465576171875
9.0299999,-0.12210428714752197,-9.126696586608887,-0.3423708379268646,-3.6163330078125,-6.9580078125,9.521484375
9.049999900000001,0.05267243832349777,-9.334992408752441,-0.36152446269989014,10.8184814453125,-8.7890625,16.1895751953125
9.069999900000001,0.2059013396501541,-9.68694019317627,-0.3495534360408783,7.9193115234375,-9.4146728515625,15.8843994140625
9.0899999,0.31364041566848755,-10.127472877502441,-0.28969839215278625,9.5672607421875,-3.9215087890625,24.444580078125
9.1099999,0.40462008118629456,-10.606313705444336,-0.14604631066322327,3.082275390625,1.3885498046875,29.72412109375
9.129999900000001,0.5123591423034668,-11.14500904083252,0.05985504388809204,-6.5460205078125,-1.3885498046875,31.982421875
9.149999900000001,0.629675030708313,-11.796232223510742,0.3064578175544739,-9.6588134765625,-6.591796875,30.1361083984375
9.1699999,0.751779317855835,-12.552799224853516,0.395043283700943,-3.4637451171875,-5.279541015625,26.7333984375
9.1899999,0.8307880163192749,-13.290213584899902,0.31603461503982544,7.6751708984375,10.772705078125,13.5955810546875
9.209999900000001,0.8212111592292786,-13.900734901428223,0.19153612852096558,25.604248046875,33.02001953125,0.2899169921875
9.229999900000001,0.6727706789970398,-14.25268268585205,0.26575639843940735,45.9136962890625,43.3502197265625,-11.810302734375
9.2499999,0.38307225704193115,-14.281413078308105,0.4165911078453064,21.0723876953125,17.2271728515625,-32.4554443359375
9.2699999,-0.040701430290937424,-13.907917976379395,0.569819986820221,-16.876220703125,-5.4473876953125,-49.2401123046875
9.2899999,-0.5363011956214905,-13.144166946411133,0.5291185975074768,-19.0582275390625,1.8157958984375,-53.802490234375
9.309999900000001,-1.0247182846069336,-12.126631736755371,0.2777273952960968,8.2244873046875,17.3187255859375,-44.5404052734375
9.3299999,-1.4173674583435059,-10.984597206115723,-0.05506663769483566,26.7181396484375,15.8538818359375,-39.6270751953125
9.3499999,-1.680729627609253,-9.830592155456543,-0.33997663855552673,21.2860107421875,5.4931640625,-49.0570068359375
9.3699999,-1.8267759084701538,-8.75080680847168,-0.5770025849342346,67.0928955078125,16.7236328125,-57.4188232421875
9.389999900000001,-1.8483237028121948,-7.857769966125488,-0.6368576288223267,139.5721435546875,42.90771484375,-50.6591796875
9.4099999,-1.8267759084701538,-7.132327079772949,-0.569819986820221,131.7138671875,33.5693359375,-40.7257080078125
9.4299999,-1.659181833267212,-6.888118267059326,-0.31842881441116333,99.700927734375,11.7950439453125,-29.3121337890625
9.4499999,-1.3718775510787964,-6.98628044128418,-0.026336219161748886,104.55322265625,13.9617919921875,-36.5753173828125
9.469999900000001,-1.094150185585022,-7.383718013763428,0.507570743560791,198.089599609375,46.875,-60.6536865234375
9.4899999,-0.790086567401886,-7.908048152923584,1.1085153818130493,235.29052734375,47.4395751953125,-50.933837890625
9.5099999,-0.646434485912323,-8.255207061767578,1.941697597503662,252.532958984375,27.618408203125,-23.2391357421875
9.5299999,-0.6129156351089478,-8.317456245422363,2.801215887069702,305.9234619140625,32.6690673828125,-0.5645751953125
9.549999900000001,-0.6153098344802856,-8.085219383239746,3.667917013168335,302.490234375,32.9132080078125,5.4168701171875
9.569999900000001,-0.608127236366272,-7.580042362213135,4.501099109649658,223.1597900390625,17.242431640625,0.1068115234375
9.5899999,-0.5578489899635315,-6.938396453857422,5.219359874725342,136.7950439453125,-19.989013671875,0.8697509765625
9.6099999,-0.4405331015586853,-6.339846134185791,5.825092792510986,83.6029052734375,-25.909423828125,7.5225830078125
9.629999900000001,-0.2849099934101105,-5.827486991882324,6.100425720214844,31.0211181640625,-23.5595703125,15.13671875
9.649999900000001,-0.040701430290937424,-5.621585369110107,6.088454723358154,-30.8837890625,-22.9034423828125,28.2440185546875
9.6699999,0.19393034279346466,-5.683835029602051,5.96874475479126,-79.2388916015625,-27.0843505859375,26.91650390625
9.6899999,0.5195417404174805,-6.121973514556885,5.817910194396973,-9.1705322265625,-26.2908935546875,33.99658203125
9.709999900000001,0.790086567401886,-6.687005519866943,5.770026206970215,32.470703125,-23.4832763671875,32.5164794921875
9.729999900000001,0.9983820915222168,-7.220912456512451,5.714959621429443,26.7181396484375,-14.9993896484375,24.658203125
9.7499999,1.0845733880996704,-7.553706169128418,5.719748020172119,20.9808349609375,-6.3629150390625,29.3121337890625
9.7699999,1.0797849893569946,-7.613561630249023,5.731719017028809,20.2484130859375,-5.9967041015625,44.891357421875
9.7899999,1.0055646896362305,-7.501033782958984,5.829881191253662,-8.514404296875,-9.7198486328125,49.1485595703125
9.809999900000001,0.9672574996948242,-7.386112213134766,5.95677375793457,-63.5223388671875,-16.387939453125,38.2232666015625
9.8299999,0.9959878921508789,-7.38132381439209,6.011840343475342,-93.0938720703125,-26.3671875,28.8238525390625
9.8499999,1.1659762859344482,-7.613561630249023,5.899312973022461,-81.756591796875,-20.0958251953125,24.35302734375
9.8699999,1.381454348564148,-7.996633529663086,5.69580602645874,-83.92333984375,3.082275390625,11.77978515625
9.889999900000001,1.6208745241165161,-8.406042098999023,5.3342814445495605,-105.3466796875,7.4920654296875,-5.6915283203125
9.9099999,1.7908629179000854,-8.700529098510742,4.982333660125732,-62.4847412109375,9.6893310546875,-7.354736328125
9.9299999,1.8507179021835327,-8.810662269592285,4.707000732421875,-14.5111083984375,26.6571044921875,-0.3204345703125
9.9499999,1.7980455160140991,-8.772355079650879,4.55616569519043,-13.824462890625,31.7840576171875,1.5411376953125
9.969999900000001,1.7693150043487549,-8.705317497253418,4.441244125366211,-38.4674072265625,23.1475830078125,-1.7547607421875
9.9899999,1.6759412288665771,-8.65743350982666,4.541800498962402,0.457763671875,33.5540771484375,-2.3651123046875
10.0099999,1.5825673341751099,-8.676587104797363,4.733336925506592,17.1966552734375,39.36767578125,-3.5858154296875
10.0299999,1.4269442558288574,-8.698134422302246,4.93923807144165,-31.2042236328125,16.998291015625,-11.3677978515625
10.049999900000001,1.2497732639312744,-8.734047889709473,5.078101634979248,-57.5714111328125,8.819580078125,-11.505126953125
10.069999900000001,1.0295066833496094,-8.746018409729004,5.0900726318359375,-58.16650390625,27.008056640625,-5.7830810546875
10.0899999,0.8331822156906128,-8.78432559967041,5.118803024291992,-83.6029052734375,38.4521484375,-4.0740966796875
10.1099999,0.5913678407669067,-8.772355079650879,5.327098846435547,-102.9510498046875,24.444580078125,4.94384765625
10.129999900000001,0.3208230137825012,-8.779537200927734,5.791574001312256,-98.1292724609375,-4.0130615234375,22.5372314453125
10.149999900000001,0.05746084079146385,-8.774748802185059,6.1770405769348145,-101.98974609375,-30.792236328125,28.564453125
10.1699999,-0.12210428714752197,-8.803479194641113,6.189011573791504,-109.893798828125,-40.4205322265625,27.069091796875
10.1899999,-0.24660277366638184,-8.829815864562988,5.78678560256958,-109.8480224609375,-25.87890625,21.881103515625
10.209999900000001,-0.304063618183136,-8.904036521911621,5.147533416748047,-88.958740234375,-9.46044921875,27.1453857421875
10.229999900000001,-0.35913026332855225,-9.009381294250488,4.541800498962402,-59.7076416015625,-6.8511962890625,32.135009765625
10.2499999,-0.40701428055763245,-9.184157371520996,4.065354347229004,-38.6199951171875,-10.1318359375,26.5960693359375
10.2699999,-0.45489832758903503,-9.406818389892578,3.6391866207122803,-33.782958984375,-5.67626953125,19.3939208984375
10.2899999,-0.5123591423034668,-9.641449928283691,3.2369606494903564,-33.0657958984375,10.650634765625,17.913818359375
10.309999900000001,-0.6105214357376099,-9.813833236694336,2.9472622871398926,-28.564453125,20.9808349609375,18.2342529296875
10.3299999,-0.7589619159698486,-9.897629737854004,2.832340717315674,-31.951904296875,14.190673828125,16.0980224609375
10.3499999,-0.9026140570640564,-9.93593692779541,2.873042106628418,-34.0576171875,4.45556640625,17.3492431640625
10.3699999,-1.0295066833496094,-9.911994934082031,2.9735984802246094,-27.1453857421875,3.0364990234375,18.524169921875
10.389999900000001,-1.1204863786697388,-9.854534149169922,3.00711727142334,-27.557373046875,2.7313232421875,15.0299072265625
10.4099999,-1.161187767982483,-9.782708168029785,2.920926094055176,-33.26416015625,-5.0048828125,14.9078369140625
10.4299999,-1.1779472827911377,-9.730035781860352,2.7437551021575928,-37.29248046875,-9.521484375,16.54052734375
10.4499999,-1.173158884048462,-9.739612579345703,2.5330653190612793,-40.191650390625,-7.8887939453125,17.4560546875
10.469999900000001,-1.1540051698684692,-9.830592155456543,2.3104045391082764,-27.252197265625,-5.2642822265625,16.632080078125
10.4899999,-1.137245774269104,-9.967061996459961,2.10210919380188,-16.4337158203125,-5.584716796875,14.3890380859375
10.5099999,-1.1324573755264282,-10.132261276245117,1.9512743949890137,-16.6473388671875,-3.753662109375,11.016845703125
10.5299999,-1.1228805780410767,-10.273519515991211,1.8315643072128296,-22.6593017578125,-2.01416015625,7.781982421875
10.549999900000001,-1.0869675874710083,-10.390835762023926,1.721431016921997,-22.0947265625,-3.5858154296875,5.4931640625
10.569999900000001,-1.0199298858642578,-10.481815338134766,1.6208745241165161,-13.580322265625,-2.1514892578125,3.753662109375
10.5899999,-0.9193734526634216,-10.541669845581055,1.479616641998291,-8.514404296875,2.2125244140625,0.335693359375
10.6099999,-0.7469909191131592,-10.606313705444336,1.115697979927063,-14.9383544921875,5.0506591796875,-0.9613037109375
10.629999900000001,-0.4189853072166443,-10.699687004089355,0.5817909836769104,-29.388427734375,13.8702392578125,4.0283203125
10.649999900000001,0.1364694982767105,-11.118672370910645,0.05985504388809204,-32.196044921875,38.3758544921875,8.30078125
10.6699999,0.9361328482627869,-12.090718269348145,-0.3471592366695404,-33.111572265625,55.5572509765625,0.67138671875
10.6899999,2.1571757793426514,-14.125789642333984,-0.9241618514060974,-25.848388671875,50.0335693359375,-0.2593994140625
10.709999900000001,3.4739866256713867,-17.089811325073242,-1.4963760375976562,13.6871337890625,83.7860107421875,-21.1181640625
10.729999900000001,4.505887508392334,-21.104888916015625,-0.9792284965515137,63.65966796875,173.065185546875,-103.7750244140625
10.7499999,4.793191909790039,-25.191789627075195,0.8427590131759644,-36.8804931640625,147.9339599609375,-224.4720458984375
10.7699999,3.7924153804779053,-28.242002487182617,4.151545524597168,-71.2127685546875,39.4287109375,-293.7469482421875
10.7899999,1.5322890281677246,-29.58514976501465,8.283937454223633,20.538330078125,9.5977783203125,-320.9686279296875
10.809999900000001,-1.7932571172714233,-28.404808044433594,11.647790908813477,71.83837890625,-12.5885009765625,-353.271484375
10.8299999,-5.621585369110107,-25.072080612182617,13.57512378692627,73.455810546875,-64.3768310546875,-375.5035400390625
10.8499999,-9.856928825378418,-19.09375762939453,13.984532356262207,45.2880859375,-134.46044921875,-395.5230712890625
10.8699999,-14.0635404586792,-10.778696060180664,13.19205093383789,43.243408203125,-183.0596923828125,-343.597412109375
10.889999900000001,-17.93017578125,-0.8523358106613159,11.473014831542969,99.4415283203125,-213.897705078125,-175.4150390625
10.9099999,-21.210233688354492,9.543288230895996,8.81784439086914,128.631591796875,-256.561279296875,-5.43212890625
10.9299999,-23.345861434936523,17.32683753967285,6.064512729644775,136.871337890625,-285.675048828125,154.144287109375
10.9499999,-24.566904067993164,21.045032501220703,3.35667085647583,206.5277099609375,-292.96875,311.03515625
10.969999900000001,-24.66506576538086,19.27332305908203,-0.8259995579719543,204.0863037109375,-359.954833984375,426.1627197265625
10.9899999,-22.96039390563965,12.983756065368652,-6.794744491577148,8.6212158203125,-385.92529296875,476.4251708984375
11.0099999,-20.003555297851562,4.381389141082764,-13.539210319519043,-76.8890380859375,-216.4459228515625,441.46728515625
11.0299999,-15.456966400146484,-5.477933406829834,-19.68033790588379,13.9007568359375,-5.218505859375,406.4178466796875
11.049999900000001,-10.292673110961914,-13.974955558776855,-23.728933334350586,-4.669189453125,-25.238037109375,339.996337890625
11.069999900000001,-5.477933406829834,-21.210233688354492,-25.802310943603516,-11.4898681640625,-12.4969482421875,255.8746337890625
11.0899999,-1.7764976024627686,-26.692955017089844,-27.176584243774414,22.8424072265625,144.6990966796875,213.6688232421875
11.1099999,0.18914192914962769,-30.68887710571289,-27.40163803100586,38.02490234375,370.9564208984375,150.3753662109375
11.129999900000001,0.3878606855869293,-33.526004791259766,-24.770410537719727,29.3426513671875,483.1085205078125,68.17626953125
11.149999900000001,-0.8523358106613159,-35.29771423339844,-17.92538833618164,-14.862060546875,436.676025390625,-36.8499755859375
11.1699999,-2.7676970958709717,-35.800498962402344,-8.042123794555664,-41.1376953125,314.02587890625,-132.5531005859375
11.1899999,-4.714183330535889,-34.56269454956055,2.276885747909546,-23.7274169921875,218.6431884765625,-208.6639404296875
11.209999900000001,-6.423643112182617,-31.225177764892578,10.326191902160645,14.16015625,158.9508056640625,-264.5111083984375
11.229999900000001,-7.982268333435059,-25.617958068847656,15.181632995605469,6.53076171875,79.559326171875,-281.3873291015625
11.2499999,-9.100360870361328,-18.70350456237793,16.87433433532715,-32.9132080078125,-26.1077880859375,-238.4033203125
11.2699999,-9.84256362915039,-11.200075149536133,16.3883113861084,-13.5040283203125,-104.9346923828125,-165.2069091796875
11.2899999,-9.890447616577148,-4.5609540939331055,14.154520034790039,41.1376953125,-154.937744140625,-102.6458740234375
11.309999900000001,-9.165003776550293,0.569819986820221,10.096348762512207,15.0299072265625,-235.0311279296875,-43.15185546875
11.3299999,-7.623138427734375,3.5936968326568604,5.058948040008545,-57.098388671875,-242.9656982421875,-1.5869140625
11.3499999,-5.688623428344727,4.692635536193848,-0.1149216815829277,-14.068603515625,-152.4505615234375,17.2271728515625
11.3699999,-3.3734302520751953,3.643975019454956,-4.776432514190674,3.8604736328125,-120.361328125,38.7420654296875
11.389999900000001,-1.2856862545013428,1.2401964664459229,-7.972691535949707,-19.0887451171875,-127.5634765625,40.3289794921875
11.4099999,0.3280056416988373,-1.843535304069519,-9.732429504394531,-4.2724609375,-78.7353515625,26.4739990234375
11.4299999,1.3934253454208374,-4.975151062011719,-10.347740173339844,4.4403076171875,-19.47021484375,25.32958984375
11.4499999,1.889025092124939,-7.4316020011901855,-9.95748519897461,-15.380859375,4.2266845703125,14.0228271484375
11.469999900000001,1.922544002532959,-9.121908187866211,-8.681375503540039,-3.570556640625,5.828857421875,4.8065185546875
11.4899999,1.6639702320098877,-10.08198356628418,-6.904877662658691,41.1376953125,8.148193359375,9.09423828125
11.5099999,1.280897855758667,-10.393229484558105,-5.197812080383301,53.1768798828125,8.026123046875,15.3045654296875
11.5299999,0.9672574996948242,-10.32858657836914,-3.9911341667175293,17.0135498046875,-2.410888671875,18.06640625
11.549999900000001,0.7493851184844971,-10.146626472473145,-3.3470940589904785,-23.7274169921875,-5.5389404296875,5.584716796875
11.569999900000001,0.6536170840263367,-9.995792388916016,-3.2585084438323975,-27.9998779296875,0.946044921875,-10.3759765625
11.5899999,0.6272808313369751,-9.967061996459961,-3.442862033843994,-1.5106201171875,13.641357421875,-11.1236572265625
11.6099999,0.5985504388809204,-9.93593692779541,-3.6343982219696045,25.0701904296875,26.6571044921875,-8.0108642578125
11.629999900000001,0.5339069962501526,-9.854534149169922,-3.6367924213409424,46.7071533203125,30.364990234375,-9.9639892578125
11.649999900000001,0.4812345504760742,-9.782708168029785,-3.426102638244629,49.4232177734375,22.369384765625,-12.0391845703125
11.6699999,0.47405192255973816,-9.751583099365234,-3.112462282180786,29.6173095703125,10.223388671875,-18.12744140625
11.6899999,0.5147533416748047,-9.792284965515137,-2.832340717315674,16.4947509765625,5.584716796875,-30.4107666015625
11.709999900000001,0.6200982332229614,-9.830592155456543,-2.6168625354766846,45.6085205078125,4.5013427734375,-27.8472900390625
11.729999900000001,0.7350199222564697,-9.859322547912598,-2.367865562438965,82.7178955078125,1.739501953125,-13.214111328125
11.7499999,0.8547300100326538,-9.8784761428833,-2.1068975925445557,90.423583984375,0,-0.67138671875
11.7699999,1.01753568649292,-9.945513725280762,-1.8914192914962769,59.0972900390625,9.185791015625,-6.6070556640625
11.7899999,1.2018892765045166,-10.046070098876953,-1.8315643072128296,17.5018310546875,19.04296875,-35.9954833984375
11.809999900000001,1.381454348564148,-10.165780067443848,-1.8842366933822632,11.3677978515625,23.0255126953125,-52.9327392578125
11.8299999,1.4915876388549805,-10.153809547424316,-1.9800047874450684,5.9356689453125,10.6201171875,-48.6907958984375
11.8499999,1.4867992401123047,-9.988609313964844,-1.9800047874450684,-12.4969482421875,1.9073486328125,-42.41943359375
11.8699999,1.4437036514282227,-9.794678688049316,-1.8914192914962769,-9.368896484375,0.3204345703125,-34.5001220703125
11.889999900000001,1.3838485479354858,-9.583989143371582,-1.6735470294952393,-16.2353515625,6.3934326171875,-37.8875732421875
11.9099999,1.37906014919281,-9.368511199951172,-1.4867992401123047,-42.724609375,3.9825439453125,-45.196533203125
11.9299999,1.4652514457702637,-9.191340446472168,-1.3670891523361206,-42.4346923828125,-5.06591796875,-36.0107421875
11.9499999,1.599326729774475,-8.959102630615234,-1.4724340438842773,-33.2489013671875,-12.5732421875,-28.045654296875
11.969999900000001,1.8579005002975464,-8.853757858276367,-1.821987509727478,-23.1170654296875,-6.9122314453125,-19.500732421875
11.9899999,2.188300371170044,-8.911218643188477,-2.3080103397369385,-9.1705322265625,5.37109375,-15.8233642578125
12.0099999,2.537853717803955,-9.153033256530762,-2.7054479122161865,17.8680419921875,13.73291015625,-13.946533203125
12.0299999,2.827552318572998,-9.497797966003418,-2.8993782997131348,35.5224609375,14.6331787109375,-9.9029541015625
12.049999900000001,2.9448680877685547,-9.737217903137207,-2.849100112915039,31.4178466796875,10.223388671875,-11.4898681640625
12.069999900000001,2.9233202934265137,-9.847352027893066,-2.6168625354766846,28.25927734375,6.9427490234375,-9.6435546875
12.0899999,2.7940332889556885,-9.746794700622559,-2.38462495803833,27.83203125,2.349853515625,-10.3759765625
12.1099999,2.7269957065582275,-9.514557838439941,-2.279279947280884,43.7164306640625,0.30517578125,-14.2669677734375
12.129999900000001,2.7030537128448486,-9.327810287475586,-2.1499931812286377,76.1871337890625,14.923095703125,-25.299072265625
12.149999900000001,2.7700912952423096,-9.155426979064941,-2.0446481704711914,36.956787109375,22.03369140625,-37.078857421875
12.1699999,2.8371291160583496,-9.078812599182129,-1.7836803197860718,28.9154052734375,5.0811767578125,-24.383544921875
12.1899999,2.889801502227783,-9.035717010498047,-1.4389152526855469,41.748046875,0.4119873046875,-8.697509765625
12.209999900000001,2.937685489654541,-9.01895809173584,-1.0773907899856567,42.0989990234375,-6.8206787109375,-3.814697265625
12.229999900000001,2.8778305053710938,-8.89685344696045,-0.5841852426528931,70.9228515625,-13.4124755859375,5.126953125
12.2499999,2.7102363109588623,-8.62391471862793,0.06464344263076782,216.064453125,-20.416259765625,39.12353515625
12.2699999,2.2816741466522217,-7.934384346008301,1.3766659498214722,441.7266845703125,-25.970458984375,107.635498046875
12.289999900000002,1.987187385559082,-7.845798969268799,2.535459518432617,499.9847412109375,-48.919677734375,304.87060546875
12.309999900000001,1.5083470344543457,-8.068459510803223,3.706224203109741,499.9847412109375,89.1265869140625,461.822509765625
12.3299999,1.3048399686813354,-9.313444137573242,4.496310710906982,425.9033203125,155.3497314453125,311.5692138671875
12.3499999,0.9816226959228516,-10.505757331848145,4.90571928024292,-134.6588134765625,94.390869140625,-12.481689453125
12.3699999,0.5626373887062073,-10.92953109741211,5.307945251464844,-107.9254150390625,78.2928466796875,-140.1824951171875
12.389999900000001,0.004788403399288654,-10.3549222946167,5.837063789367676,-41.1529541015625,106.048583984375,-58.868408203125
12.4099999,-0.5817909836769104,-9.141061782836914,6.576871871948242,-52.4139404296875,112.1673583984375,-10.833740234375
12.4299999,-1.115697979927063,-7.754819393157959,7.134721279144287,-71.2432861328125,45.7763671875,-46.8292236328125
12.4499999,-1.522712230682373,-6.761225700378418,7.453149795532227,-68.1915283203125,-5.615234375,-42.022705078125
12.469999900000001,-1.7549498081207275,-6.13633918762207,7.376535415649414,-65.6585693359375,8.23974609375,1.46484375
12.4899999,-1.843535304069519,-5.78678560256958,6.971915245056152,-84.6099853515625,15.2587890625,18.9208984375
12.5099999,-1.7573440074920654,-5.959167957305908,6.610390663146973,-93.505859375,1.129150390625,29.4342041015625
12.5299999,-1.5490485429763794,-6.538564682006836,6.509834289550781,-94.7418212890625,-13.5345458984375,32.28759765625
12.549999900000001,-1.259350061416626,-7.266402244567871,6.502651691436768,-110.8551025390625,-49.3927001953125,15.594482421875
12.569999900000001,-1.048660397529602,-8.058882713317871,6.531382083892822,-107.666015625,-59.234619140625,19.7296142578125
12.5899999,-0.9074024558067322,-8.669404029846191,6.538564682006836,-59.539794921875,-32.3333740234375,36.0107421875
12.6099999,-0.933738648891449,-8.959102630615234,6.368576526641846,-19.71435546875,-43.2281494140625,25.177001953125
12.629999900000001,-1.1468225717544556,-8.9064302444458,6.143521785736084,50.3082275390625,-47.454833984375,29.4036865234375
12.649999900000001,-1.3503297567367554,-8.655038833618164,5.762843608856201,101.6387939453125,-50.8575439453125,53.4210205078125
12.6699999,-1.4676456451416016,-8.5903959274292,5.4013190269470215,48.2177734375,-53.9398193359375,78.7353515625
12.6899999,-1.4413094520568848,-8.743624687194824,5.190629482269287,62.2711181640625,-11.90185546875,58.8531494140625
12.709999900000001,-1.2617442607879639,-9.119514465332031,5.183446884155273,123.0926513671875,2.532958984375,17.547607421875
12.729999900000001,-1.2258312702178955,-9.174580574035645,5.322310447692871,93.9788818359375,-12.2833251953125,1.007080078125
12.7499999,-1.2832920551300049,-8.803479194641113,5.453991413116455,57.220458984375,-21.54541015625,25.1007080078125
12.7699999,-1.3311761617660522,-8.525752067565918,5.47075080871582,-2.9296875,-2.5634765625,56.9305419921875
12.789999900000002,-1.338358759880066,-8.38688850402832,5.609614372253418,-42.1600341796875,42.05322265625,5.889892578125
12.809999900000001,-1.335964560508728,-8.346187591552734,5.789179801940918,-0.1678466796875,52.1087646484375,-68.450927734375
12.8299999,-1.2976573705673218,-8.434772491455078,5.810727596282959,39.520263671875,27.4200439453125,-53.2073974609375
12.8499999,-1.3503297567367554,-8.236053466796875,5.944802761077881,-44.2962646484375,18.8446044921875,-20.81298828125
12.8699999,-1.3072341680526733,-7.9631147384643555,6.155492782592773,-75.6988525390625,31.2652587890625,-40.83251953125
12.889999900000001,-1.2545616626739502,-7.632715225219727,6.430825710296631,-45.9747314453125,-11.77978515625,-61.431884765625
12.9099999,-1.2042834758758545,-7.3023152351379395,6.584054470062256,52.6123046875,-15.4571533203125,-28.594970703125
12.9299999,-1.2832920551300049,-6.926425457000732,6.560112476348877,60.9893798828125,20.3399658203125,18.5546875
12.9499999,-1.4245500564575195,-6.766014099121094,6.279991149902344,33.4625244140625,51.605224609375,21.697998046875
12.969999900000001,-1.4844050407409668,-6.952761650085449,6.09324312210083,35.7666015625,44.952392578125,3.692626953125
12.9899999,-1.4891934394836426,-7.333439826965332,6.27280855178833,46.8902587890625,30.8837890625,0.335693359375
13.0099999,-1.4844050407409668,-7.546523571014404,6.643909931182861,43.121337890625,23.13232421875,-10.528564453125
13.0299999,-1.556231141090393,-7.4316020011901855,6.9695210456848145,42.5262451171875,20.20263671875,-2.44140625
13.049999900000001,-1.6304513216018677,-7.220912456512451,7.362170219421387,53.9093017578125,35.4766845703125,34.1033935546875
13.069999900000001,-1.7764976024627686,-7.074865818023682,7.41484260559082,56.82373046875,14.4195556640625,46.6156005859375
13.0899999,-1.821987509727478,-7.1706342697143555,7.513004779815674,48.40087890625,11.9781494140625,18.4326171875
13.1099999,-1.886630892753601,-7.3238630294799805,7.55131196975708,38.818359375,30.8837890625,-10.8795166015625
13.129999900000001,-1.922544002532959,-7.3693528175354,7.443572998046875,20.9808349609375,6.4239501953125,-12.5274658203125
13.149999900000001,-1.9823989868164062,-7.094019412994385,7.496245384216309,12.63427734375,-4.7607421875,-13.0767822265625
13.1699999,-2.032677173614502,-6.777985095977783,7.508216381072998,14.0838623046875,1.495361328125,-5.5694580078125
13.1899999,-2.070984363555908,-6.509834289550781,7.524975776672363,17.059326171875,-5.37109375,-2.9754638671875
13.209999900000001,-2.1475989818573,-6.2847795486450195,7.474697589874268,22.186279296875,-5.9051513671875,-11.444091796875
13.229999900000001,-2.188300371170044,-6.1985883712768555,7.479485988616943,29.7393798828125,8.209228515625,-5.340576171875
13.2499999,-2.2433669567108154,-6.145915985107422,7.620744228363037,19.8516845703125,3.936767578125,7.2479248046875
13.2699999,-2.2577321529388428,-6.14831018447876,7.762001991271973,6.40869140625,-29.9224853515625,6.3323974609375
13.289999900000002,-2.2385785579681396,-6.19379997253418,8.015787124633789,-0.3204345703125,-47.4395751953125,-3.9825439453125
13.309999900000001,-2.1380221843719482,-6.299144744873047,8.142680168151855,-22.5677490234375,-63.751220703125,-1.9989013671875
13.3299999,-1.9632453918457031,-6.392518520355225,8.180987358093262,-28.106689453125,-77.33154296875,-0.396728515625
13.3499999,-1.7381904125213623,-6.519411087036133,8.528146743774414,7.3394775390625,-80.26123046875,-10.68115234375
13.3699999,-1.625662922859192,-6.531382083892822,8.389283180236816,140.2130126953125,-103.912353515625,-10.5133056640625
13.389999900000001,-1.4101848602294922,-6.593631267547607,8.11634349822998,112.0758056640625,-97.6409912109375,-3.936767578125
13.4099999,-1.338358759880066,-6.370970726013184,7.747636795043945,18.3563232421875,22.7508544921875,-27.8778076171875
13.4299999,-1.173158884048462,-6.009446144104004,7.457938194274902,-5.6304931640625,56.7474365234375,-40.7257080078125
13.4499999,-0.9959878921508789,-5.552153587341309,7.675810813903809,29.052734375,8.7432861328125,-25.970458984375
13.469999900000001,-0.9672574996948242,-5.0900726318359375,8.111555099487305,35.7208251953125,-23.0560302734375,-14.9688720703125
13.4899999,-0.9792284965515137,-4.829104900360107,8.300697326660156,25.2227783203125,-16.265869140625,-7.6141357421875
13.5099999,-1.05105459690094,-4.752490520477295,8.274360656738281,-0.244140625,23.92578125,-4.8828125
13.5299999,-1.1252747774124146,-4.833893299102783,8.08282470703125,-11.7340087890625,39.0777587890625,-8.72802734375
13.549999900000001,-1.1204863786697388,-5.006275653839111,8.08043098449707,-2.166748046875,25.9857177734375,-10.7574462890625
13.569999900000001,-1.1109095811843872,-5.173870086669922,8.238448143005371,2.4566650390625,22.88818359375,-14.22119140625
13.5899999,-1.1516109704971313,-5.281609058380127,8.396465301513672,4.9896240234375,24.169921875,-25.390625
13.6099999,-1.1899182796478271,-5.307945251464844,8.465897560119629,10.1776123046875,18.5089111328125,-25.177001953125
13.629999900000001,-1.2473790645599365,-5.250484466552734,8.504204750061035,10.31494140625,5.4779052734375,-19.4244384765625
13.649999900000001,-1.2713210582733154,-5.128379821777344,8.449137687683105,14.2364501953125,-5.7830810546875,-17.5628662109375
13.6699999,-1.2545616626739502,-5.032611846923828,8.413225173950195,11.993408203125,-11.1846923828125,-17.8070068359375
13.6899999,-1.2186486721038818,-4.9583916664123535,8.365341186523438,5.8746337890625,-17.1661376953125,-19.59228515625
13.709999900000001,-1.1659762859344482,-4.884171485900879,8.291120529174805,15.0146484375,-21.78955078125,-16.1285400390625
13.729999900000001,-1.0965443849563599,-4.776432514190674,8.149862289428711,17.0440673828125,-24.35302734375,-9.918212890625
13.7499999,-1.0223240852355957,-4.6040496826171875,7.977479934692383,0.5950927734375,-12.1917724609375,-6.7901611328125
13.7699999,-0.9409212470054626,-4.4723687171936035,7.86734676361084,-4.5166015625,12.2222900390625,6.04248046875
13.789999900000002,-0.8667010068893433,-4.5609540939331055,7.6351094245910645,-7.0648193359375,2.50244140625,18.06640625
13.809999900000001,-0.8355764150619507,-4.671087741851807,7.544129371643066,-8.3465576171875,2.899169921875,0
13.8299999,-0.7565677165985107,-4.881777286529541,7.625532627105713,8.4991455078125,41.3970947265625,-12.2528076171875
13.8499999,-0.730231523513794,-5.023035049438477,7.8098859786987305,10.528564453125,47.8057861328125,9.1400146484375
13.8699999,-0.6224924325942993,-5.16429328918457,8.274360656738281,-15.106201171875,19.622802734375,10.1318359375
13.889999900000001,-0.6512228846549988,-5.123591423034668,8.762778282165527,-18.6767578125,6.77490234375,-12.237548828125
13.9099999,-0.7206547260284424,-5.125985622406006,9.083600997924805,-5.1727294921875,2.7313232421875,-7.8125
13.9299999,-0.9097966551780701,-4.991910457611084,9.289502143859863,4.9896240234375,8.331298828125,7.2784423828125
13.9499999,-1.0534487962722778,-4.900930881500244,9.423578262329102,18.3258056640625,11.23046875,23.6968994140625
13.969999900000001,-1.1635819673538208,-4.8602294921875,9.641449928283691,32.8826904296875,17.669677734375,26.8402099609375
13.9899999,-1.048660397529602,-5.049371242523193,9.93354320526123,30.853271484375,-15.472412109375,20.81298828125
14.0099999,-0.9217676520347595,-5.145139217376709,10.180145263671875,38.87939453125,-40.6646728515625,8.97216796875
14.0299999,-0.8834604024887085,-4.941632270812988,9.998186111450195,23.0255126953125,-61.0809326171875,6.0577392578125
14.049999900000001,-0.6919242739677429,-4.975151062011719,9.823410034179688,-4.6844482421875,-37.29248046875,52.6123046875
14.069999900000001,-0.6631938815116882,-4.76924991607666,9.318233489990234,3.265380859375,-4.364013671875,37.6129150390625
14.0899999,-0.5123591423034668,-4.838681697845459,9.105149269104004,21.7742919921875,-0.2288818359375,8.819580078125
14.1099999,-0.3998316824436188,-4.917690277099609,9.062053680419922,31.0516357421875,2.899169921875,4.9285888671875
14.129999900000001,-0.3998316824436188,-4.817133903503418,9.02135181427002,44.0521240234375,-1.5106201171875,7.080078125
14.149999900000001,-0.5793967843055725,-4.527435302734375,8.995016098022461,45.9747314453125,8.6822509765625,12.359619140625
14.1699999,-0.7086837291717529,-4.321534156799316,8.923190116882324,33.0963134765625,14.16015625,31.646728515625
14.1899999,-0.6751648783683777,-4.0294413566589355,8.78193187713623,37.322998046875,21.7437744140625,37.7349853515625
14.209999900000001,-0.6368576288223267,-3.840299606323242,8.667010307312012,21.54541015625,8.6212158203125,-4.119873046875
14.229999900000001,-0.3926490843296051,-3.713406801223755,8.508993148803711,19.073486328125,18.707275390625,-5.67626953125
14.2499999,-0.3687070608139038,-3.442862033843994,8.51138687133789,19.8974609375,38.787841796875,-12.5885009765625
14.2699999,-0.45250412821769714,-3.2968156337738037,8.607154846191406,28.717041015625,31.2957763671875,-6.8817138671875
14.289999900000002,-0.6584054827690125,-3.203441858291626,8.939949035644531,32.7911376953125,17.5323486328125,4.21142578125
14.309999900000001,-0.9074024558067322,-3.177105665206909,9.320627212524414,36.2548828125,10.9710693359375,-1.373291015625
14.3299999,-1.1037269830703735,-3.2824504375457764,9.627084732055664,33.8897705078125,5.5999755859375,-3.1890869140625
14.3499999,-1.2665326595306396,-3.4189200401306152,9.80904483795166,23.01025390625,4.791259765625,-4.3792724609375
14.3699999,-1.359906554222107,-3.4596214294433594,9.907206535339355,19.927978515625,8.636474609375,-10.162353515625
14.389999900000001,-1.4173674583435059,-3.4117374420166016,9.99100399017334,20.416259765625,10.7574462890625,-8.9263916015625
14.4099999,-1.4437036514282227,-3.2537200450897217,10.019734382629395,15.8233642578125,-0.5645751953125,-0.5340576171875
14.4299999,-1.4437036514282227,-3.0885202884674072,10.04846477508545,4.8675537109375,-7.9498291015625,5.645751953125
14.4499999,-1.400607943534851,-3.0550012588500977,9.99100399017334,-3.082275390625,-7.9345703125,3.7994384765625
14.469999900000001,-1.3215993642807007,-3.0789434909820557,9.947908401489258,-4.4708251953125,-5.7220458984375,-6.6986083984375
14.4899999,-1.2090718746185303,-3.248931646347046,9.916783332824707,-5.401611328125,-9.246826171875,-9.3536376953125
14.5099999,-1.158793568611145,-3.3877954483032227,9.785101890563965,-7.2174072265625,-17.913818359375,-13.00048828125
14.5299999,-1.0558429956436157,-3.507505416870117,9.672574996948242,-9.3994140625,-10.5438232421875,-15.960693359375
14.549999900000001,-1.0199298858642578,-3.557783842086792,9.524134635925293,-15.0909423828125,-0.7781982421875,-20.2484130859375
14.569999900000001,-0.8595184087753296,-3.507505416870117,9.346963882446289,-11.4593505859375,-13.031005859375,-19.9432373046875
14.5899999,-0.7852981686592102,-3.4380736351013184,9.222464561462402,-16.7388916015625,-9.552001953125,-21.9573974609375
14.6099999,-0.8212111592292786,-3.2417490482330322,9.155426979064941,-16.3726806640625,3.0670166015625,-31.9671630859375
14.629999900000001,-1.0342950820922852,-3.1220390796661377,9.066842079162598,-14.739990234375,2.7923583984375,-25.3753662109375
14.649999900000001,-1.3958195447921753,-2.918531894683838,8.999804496765137,-21.6064453125,-5.706787109375,-16.845703125
14.6699999,-1.6903064250946045,-2.8107926845550537,9.138668060302734,-16.4947509765625,13.8092041015625,-5.9967041015625
14.6899999,-1.8100165128707886,-2.719813108444214,9.313444137573242,-1.77001953125,21.728515625,0.9307861328125
14.709999900000001,-1.7477672100067139,-2.717418909072876,9.57201862335205,2.6092529296875,6.1798095703125,0.54931640625
14.729999900000001,-1.5705963373184204,-2.9161376953125,9.837775230407715,-6.1187744140625,-0.3204345703125,4.425048828125
14.7499999,-1.359906554222107,-3.3279404640197754,9.976638793945312,-7.5225830078125,-0.67138671875,2.9449462890625
14.7699999,-1.2018892765045166,-3.734954595565796,9.928754806518555,3.5247802734375,-8.36181640625,-14.7857666015625
14.789999900000002,-1.1540051698684692,-3.974374771118164,9.751583099365234,9.735107421875,-8.9111328125,-23.681640625
14.809999900000001,-1.173158884048462,-3.8283286094665527,9.435548782348633,3.6773681640625,0.3204345703125,0.0152587890625
14.8299999,-1.1492167711257935,-3.646369218826294,9.334992408752441,-20.2789306640625,15.2740478515625,36.4227294921875
14.8499999,-1.0678139925003052,-3.552995204925537,9.378087997436523,-26.7486572265625,9.2010498046875,27.16064453125
14.8699999,-0.8738836050033569,-3.667917013168335,9.607931137084961,-2.2125244140625,-4.669189453125,-8.0108642578125
14.889999900000001,-0.6655880808830261,-3.9193081855773926,9.880870819091797,2.13623046875,-5.645751953125,-18.5546875
14.9099999,-0.5722141861915588,-3.9815573692321777,9.93593692779541,-5.584716796875,-10.3607177734375,-12.1612548828125
14.9299999,-0.6009446382522583,-3.866635799407959,9.787496566772461,-5.157470703125,-16.2506103515625,-10.772705078125
14.9499999,-0.7158663272857666,-3.7421371936798096,9.5624418258667,-3.0059814453125,-8.9569091796875,-11.4898681640625
14.969999900000001,-0.8619126081466675,-3.6583402156829834,9.409213066101074,-9.857177734375,-1.6937255859375,-9.6893310546875
14.9899999,-1.0055646896362305,-3.6176388263702393,9.394847869873047,-14.83154296875,-2.8533935546875,-5.950927734375
15.0099999,-1.1180921792984009,-3.56017804145813,9.514557838439941,-10.6658935546875,-10.894775390625,-2.288818359375
15.0299999,-1.2090718746185303,-3.5625722408294678,9.68694019317627,-11.199951171875,-15.289306640625,5.767822265625
15.049999900000001,-1.292868971824646,-3.7038300037384033,9.6989107131958,-11.7950439453125,-17.4560546875,12.1002197265625
15.069999900000001,-1.3694833517074585,-3.936067581176758,9.591172218322754,-10.6658935546875,-11.474609375,9.124755859375
15.0899999,-1.4460978507995605,-4.220977783203125,9.334992408752441,-16.6473388671875,-10.1776123046875,1.4495849609375
15.1099999,-1.5083470344543457,-4.481945514678955,9.009381294250488,-16.8304443359375,-15.655517578125,3.1890869140625
15.129999900000001,-1.5849615335464478,-4.599261283874512,8.7268648147583,-11.0321044921875,-14.5721435546875,3.0364990234375
15.149999900000001,-1.6831238269805908,-4.616020679473877,8.453926086425781,-6.5155029296875,-5.31005859375,-1.4495849609375
15.1699999,-1.7357962131500244,-4.60165548324585,8.374917984008789,-10.498046875,7.9193115234375,0.9765625
15.1899999,-1.8483237028121948,-4.51067590713501,8.681375503540039,-15.07568359375,0.396728515625,-1.8157958984375
15.209999900000001,-1.886630892753601,-4.51067590713501,9.057265281677246,-23.3612060546875,3.60107421875,-0.701904296875
15.229999900000001,-2.0039467811584473,-4.54419469833374,9.437943458557129,-33.7371826171875,-1.28173828125,-3.204345703125
15.2499999,-2.1811177730560303,-4.687847137451172,9.773131370544434,-34.2559814453125,7.38525390625,5.706787109375
15.2699999,-2.3558945655822754,-4.946420669555664,10.02691650390625,-32.04345703125,14.2669677734375,15.3656005859375
15.289999900000002,-2.5498247146606445,-5.34625244140625,10.271124839782715,-34.4085693359375,3.814697265625,8.7738037109375
15.309999900000001,-2.6408045291900635,-5.920860767364502,10.548852920532227,-37.53662109375,-5.7830810546875,-3.4637451171875
15.3299999,-2.6455929279327393,-6.4380083084106445,10.824186325073242,-41.4276123046875,-21.7742919921875,-12.39013671875
15.3499999,-2.5522189140319824,-6.821080684661865,11.142614364624023,-52.703857421875,-37.506103515625,-16.5863037109375
15.3699999,-2.363077163696289,-7.005434036254883,11.240777015686035,-59.14306640625,-54.8553466796875,-15.0299072265625
15.389999900000001,-2.075772762298584,-7.062894821166992,11.03248119354248,-47.0733642578125,-74.5086669921875,-17.547607421875
15.4099999,-1.7310078144073486,-7.1490864753723145,10.599130630493164,-31.6925048828125,-68.78662109375,-28.839111328125
15.4299999,-1.3479355573654175,-7.230489253997803,10.005369186401367,-31.2347412109375,-63.812255859375,-46.661376953125
15.4499999,-0.9552865028381348,-7.280767440795898,9.368511199951172,-41.229248046875,-76.141357421875,-54.473876953125
15.469999900000001,-0.5554547905921936,-7.33583402633667,8.860940933227539,-42.5262451171875,-81.146240234375,-53.7567138671875
15.4899999,-0.1412578970193863,-7.177816867828369,8.33182144165039,-30.364990234375,-67.44384765625,-66.8792724609375
15.5099999,0.2801215946674347,-6.89530086517334,7.8960771560668945,-29.2205810546875,-55.023193359375,-80.7037353515625
15.5299999,0.7038952708244324,-6.449979305267334,7.513004779815674,-37.811279296875,-44.891357421875,-82.8094482421875
15.549999900000001,1.1109095811843872,-5.825092792510986,7.189787864685059,-44.2657470703125,-37.322998046875,-79.9102783203125
15.569999900000001,1.482010841369629,-5.293580055236816,7.079654216766357,-64.971923828125,-34.637451171875,-73.760986328125
15.5899999,1.8076223134994507,-4.98472785949707,6.938396453857422,-86.944580078125,-50.9796142578125,-75.13427734375
15.6099999,2.0374655723571777,-4.841075897216797,6.785167694091797,-78.67431640625,-51.3916015625,-92.529296875
15.629999900000001,2.27209734916687,-5.066130638122559,6.631938934326172,-64.3463134765625,-20.233154296875,-90.9881591796875
15.649999900000001,2.4803929328918457,-5.07570743560791,6.327875137329102,-78.1707763671875,-8.2244873046875,-97.991943359375
15.6699999,2.8179752826690674,-4.927267074584961,5.944802761077881,-96.282958984375,-3.41796875,-101.50146484375
15.6899999,3.2178070545196533,-4.745307922363281,5.430049419403076,-97.686767578125,-3.6468505859375,-78.4759521484375
15.709999900000001,3.6846764087677,-4.438849925994873,4.766855716705322,-52.5970458984375,2.197265625,-77.94189453125
15.729999900000001,4.225766181945801,-3.950432777404785,3.892971992492676,-31.3568115234375,4.638671875,-90.6982421875
15.7499999,5.082890033721924,-3.3877954483032227,2.801215887069702,-42.7093505859375,12.359619140625,-81.2530517578125
15.7699999,6.40927791595459,-2.477998733520508,1.4915876388549805,-31.494140625,15.3961181640625,-80.9783935546875
15.789999900000002,8.451532363891602,-1.357512354850769,0.05985504388809204,8.758544921875,40.52734375,-133.270263671875
15.809999900000001,11.101913452148438,0.08619125932455063,-1.7405846118927002,65.521240234375,112.8082275390625,-202.7130126953125
15.8299999,13.819332122802734,4.273650169372559,-2.432508945465088,25.634765625,237.152099609375,-353.69873046875
15.8499999,16.6420955657959,12.167332649230957,-1.3335703611373901,34.0118408203125,299.407958984375,-351.3031005859375
15.869999900000002,18.880674362182617,22.627599716186523,0.9888052940368652,55.7098388671875,159.8968505859375,-70.2056884765625
15.889999900000001,19.57020378112793,33.16687774658203,4.189853191375732,-37.4603271484375,46.1578369140625,164.3829345703125
15.9099999,16.519990921020508,38.728607177734375,7.297526836395264,159.5611572265625,84.5947265625,326.59912109375
15.9299999,8.583212852478027,34.30891036987305,12.047622680664062,447.662353515625,220.5810546875,489.9749755859375
15.9499999,-4.141968727111816,20.04904556274414,18.169597625732422,37.994384765625,120.1629638671875,417.4652099609375
15.969999900000001,-18.009185791015625,0.43335050344467163,24.995466232299805,-500,-161.7889404296875,231.9183349609375
15.9899999,-28.239608764648438,-25.325864791870117,29.187713623046875,-128.47900390625,-180.694580078125,361.0076904296875
16.0099999,-31.972169876098633,-40.72297668457031,31.263484954833984,413.8946533203125,145.2484130859375,-2.197265625
16.0299999,-29.33136558532715,-45.295902252197266,26.958711624145508,187.4237060546875,-21.6064453125,-323.211669921875
16.0499999,-22.215797424316406,-39.346309661865234,21.93328094482422,14.9078369140625,-161.9720458984375,36.2091064453125
16.0699999,-15.076288223266602,-25.086444854736328,14.022839546203613,48.3856201171875,-231.3232421875,182.708740234375
16.089999900000002,-8.741230010986328,-12.84968090057373,6.847416877746582,37.994384765625,-164.9169921875,105.194091796875
16.109999900000002,-4.438849925994873,-5.501875400543213,1.158793568611145,13.397216796875,-89.019775390625,-0.946044921875
16.1299999,-1.7190368175506592,-2.099714994430542,-1.3551181554794312,2.5482177734375,-119.68994140625,-6.2713623046875
16.1499999,-0.14604631066322327,-0.5626373887062073,-1.0989385843276978,-34.576416015625,-175.4302978515625,24.23095703125
16.1699999,0.5434837937355042,-0.1364694982767105,0.4357447028160095,-55.084228515625,-179.0008544921875,35.21728515625
16.1899999,0.6703764796257019,-0.6416460275650024,1.9943699836730957,-47.8363037109375,-137.02392578125,14.8162841796875
16.2099999,0.5650315880775452,-1.5634137392044067,3.2082302570343018,-39.8101806640625,-81.207275390625,-16.9830322265625
16.2299999,0.6368576288223267,-2.5522189140319824,3.9863457679748535,2.7008056640625,-66.6046142578125,-12.3138427734375
16.249999900000002,0.9026140570640564,-3.2106244564056396,4.649539470672607,25.482177734375,-85.052490234375,7.171630859375
16.269999900000002,1.3718775510787964,-3.641580820083618,5.128379821777344,18.37158203125,-83.7554931640625,16.7236328125
16.2899999,1.9297266006469727,-4.05817174911499,5.374982833862305,3.96728515625,-50.3997802734375,18.2952880859375
16.3099999,2.470816135406494,-4.4292731285095215,5.415684223175049,-0.9002685546875,-31.4788818359375,9.82666015625
16.3299999,2.983175277709961,-4.558559894561768,5.322310447692871,18.1732177734375,-27.984619140625,-3.0517578125
16.3499999,3.4165258407592773,-4.477157115936279,5.185841083526611,35.15625,0.42724609375,-2.5177001953125
16.3699999,3.7612907886505127,-4.252102375030518,4.9799394607543945,10.3759765625,24.5361328125,13.0767822265625
16.3899999,3.9025487899780273,-4.1874589920043945,4.795586109161377,-32.28759765625,19.073486328125,8.3160400390625
16.4099999,4.041412353515625,-4.431667327880859,4.977545261383057,-76.84326171875,4.2724609375,-2.777099609375
16.429999900000002,4.055777549743652,-4.584896087646484,5.236119270324707,-46.875,-7.415771484375,-10.43701171875
16.4499999,4.060565948486328,-4.884171485900879,5.6455278396606445,-26.5655517578125,-12.51220703125,1.46484375
16.4699999,3.931279182434082,-5.07570743560791,5.664681434631348,-24.566650390625,12.3138427734375,-2.6702880859375
16.4899999,3.687070608139038,-5.0254292488098145,5.492298603057861,-1.739501953125,61.82861328125,-30.70068359375
16.5099999,3.3877954483032227,-4.982333660125732,5.236119270324707,-39.4439697265625,71.533203125,-7.965087890625
16.5299999,3.114856481552124,-5.037400245666504,5.214571475982666,-14.6026611328125,76.141357421875,24.0936279296875
16.5499999,3.021482467651367,-5.073313236236572,5.602431774139404,-3.9825439453125,56.854248046875,22.857666015625
16.5699999,3.069366693496704,-5.279214859008789,6.2632317543029785,-15.716552734375,37.1856689453125,7.7972412109375
16.589999900000002,3.19865345954895,-5.52821159362793,6.988674640655518,-36.956787109375,18.2037353515625,14.22119140625
16.609999900000002,3.268085241317749,-5.66228723526001,7.393294811248779,-76.080322265625,-23.895263671875,30.2276611328125
16.6299999,3.1268274784088135,-5.284003257751465,7.113173484802246,-57.9681396484375,-37.29248046875,27.8778076171875
16.6499999,2.985569477081299,-5.078101634979248,7.003039836883545,-64.1632080078125,36.6668701171875,53.3905029296875
16.6699999,2.6839001178741455,-4.98472785949707,6.337451934814453,-45.4559326171875,42.755126953125,87.6922607421875
16.6899999,2.5689783096313477,-5.408501625061035,6.009446144104004,-13.1988525390625,26.8096923828125,79.925537109375
16.7099999,2.513911724090576,-6.0836663246154785,5.87776517868042,3.021240234375,71.868896484375,48.7060546875
16.7299999,2.5785553455352783,-6.950367450714111,5.947196960449219,-8.8653564453125,77.728271484375,51.6357421875
16.749999900000002,2.676717519760132,-7.692570209503174,6.375759124755859,-36.468505859375,50.6744384765625,60.546875
16.769999900000002,2.695871114730835,-8.190564155578613,6.998251438140869,-20.2789306640625,38.87939453125,26.8402099609375
16.7899999,2.5761611461639404,-8.413225173950195,7.577648162841797,17.4407958984375,34.5611572265625,-14.4500732421875
16.8099999,2.2385785579681396,-8.377311706542969,7.728483200073242,25.8331298828125,25.7568359375,-5.6304931640625
16.8299999,1.8842366933822632,-8.339004516601562,7.663839817047119,-10.711669921875,27.5421142578125,29.327392578125
16.8499999,1.4532804489135742,-8.1139497756958,7.24485445022583,8.544921875,34.9578857421875,-0.3814697265625
16.8699999,1.1779472827911377,-7.833827972412109,6.983886241912842,54.168701171875,60.9283447265625,-38.51318359375
16.8899999,1.070208191871643,-7.3693528175354,7.0126166343688965,37.90283203125,78.2928466796875,-30.09033203125
16.9099999,0.9528923034667969,-6.636727333068848,7.249642848968506,-3.3111572265625,50.1251220703125,-15.9149169921875
16.929999900000002,0.7493851184844971,-6.1052141189575195,7.647080421447754,25.2227783203125,34.3780517578125,-4.6844482421875
16.9499999,0.6272808313369751,-5.963956356048584,7.8098859786987305,117.034912109375,57.830810546875,-4.5928955078125
16.9699999,0.29209262132644653,-5.580883979797363,7.752425193786621,187.7899169921875,143.585205078125,-49.8046875
16.9899999,-0.13168109953403473,-4.975151062011719,7.592013359069824,165.71044921875,198.42529296875,-23.7884521484375
17.0099999,-0.5841852426528931,-4.1395745277404785,7.687781810760498,122.2991943359375,158.1878662109375,86.4410400390625
17.0299999,-0.8882488012313843,-3.550601005554199,8.26239013671875,97.0916748046875,105.987548828125,137.5732421875
17.0499999,-1.1635819673538208,-3.3949780464172363,9.205705642700195,104.3701171875,91.1712646484375,61.5386962890625
17.0699999,-1.1683704853057861,-3.8379054069519043,10.11550235748291,48.2330322265625,25.7720947265625,31.8756103515625
17.089999900000002,-1.1563993692398071,-4.501099109649658,10.831368446350098,8.544921875,-11.962890625,66.192626953125
17.109999900000002,-1.2306196689605713,-5.161899089813232,11.166556358337402,54.3060302734375,14.404296875,65.91796875
17.1299999,-1.3742717504501343,-5.604825973510742,11.106701850891113,103.57666015625,28.106689453125,30.731201171875
17.1499999,-1.5610195398330688,-5.652710437774658,10.888829231262207,100.494384765625,22.705078125,13.9923095703125
17.1699999,-1.7741034030914307,-5.0685248374938965,10.572794914245605,85.8612060546875,23.2086181640625,36.2396240234375
17.1899999,-1.9704279899597168,-4.2975921630859375,10.280701637268066,90.63720703125,30.5023193359375,67.44384765625
17.2099999,-2.0422539710998535,-3.6559460163116455,9.99100399017334,112.48779296875,28.3203125,64.2242431640625
17.2299999,-1.9393033981323242,-3.1052796840667725,9.706093788146973,110.076904296875,19.561767578125,14.09912109375
17.249999900000002,-1.7166426181793213,-2.5330653190612793,9.509769439697266,60.36376953125,21.8658447265625,-12.5579833984375
17.269999900000002,-1.4532804489135742,-1.889025092124939,9.684545516967773,24.749755859375,33.7066650390625,29.2816162109375
17.2899999,-1.192312479019165,-1.4532804489135742,9.986215591430664,45.59326171875,5.126953125,73.455810546875
17.3099999,-0.9816226959228516,-1.2761094570159912,10.302249908447266,92.254638671875,-21.2554931640625,52.30712890625
17.3299999,-0.8092401623725891,-1.4197616577148438,10.338163375854492,84.3658447265625,-5.340576171875,15.0146484375
17.3499999,-0.7086837291717529,-1.4939818382263184,10.113107681274414,42.7703857421875,27.2369384765625,-4.547119140625
17.3699999,-0.8595184087753296,-1.460463047027588,10.08437728881836,50.29296875,47.7447509765625,3.8299560546875
17.3899999,-0.9289502501487732,-1.2617442607879639,9.950302124023438,118.1640625,21.942138671875,15.289306640625
17.409999900000003,-1.2210428714752197,-0.9409212470054626,10.079588890075684,93.20068359375,2.593994140625,-21.6827392578125
17.429999900000002,-1.2856862545013428,-0.40940847992897034,10.17296314239502,64.4378662109375,48.1719970703125,-24.4140625
17.4499999,-1.3838485479354858,0.2825157940387726,10.307038307189941,57.18994140625,44.0216064453125,-11.627197265625
17.4699999,-1.460463047027588,0.8571242094039917,10.556035041809082,61.9964599609375,9.2315673828125,-4.2572021484375
17.4899999,-1.455674648284912,1.2018892765045166,10.776301383972168,44.952392578125,-12.7410888671875,-12.2833251953125
17.5099999,-1.3646949529647827,1.4317326545715332,10.72602367401123,11.383056640625,-5.92041015625,-27.557373046875
17.5299999,-1.37906014919281,1.7621324062347412,10.333374977111816,-4.08935546875,6.011962890625,-31.55517578125
17.5499999,-1.3934253454208374,2.0446481704711914,10.038887977600098,18.49365234375,14.9383544921875,5.645751953125
17.5699999,-1.4700398445129395,2.2625205516815186,9.967061996459961,42.6025390625,19.71435546875,36.346435546875
17.589999900000002,-1.6639702320098877,2.2912509441375732,9.885659217834473,38.9251708984375,-4.058837890625,11.260986328125
17.609999900000002,-1.7381904125213623,2.2242133617401123,9.890447616577148,15.56396484375,-1.46484375,2.1820068359375
17.6299999,-1.778891921043396,2.3247697353363037,9.849745750427246,0.244140625,24.0936279296875,16.3726806640625
17.6499999,-1.8411411046981812,2.5929205417633057,9.670180320739746,10.498046875,15.777587890625,23.5137939453125
17.6699999,-1.9153614044189453,2.786850690841675,9.730035781860352,6.04248046875,11.688232421875,24.9176025390625
17.6899999,-1.9321208000183105,2.9328970909118652,9.86650562286377,-9.6588134765625,21.881103515625,28.2745361328125
17.7099999,-1.9728221893310547,2.978386878967285,9.816226959228516,-19.4091796875,16.021728515625,28.80859375
17.7299999,-1.821987509727478,2.7676970958709717,9.773131370544434,-33.7982177734375,24.9786376953125,37.4603271484375
17.749999900000002,-1.6711528301239014,2.7102363109588623,9.588777542114258,-30.4107666015625,35.7666015625,19.287109375
17.769999900000002,-1.4628572463989258,2.5713725090026855,9.421183586120605,-16.4947509765625,34.3475341796875,11.871337890625
17.7899999,-1.2976573705673218,2.3798365592956543,9.481039047241211,-22.125244140625,35.0341796875,26.1077880859375
17.8099999,-1.292868971824646,2.3104045391082764,9.679757118225098,3.9520263671875,28.961181640625,22.5830078125
17.8299999,-1.3862427473068237,2.121262788772583,9.99100399017334,39.154052734375,19.2413330078125,22.003173828125
17.8499999,-1.5514427423477173,1.9632453918457031,10.321403503417969,60.6231689453125,10.4827880859375,29.5257568359375
17.8699999,-1.7477672100067139,1.9704279899597168,10.556035041809082,87.4176025390625,-0.640869140625,32.89794921875
17.8899999,-1.9752163887023926,2.0638017654418945,10.60152530670166,128.631591796875,-2.3345947265625,32.0587158203125
17.909999900000003,-2.1571757793426514,2.3104045391082764,10.350133895874023,172.607421875,-6.683349609375,39.0472412109375
17.929999900000002,-2.343923568725586,2.741360902786255,9.895236015319824,189.1326904296875,14.09912109375,15.9149169921875
17.9499999,-2.473210334777832,3.134010076522827,9.375694274902344,132.1563720703125,42.0074462890625,26.7791748046875
17.9699999,-2.5043349266052246,3.711012601852417,8.595184326171875,85.2203369140625,7.720947265625,14.8468017578125
17.9899999,-2.454056739807129,4.05817174911499,7.920019149780273,14.0228271484375,12.3748779296875,-3.7841796875
18.0099999,-2.360682964324951,4.309563159942627,7.357381820678711,-65.765380859375,38.7420654296875,1.220703125
18.0299999,-2.274491548538208,4.3861775398254395,7.089231014251709,-66.162109375,61.004638671875,-5.0201416015625
18.0499999,-2.279279947280884,4.335899353027344,7.283161640167236,-25.69580078125,47.9736328125,-1.40380859375
18.0699999,-2.3798365592956543,4.395754337310791,7.738059997558594,-8.1634521484375,29.6630859375,-6.7291259765625
18.089999900000002,-2.6168625354766846,4.225766181945801,8.35097599029541,15.472412109375,37.872314453125,-7.965087890625
18.109999900000002,-2.9017724990844727,4.127603530883789,8.789113998413086,20.99609375,24.0325927734375,-27.9083251953125
18.1299999,-3.1723172664642334,4.0533833503723145,9.10993766784668,6.4544677734375,1.495361328125,-42.5567626953125
18.1499999,-3.383007049560547,4.156333923339844,9.102754592895508,61.1724853515625,-8.941650390625,-25.8636474609375
18.1699999,-3.512293815612793,4.395754337310791,8.803479194641113,125.213623046875,0.762939453125,0.8544921875
18.1899999,-3.6391866207122803,4.520252704620361,8.396465301513672,122.6959228515625,25.8636474609375,11.962890625
18.2099999,-3.840299606323242,4.630385875701904,8.121131896972656,22.4761962890625,22.5830078125,-5.9661865234375
18.2299999,-3.9671921730041504,4.764461517333984,7.905653953552246,-66.2841796875,-9.1400146484375,-30.8837890625
18.249999900000002,-4.055777549743652,4.9799394607543945,7.46033239364624,13.214111328125,-17.486572265625,-7.7056884765625
18.269999900000002,-4.0533833503723145,5.348646640777588,7.16584587097168,81.9549560546875,40.3289794921875,22.7508544921875
18.2899999,-4.048594951629639,5.506663799285889,6.789956092834473,62.3321533203125,64.4073486328125,24.3988037109375
18.3099999,-4.1395745277404785,5.430049419403076,6.665457725524902,37.6434326171875,38.2080078125,17.608642578125
18.3299999,-4.326322555541992,5.272032260894775,6.794744491577148,22.1405029296875,25.909423828125,0.396728515625
18.3499999,-4.522646903991699,5.161899089813232,6.842628479003906,19.95849609375,39.0625,-8.48388671875
18.3699999,-4.7189717292785645,5.207388877868652,6.818686485290527,22.0184326171875,63.323974609375,-7.7972412109375
18.3899999,-4.876988887786865,5.372588634490967,6.967126846313477,41.4276123046875,68.84765625,-7.14111328125
18.409999900000003,-4.994304656982422,5.57370138168335,7.103596210479736,41.0614013671875,26.79443359375,-11.53564453125
18.429999900000002,-5.082890033721924,5.631162166595459,7.261613845825195,27.64892578125,2.2430419921875,-10.498046875
18.4499999,-5.092466831207275,5.738901615142822,7.096413612365723,1.922607421875,6.28662109375,-19.8822021484375
18.4699999,-5.054159641265869,5.724536418914795,6.813898086547852,2.8533935546875,19.4244384765625,-15.960693359375
18.4899999,-5.020640850067139,5.65031623840332,6.332663536071777,56.8084716796875,13.1988525390625,2.105712890625
18.5099999,-4.987122058868408,5.51624059677124,5.990292549133301,20.32470703125,2.1209716796875,-9.4146728515625
18.5299999,-5.015852451324463,5.307945251464844,5.750872611999512,-52.8717041015625,4.8828125,-25.2685546875
18.5499999,-5.039794445037842,5.145139217376709,5.614402770996094,-68.05419921875,7.8582763671875,-26.763916015625
18.5699999,-5.073313236236572,5.061342239379883,5.66228723526001,-75.0732421875,2.899169921875,-22.39990234375
18.589999900000002,-5.058948040008545,4.982333660125732,5.7772088050842285,-67.87109375,-5.06591796875,-17.181396484375
18.609999900000002,-5.013458251953125,4.9152960777282715,5.990292549133301,-77.7587890625,-3.7384033203125,-22.9339599609375
18.6299999,-4.955997467041016,4.72376012802124,6.129156112670898,-69.5648193359375,-1.708984375,-24.4293212890625
18.6499999,-4.896142482757568,4.438849925994873,6.311115741729736,-40.3594970703125,11.0015869140625,-21.575927734375
18.6699999,-4.908113479614258,4.225766181945801,6.596025466918945,-53.40576171875,12.176513671875,-22.186279296875
18.6899999,-4.934449672698975,4.019864559173584,6.830657482147217,-32.379150390625,-2.044677734375,-19.2108154296875
18.7099999,-5.003881454467773,3.9240965843200684,6.9240312576293945,32.5775146484375,-11.0321044921875,-11.077880859375
18.7299999,-5.04218864440918,4.003105163574219,6.981492042541504,99.334716796875,29.8919677734375,-5.3863525390625
18.749999900000002,-5.125985622406006,4.268861770629883,7.024587631225586,134.1400146484375,40.802001953125,7.38525390625
18.769999900000002,-5.145139217376709,4.553771495819092,6.890512466430664,168.9605712890625,8.087158203125,23.0560302734375
18.7899999,-5.154716491699219,4.879383087158203,6.799532890319824,151.702880859375,-2.1514892578125,22.76611328125
18.8099999,-5.118803024291992,5.2672438621521,6.469132900238037,71.77734375,9.6588134765625,17.8985595703125
18.8299999,-5.058948040008545,5.750872611999512,6.038176536560059,26.153564453125,5.2490234375,25.6195068359375
18.8499999,-4.9368438720703125,6.392518520355225,5.664681434631348,46.81396484375,4.9285888671875,43.6248779296875
18.8699999,-4.78122091293335,7.103596210479736,5.262455463409424,41.6259765625,-3.4332275390625,65.826416015625
18.8899999,-4.58968448638916,7.826645374298096,4.970362663269043,-1.4801025390625,0.6561279296875,77.8350830078125
18.909999900000003,-4.398148536682129,8.47547435760498,4.78122091293335,-4.6844482421875,11.2762451171875,88.9129638671875
18.929999900000002,-4.23773717880249,8.892065048217773,4.517858505249023,7.8125,-6.4239501953125,97.259521484375
18.9499999,-4.144362926483154,9.196128845214844,4.513070106506348,10.528564453125,5.67626953125,72.69287109375
18.9699999,-4.0964789390563965,9.363722801208496,4.548983097076416,26.9775390625,35.3851318359375,64.910888671875
18.9899999,-4.031835556030273,9.425971984863281,4.505887508392334,29.937744140625,30.975341796875,88.043212890625
19.0099999,-4.005499362945557,9.526528358459473,4.707000732421875,-9.21630859375,34.820556640625,100.2655029296875
19.0299999,-4.005499362945557,9.536105155944824,5.161899089813232,-61.46240234375,34.1796875,97.2900390625
19.0499999,-4.003105163574219,9.32541561126709,5.765237808227539,-67.68798828125,8.97216796875,100.1129150390625
19.0699999,-3.995922565460205,8.851364135742188,6.471527099609375,-38.63525390625,-5.4168701171875,112.8082275390625
19.089999900000002,-3.892971992492676,8.327033042907715,6.9695210456848145,19.2413330078125,-0.48828125,125.5035400390625
19.109999900000002,-3.73016619682312,7.86734676361084,7.134721279144287,53.955078125,18.85986328125,135.0555419921875
19.1299999,-3.5242648124694824,7.687781810760498,7.127538681030273,65.1092529296875,38.26904296875,138.1378173828125
19.1499999,-3.332728862762451,7.711723804473877,7.022193431854248,75.6988525390625,28.594970703125,141.7694091796875
19.1699999,-3.138798475265503,7.85537576675415,6.799532890319824,78.2470703125,16.2811279296875,137.2222900390625
19.1899999,-2.913743495941162,8.032546997070312,6.433219909667969,64.9871826171875,24.1241455078125,126.5716552734375
19.2099999,-2.6240451335906982,8.195352554321289,5.894524574279785,46.5850830078125,38.14697265625,117.9351806640625
19.2299999,-2.315192937850952,8.365341186523438,5.2672438621521,39.61181640625,40.557861328125,108.642578125
19.249999900000002,-1.987187385559082,8.585607528686523,4.730942726135254,31.0211181640625,34.7137451171875,103.790283203125
19.269999900000002,-1.702277421951294,8.734047889709473,4.302380561828613,28.9459228515625,37.65869140625,105.133056640625
19.2899999,-1.4317326545715332,8.846575736999512,4.010287761688232,43.8690185546875,43.1060791015625,105.3314208984375
19.3099999,-1.0893617868423462,8.920795440673828,3.6559460163116455,36.56005859375,37.7349853515625,100.4486083984375
19.3299999,-0.7350199222564697,8.918401718139648,3.318363666534424,-5.7830810546875,43.5028076171875,97.4578857421875
19.3499999,-0.33997663855552673,8.899248123168945,2.9544448852539062,-18.7530517578125,59.7686767578125,86.517333984375
19.3699999,0.028730420395731926,8.851364135742188,2.7006595134735107,-18.6767578125,68.54248046875,63.812255859375
19.3899999,0.3519476354122162,8.848969459533691,2.516305923461914,-32.9132080078125,67.2454833984375,51.0711669921875
19.409999900000003,0.6057330369949341,8.99740982055664,2.5713725090026855,-58.16650390625,77.484130859375,45.4864501953125
19.429999900000002,0.7972691655158997,9.258378028869629,2.8562827110290527,-78.3233642578125,91.156005859375,50.2166748046875
19.4499999,0.9289502501487732,9.555258750915527,3.1914708614349365,-49.4537353515625,79.9713134765625,64.3463134765625
19.4699999,0.9768342971801758,9.763554573059082,3.6607344150543213,-17.303466796875,72.906494140625,67.8253173828125
19.4899999,0.9481038451194763,9.775525093078613,4.113238334655762,-9.765625,76.202392578125,60.6231689453125
19.5099999,0.8690952062606812,9.603142738342285,4.357447147369385,-4.1656494140625,70.1751708984375,66.253662109375
19.5299999,0.7326257228851318,9.402029991149902,4.575319290161133,2.9296875,66.22314453125,68.3746337890625
19.5499999,0.5434837937355042,9.279925346374512,4.874594688415527,9.58251953125,64.0411376953125,62.5
19.5699999,0.35913026332855225,9.160215377807617,5.094861030578613,9.0484619140625,50.140380859375,61.82861328125
19.589999900000002,0.19871874153614044,9.071630477905273,5.20978307723999,-7.8277587890625,40.1153564453125,68.4051513671875
19.609999900000002,0.1364694982767105,8.96149730682373,5.16429328918457,-40.8172607421875,40.2679443359375,71.2432861328125
19.6299999,0.15562310814857483,8.753201484680176,4.977545261383057,-46.295166015625,41.93115234375,62.957763671875
19.6499999,0.22505496442317963,8.492233276367188,4.831499099731445,-12.542724609375,37.9638671875,48.248291015625
19.6699999,0.31124621629714966,8.192957878112793,4.824316501617432,-2.3193359375,38.6810302734375,53.680419921875
19.6899999,0.3902548849582672,7.793126583099365,5.066130638122559,-13.18359375,43.1365966796875,66.3909912109375
19.7099999,0.4884171485900879,7.316680431365967,5.276820659637451,19.5465087890625,46.9512939453125,82.21435546875
19.7299999,0.6560112833976746,6.878541469573975,5.386953830718994,46.173095703125,40.6036376953125,81.4056396484375
19.749999900000002,0.8379706144332886,6.567295074462891,5.384559631347656,18.1884765625,29.8614501953125,59.99755859375
19.769999900000002,1.05105459690094,6.354211330413818,5.154716491699219,25.5584716796875,30.731201171875,66.4215087890625
19.7899999,1.2258312702178955,6.268020153045654,4.8722004890441895,53.558349609375,45.95947265625,70.556640625
19.8099999,1.3718775510787964,6.1985883712768555,4.637568473815918,30.1055908203125,55.8929443359375,62.31689453125
19.8299999,1.45806884765625,6.102819919586182,4.503493309020996,3.204345703125,46.1578369140625,46.0662841796875
19.8499999,1.501164436340332,6.066906929016113,4.503493309020996,34.5916748046875,46.966552734375,38.57421875
19.8699999,1.4987702369689941,5.96874475479126,4.685452938079834,38.3453369140625,42.236328125,44.7235107421875
19.8899999,1.4939818382263184,5.638344764709473,4.819528102874756,21.4996337890625,17.2882080078125,30.8074951171875
19.909999900000003,1.4508862495422363,5.212177276611328,5.039794445037842,17.547607421875,15.7318115234375,-10.2691650390625
19.929999900000002,1.4532804489135742,4.793191909790039,5.173870086669922,-33.3099365234375,2.13623046875,-42.1142578125
19.9499999,1.4101848602294922,4.292803764343262,5.310339450836182,-130.035400390625,-44.6319580078125,-57.281494140625
19.9699999,1.434126853942871,4.532223701477051,5.353435039520264,-173.1414794921875,-16.5557861328125,-60.3485107421875
19.9899999,1.3742717504501343,5.03021764755249,5.475539207458496,11.260986328125,52.5665283203125,-46.7529296875
20.0099999,1.4053963422775269,5.702988624572754,5.657498836517334,154.0679931640625,98.4649658203125,-5.5999755859375
20.0299999,1.3096283674240112,6.509834289550781,5.920860767364502,127.410888671875,53.16162109375,-6.5155029296875
20.0499999,1.194706678390503,6.938396453857422,6.179434776306152,136.7950439453125,41.6717529296875,-8.1024169921875
20.0699999,0.9696516990661621,7.158663272857666,6.485892295837402,148.0865478515625,43.0450439453125,-16.0980224609375
20.089999900000002,0.6727706789970398,7.254431247711182,6.737283706665039,89.9658203125,22.5830078125,-21.4996337890625
20.109999900000002,0.3711012601852417,7.261613845825195,6.777985095977783,65.093994140625,-14.9078369140625,-9.6893310546875
20.1299999,0.031124621629714966,7.275979042053223,6.864176273345947,63.262939453125,-32.745361328125,-8.697509765625
20.1499999,-0.35434186458587646,7.3023152351379395,6.845022678375244,55.755615234375,-41.534423828125,-18.1732177734375
