# Time (seconds),Accel_X,Accel_Y,Accel_Z,Gyro_X,Gyro_Y,Gyro_Z
0.0099999,0.9265560507774353,9.761159896850586,-3.2609026432037354,5.8441162109375,-20.9197998046875,-22.7813720703125
0.029999900000000003,0.9241618514060974,9.732429504394531,-3.428496837615967,0.732421875,-16.815185546875,-19.378662109375
0.0499999,0.9265560507774353,9.679757118225098,-3.5482068061828613,-3.936767578125,-8.026123046875,-6.6375732421875
0.0699999,0.9433154463768005,9.528923034667969,-3.5889084339141846,-13.031005859375,-0.9765625,4.5928955078125
0.08999990000000001,0.9840168952941895,9.239224433898926,-3.4332852363586426,-43.121337890625,3.326416015625,9.674072265625
0.10999990000000001,1.0342950820922852,8.89445972442627,-3.136404275894165,-56.5032958984375,3.0364990234375,7.4310302734375
0.1299999,1.1061211824417114,8.674192428588867,-2.676717519760132,-41.473388671875,-0.4425048828125,-0.030517578125
0.14999990000000002,1.1875240802764893,8.719682693481445,-2.2409727573394775,-12.7105712890625,-6.0882568359375,-5.3253173828125
0.1699999,1.2737152576446533,8.990227699279785,-1.889025092124939,-4.0435791015625,-12.1612548828125,-0.5645751953125
0.1899999,1.3335703611373901,9.351752281188965,-1.7166426181793213,-6.500244140625,-12.9241943359375,8.1329345703125
0.20999990000000002,1.3670891523361206,9.615114212036133,-1.7262194156646729,9.94873046875,-11.7034912109375,10.3302001953125
0.2299999,1.3527239561080933,9.679757118225098,-1.8387469053268433,32.1502685546875,-9.613037109375,5.8441162109375
0.2499999,1.3048399686813354,9.588777542114258,-1.9800047874450684,36.4227294921875,-7.38525390625,2.6092529296875
0.2699999,1.2306196689605713,9.437943458557129,-2.075772762298584,20.1263427734375,-12.26806640625,5.9967041015625
0.28999990000000003,1.1252747774124146,9.30386734008789,-2.2002713680267334,18.3563232421875,-20.56884765625,8.4075927734375
0.3099999,1.0103530883789062,9.20091724395752,-2.3127987384796143,25.1922607421875,-22.1099853515625,5.2337646484375
0.3299999,0.8810662031173706,9.105149269104004,-2.5067291259765625,19.8974609375,-20.751953125,4.2877197265625
0.34999990000000003,0.7493851184844971,9.01895809173584,-2.7533318996429443,8.148193359375,-18.73779296875,8.758544921875
0.3699999,0.6177040338516235,8.920795440673828,-3.021482467651367,-0.030517578125,-12.8936767578125,11.3677978515625
0.3899999,0.5099649429321289,8.844181060791016,-3.227383852005005,-10.7879638671875,-5.1116943359375,11.8408203125
0.40999990000000003,0.4189853072166443,8.83939266204834,-3.308786630630493,-10.7421875,-1.4190673828125,10.07080078125
0.4299999,0.35673606395721436,8.916007041931152,-3.2393548488616943,2.01416015625,-4.547119140625,7.6904296875
0.4499999,0.304063618183136,9.045293807983398,-3.066972494125366,4.638671875,-10.2996826171875,8.48388671875
0.4699999,0.26815059781074524,9.2033109664917,-2.8347349166870117,9.3841552734375,-11.5509033203125,6.2408447265625
0.4899999,0.21547815203666687,9.301473617553711,-2.7126305103302,18.0206298828125,-12.420654296875,3.0975341796875
0.5099999,0.1628057211637497,9.318233489990234,-2.6599581241607666,27.8778076171875,-7.75146484375,-0.48828125
0.5299999,0.10055647045373917,9.30386734008789,-2.7222073078155518,24.2767333984375,-2.044677734375,-3.448486328125
0.5499999,0.05506663769483566,9.301473617553711,-2.80361008644104,15.472412109375,0.6561279296875,-3.7078857421875
0.5699999,0.0454898327589035,9.334992408752441,-2.853888511657715,8.2855224609375,0.18310546875,0.4425048828125
0.5899998999999999,0.06464344263076782,9.397241592407227,-2.8993782997131348,10.1165771484375,-2.50244140625,4.69970703125
0.6099998999999999,0.1149216815829277,9.428366661071777,-2.918531894683838,10.2081298828125,-1.9989013671875,6.378173828125
0.6299999,0.17956513166427612,9.411606788635254,-2.96162748336792,8.636474609375,0.396728515625,3.0975341796875
0.6499999,0.24420857429504395,9.334992408752441,-2.9688100814819336,4.57763671875,-1.15966796875,0.79345703125
0.6699999,0.31124621629714966,9.244012832641602,-2.9688100814819336,7.537841796875,-8.4991455078125,1.1749267578125
0.6899999,0.363918662071228,9.124302864074707,-2.9305028915405273,16.387939453125,-13.4124755859375,1.495361328125
0.7099999,0.40222588181495667,9.02135181427002,-2.937685489654541,19.3328857421875,-14.3585205078125,0.7171630859375
0.7299998999999999,0.4213795065879822,8.918401718139648,-2.978386878967285,21.759033203125,-13.946533203125,-0.946044921875
0.7499998999999999,0.4141969084739685,8.815450668334961,-3.0861260890960693,12.115478515625,-17.0745849609375,0.213623046875
0.7699999,0.3926490843296051,8.736441612243652,-3.19865345954895,8.2550048828125,-18.6309814453125,-2.3651123046875
0.7899999,0.3495534360408783,8.667010307312012,-3.3255462646484375,5.06591796875,-22.0184326171875,-6.0272216796875
0.8099999,0.28969839215278625,8.635885238647461,-3.512293815612793,11.1236572265625,-23.5137939453125,-7.99560546875
0.8299999,0.2106897532939911,8.652645111083984,-3.778050184249878,20.1263427734375,-17.5018310546875,-7.4310302734375
0.8499998999999999,0.1173158809542656,8.71489429473877,-4.091690540313721,7.9498291015625,-10.955810546875,-3.84521484375
0.8699998999999999,0.023942016065120697,8.789113998413086,-4.398148536682129,-7.2021484375,-6.561279296875,0.1068115234375
0.8899999,-0.05985504388809204,8.801085472106934,-4.599261283874512,-13.4429931640625,-2.0904541015625,3.0517578125
0.9099999,-0.10773907601833344,8.746018409729004,-4.639962673187256,-7.9193115234375,2.5482177734375,0.823974609375
0.9299999,-0.11013327538967133,8.62391471862793,-4.548983097076416,1.220703125,4.974365234375,-4.119873046875
0.9499999,-0.08140286058187485,8.489839553833008,-4.398148536682129,7.6141357421875,1.617431640625,-7.781982421875
0.9699998999999999,-0.026336219161748886,8.44434928894043,-4.24970817565918,9.27734375,-3.0059814453125,-11.199951171875
0.9899998999999999,0.021547814831137657,8.497021675109863,-4.199429988861084,14.5263671875,-4.1961669921875,-11.3677978515625
1.0099999,0.05027823522686958,8.609549522399902,-4.23773717880249,5.0506591796875,-2.0904541015625,-6.0272216796875
1.0299999,0.05985504388809204,8.700529098510742,-4.28322696685791,-12.0849609375,-0.1373291015625,-0.640869140625
1.0499999,0.05027823522686958,8.702922821044922,-4.2975921630859375,-10.19287109375,-4.1961669921875,-2.288818359375
1.0699999,0.026336219161748886,8.647856712341309,-4.252102375030518,9.4757080078125,-11.16943359375,-9.4451904296875
1.0899999,-0.004788403399288654,8.638279914855957,-4.242525577545166,16.9219970703125,-14.373779296875,-12.39013671875
1.1099999,-0.05746084079146385,8.669404029846191,-4.335899353027344,2.9144287109375,-11.688232421875,-3.9520263671875
1.1299999,-0.11252748221158981,8.741230010986328,-4.489128112792969,-8.9263916015625,-5.9661865234375,3.90625
1.1499999,-0.17717093229293823,8.789113998413086,-4.6471452713012695,-4.39453125,-6.1492919921875,2.3651123046875
1.1699998999999999,-0.23942017555236816,8.779537200927734,-4.73573112487793,5.5084228515625,-9.0484619140625,-2.227783203125
1.1899998999999999,-0.2944868206977844,8.791508674621582,-4.778826713562012,9.1705322265625,-7.99560546875,-1.9989013671875
1.2099999,-0.3495534360408783,8.918401718139648,-4.843470096588135,7.4615478515625,-2.0599365234375,3.0517578125
1.2299999,-0.3878606855869293,9.117119789123535,-4.900930881500244,-2.0599365234375,6.378173828125,12.237548828125
1.2499999,-0.4213795065879822,9.193734169006348,-4.903325080871582,-14.95361328125,11.1541748046875,22.4456787109375
1.2699999,-0.42616790533065796,9.047688484191895,-4.766855716705322,-21.331787109375,9.5062255859375,19.2413330078125
1.2899999,-0.3926490843296051,8.664615631103516,-4.522646903991699,-12.6190185546875,1.678466796875,4.5318603515625
1.3099999,-0.3256114423274994,8.233659744262695,-4.271255970001221,-0.6103515625,-7.3394775390625,-8.1634521484375
1.3299999,-0.2322375625371933,7.972691535949707,-4.156333923339844,6.103515625,-10.9405517578125,-9.6588134765625
1.3499999,-0.14844051003456116,7.943961143493652,-4.2090067863464355,8.056640625,-6.4849853515625,-4.364013671875
1.3699999,-0.0933738648891449,8.073247909545898,-4.405331134796143,-6.2408447265625,-0.4119873046875,0.396728515625
1.3899999,-0.05746084079146385,8.274360656738281,-4.553771495819092,-18.1121826171875,7.080078125,-0.152587890625
1.4099999,-0.038307227194309235,8.542511940002441,-4.58968448638916,-28.25927734375,4.0740966796875,0.1373291015625
1.4299998999999999,-0.009576806798577309,8.875306129455566,-4.481945514678955,-33.7371826171875,-2.105712890625,6.2103271484375
1.4499999,0.028730420395731926,9.2033109664917,-4.259284973144531,-31.67724609375,-2.227783203125,13.3819580078125
1.4699999,0.07661445438861847,9.41400146484375,-3.971980571746826,-34.4390869140625,-3.4027099609375,15.0909423828125
1.4899999,0.12449848651885986,9.41639518737793,-3.6822822093963623,-34.9273681640625,-10.80322265625,9.3841552734375
1.5099999,0.15562310814857483,9.282320022583008,-3.4787750244140625,-35.125732421875,-18.7835693359375,3.5552978515625
1.5299999,0.17717093229293823,9.100360870361328,-3.3231520652770996,-41.778564453125,-16.845703125,6.04248046875
1.5499999,0.17956513166427612,8.971074104309082,-3.2321722507476807,-57.2662353515625,-17.608642578125,13.1988525390625
1.5699999,0.15083470940589905,8.923190116882324,-3.155557870864868,-46.417236328125,-22.5830078125,13.7939453125
1.5899999,0.09816227108240128,8.96389102935791,-3.0621838569641113,-15.716552734375,-23.4375,3.997802734375
1.6099999,-0.011971008032560349,9.050082206726074,-2.9975404739379883,1.617431640625,-21.0113525390625,-6.927490234375
1.6299999,-0.14604631066322327,9.150638580322266,-2.9544448852539062,-6.0272216796875,-19.3023681640625,1.8768310546875
1.6499999,-0.31603461503982544,9.17936897277832,-2.9735984802246094,-23.5443115234375,-18.5089111328125,9.70458984375
1.6699999,-0.49320554733276367,9.155426979064941,-2.9975404739379883,-34.5611572265625,-19.8516845703125,7.598876953125
1.6899998999999999,-0.6536170840263367,9.124302864074707,-3.0765492916107178,-61.2640380859375,-17.08984375,9.6435546875
1.7099999,-0.7661445140838623,9.069235801696777,-3.0789434909820557,-96.4508056640625,-8.6517333984375,23.681640625
1.7299999,-0.7565677165985107,9.064447402954102,-2.7892448902130127,-118.682861328125,-5.767822265625,33.87451171875
1.7499999,-0.6584054827690125,9.129091262817383,-2.451662540435791,-75.1495361328125,-15.472412109375,26.8707275390625
1.7699999,-0.5123591423034668,9.167398452758789,-2.0422539710998535,-21.331787109375,-13.97705078125,15.8538818359375
1.7899999,-0.3687070608139038,9.17697525024414,-1.7741034030914307,-18.157958984375,3.35693359375,10.0860595703125
1.8099999,-0.28730419278144836,9.210494041442871,-1.7262194156646729,-30.76171875,3.082275390625,-0.30517578125
1.8299999,-0.2059013396501541,9.301473617553711,-1.7094600200653076,-23.9410400390625,-6.0272216796875,-6.7291259765625
1.8499999,-0.13407529890537262,9.481039047241211,-1.6974890232086182,2.777099609375,-9.5672607421875,-4.08935546875
1.8699999,-0.035913024097681046,9.782708168029785,-1.6855180263519287,9.8724365234375,-7.9345703125,2.4261474609375
1.8899999,0.05746084079146385,10.0580415725708,-1.7094600200653076,12.3138427734375,-7.26318359375,3.35693359375
1.9099999,0.12210428714752197,10.27591323852539,-1.8818424940109253,5.0201416015625,-18.2952880859375,3.6468505859375
1.9299998999999999,0.17956513166427612,10.414777755737305,-2.049436569213867,-28.50341796875,-21.3623046875,11.7340087890625
1.9499999,0.2346317619085312,10.500968933105469,-2.185906171798706,-55.5572509765625,-13.5498046875,30.1971435546875
1.9699999,0.3064578175544739,10.517727851867676,-2.248155355453491,-43.609619140625,-8.60595703125,39.6575927734375
1.9899999,0.40222588181495667,10.42195987701416,-2.140416383743286,-32.89794921875,-7.01904296875,35.1715087890625
2.0099999,0.5530605912208557,10.304644584655762,-1.8148049116134644,-39.5965576171875,1.40380859375,35.9649658203125
2.0299999,0.9744400978088379,10.122684478759766,-0.9983820915222168,-35.4766845703125,12.87841796875,50.506591796875
2.0499999,1.316810965538025,9.883264541625977,-0.3447650372982025,-38.63525390625,-7.6904296875,54.046630859375
2.0699999,1.7956513166427612,9.583989143371582,0.5530605912208557,-31.5704345703125,-22.3541259765625,33.2489013671875
2.0899999,2.027888774871826,9.222464561462402,0.9816226959228516,4.1046142578125,-20.1568603515625,4.4708251953125
2.1099999,1.8698714971542358,9.136273384094238,0.7326257228851318,81.878662109375,-27.9693603515625,-31.524658203125
2.1299999,1.4939818382263184,9.421183586120605,0.09576806426048279,67.1234130859375,-9.002685546875,-21.4996337890625
2.1499999,0.9481038451194763,9.962273597717285,-0.8475474119186401,6.2103271484375,7.26318359375,22.1099853515625
2.1699999,0.4213795065879822,10.457873344421387,-1.8555063009262085,-43.7164306640625,4.1656494140625,51.1474609375
2.1899999,0.090979665517807,10.608707427978516,-2.4133553504943848,-45.5780029296875,19.5159912109375,49.3011474609375
2.2099999,0.05027823522686958,10.438719749450684,-2.494758129119873,-47.119140625,32.257080078125,42.144775390625
2.2299999,0.2537853717803955,10.11789608001709,-2.054224967956543,-24.932861328125,30.6396484375,38.818359375
2.2499999,0.7709329724311829,9.519346237182617,-1.039083480834961,-58.3038330078125,13.916015625,59.7076416015625
2.2699999,1.357512354850769,8.880094528198242,0.07182604819536209,-3.0975341796875,-9.1705322265625,9.5367431640625
2.2899999,1.941697597503662,8.506598472595215,0.8571242094039917,39.1998291015625,-29.0374755859375,-37.384033203125
2.3099999,2.3271639347076416,8.14028549194336,1.3982137441635132,-24.169921875,-15.869140625,-5.462646484375
2.3299999,2.542642116546631,8.494627952575684,1.4652514457702637,-18.890380859375,-10.2081298828125,-11.016845703125
2.3499999,2.494758129119873,9.014169692993164,1.216254472732544,-32.4249267578125,-22.1099853515625,-5.9661865234375
2.3699999,2.279279947280884,9.708487510681152,0.727837324142456,0.9002685546875,-13.5345458984375,8.1787109375
2.3899999,1.941697597503662,10.08437728881836,0.1867477297782898,21.2860107421875,16.5557861328125,23.37646484375
2.4099999,1.5442601442337036,10.24239444732666,-0.42377370595932007,11.505126953125,31.2347412109375,31.2957763671875
2.4299999,1.3862427473068237,10.168174743652344,-0.6416460275650024,-4.5318603515625,29.083251953125,24.688720703125
2.4499999,1.482010841369629,9.90241813659668,-0.4118026793003082,6.103515625,28.38134765625,15.960693359375
2.4699999,1.8602946996688843,9.423578262329102,0.21787235140800476,26.9012451171875,9.0484619140625,8.85009765625
2.4899999,2.3750481605529785,9.006986618041992,0.8858546018600464,29.693603515625,-10.4217529296875,-10.650634765625
2.5099999,2.7437551021575928,8.379706382751465,1.4844050407409668,26.458740234375,-15.13671875,-29.2205810546875
2.5299999,2.96162748336792,7.99184513092041,1.8267759084701538,34.3475341796875,-13.641357421875,-41.534423828125
2.5499999,2.8993782997131348,7.86734676361084,1.8171991109848022,48.065185546875,-10.528564453125,-42.78564453125
2.5699999,2.87064790725708,7.943961143493652,1.7836803197860718,37.689208984375,-19.989013671875,-10.589599609375
2.5899999,2.937685489654541,8.056488990783691,1.7836803197860718,4.608154296875,-18.1884765625,18.7225341796875
2.6099999,3.050212860107422,8.04691219329834,1.845929503440857,39.306640625,4.3182373046875,-1.64794921875
2.6299999,3.224989652633667,7.996633529663086,2.049436569213867,71.502685546875,2.86865234375,-41.1376953125
2.6499999,3.1914708614349365,8.066065788269043,2.1164743900299072,80.9326171875,-23.0865478515625,-74.798583984375
2.6699999,2.911349296569824,8.339004516601562,1.920149803161621,49.74365234375,-50.811767578125,-73.394775390625
2.6899999,2.408566951751709,8.908824920654297,1.2641384601593018,36.56005859375,-52.6580810546875,-58.685302734375
2.7099999,1.802833914756775,9.47146224975586,0.31603461503982544,30.548095703125,-36.56005859375,-41.3970947265625
2.7299999,1.2186486721038818,9.792284965515137,-0.8068459630012512,-18.218994140625,-24.84130859375,-3.7994384765625
2.7499999,0.8044517636299133,9.86889934539795,-1.7549498081207275,-24.0936279296875,-5.43212890625,4.913330078125
2.7699999,0.6871358752250671,9.619902610778809,-2.231395959854126,-30.6396484375,6.439208984375,-1.77001953125
2.7899999,0.7972691655158997,9.138668060302734,-2.233790159225464,-36.956787109375,11.6729736328125,2.471923828125
2.8099999,1.0965443849563599,8.638279914855957,-1.824381709098816,3.60107421875,16.4031982421875,-8.514404296875
2.8299999,1.3623007535934448,8.169015884399414,-1.1659762859344482,31.3262939453125,20.6451416015625,-31.4483642578125
2.8499999,1.479616641998291,7.738059997558594,-0.5554547905921936,0.7476806640625,-4.4403076171875,-24.1546630859375
2.8699999,1.5083470344543457,7.5417351722717285,0.028730420395731926,-1.15966796875,-17.27294921875,-23.49853515625
2.8899999,1.436521053314209,7.666234016418457,0.181959331035614,31.2652587890625,-12.9547119140625,-44.2047119140625
2.9099999,1.278503656387329,7.922413349151611,-0.10773907601833344,10.284423828125,-14.404296875,-25.6805419921875
2.9299999,1.0749965906143188,8.324639320373535,-0.7206547260284424,-51.1627197265625,12.7410888671875,3.936767578125
2.9499999,0.790086567401886,8.62630844116211,-1.4676456451416016,-76.4312744140625,41.0003662109375,16.05224609375
2.9699999,0.4884171485900879,8.719682693481445,-1.9321208000183105,-51.6357421875,62.0880126953125,-18.9666748046875
2.9899999,0.2753331959247589,8.801085472106934,-1.9369091987609863,-31.5704345703125,74.5849609375,-54.8095703125
3.0099999,0.17717093229293823,8.96149730682373,-1.7549498081207275,-39.1387939453125,58.2427978515625,-35.6597900390625
3.0299999,0.05506663769483566,9.210494041442871,-1.5083470344543457,-42.266845703125,60.85205078125,-22.0947265625
3.0499999,0,9.528923034667969,-1.1109095811843872,-92.132568359375,68.8323974609375,-7.537841796875
3.0699999,-0.1149216815829277,9.749189376831055,-0.6847416758537292,-72.784423828125,67.0928955078125,-21.820068359375
3.0899999,-0.272938996553421,9.835380554199219,-0.014365210197865963,-27.069091796875,51.605224609375,-56.9610595703125
3.1099999,-0.395043283700943,9.8784761428833,0.6775590777397156,-47.9278564453125,22.94921875,-61.21826171875
3.1299999,-0.6392518281936646,9.895236015319824,1.0319008827209473,-44.3115234375,-4.7607421875,-63.4307861328125
3.1499999,-0.849941611289978,9.93354320526123,1.2186486721038818,-41.961669921875,19.8974609375,-59.9212646484375
3.1699999,-1.0678139925003052,10.029311180114746,1.3527239561080933,-47.5921630859375,44.00634765625,-36.07177734375
3.1899999,-1.2521674633026123,10.11789608001709,1.6136919260025024,-4.974365234375,12.9241943359375,-35.491943359375
3.2099999,-1.4389152526855469,10.235212326049805,1.6639702320098877,66.253662109375,-67.413330078125,-35.7818603515625
3.2299999,-1.6280571222305298,10.414777755737305,1.522712230682373,91.3238525390625,-80.4595947265625,-26.8402099609375
3.2499999,-1.843535304069519,10.508151054382324,0.9002198576927185,73.66943359375,-41.046142578125,-2.655029296875
3.2699999,-1.9584569931030273,10.579977035522461,0.16998831927776337,50.8880615234375,-13.702392578125,23.590087890625
3.2899999,-1.920149803161621,10.436325073242188,-0.33758243918418884,45.7000732421875,-22.4456787109375,28.656005859375
3.3099999,-1.821987509727478,10.08198356628418,-0.5937620401382446,46.1883544921875,-56.7779541015625,-0.6103515625
3.3299999000000002,-1.6974890232086182,9.744400978088379,-0.6536170840263367,26.4129638671875,-65.399169921875,-33.538818359375
3.3499999,-1.659181833267212,9.38048267364502,-0.7781155705451965,25.32958984375,-45.9747314453125,-33.2794189453125
3.3699999,-1.7190368175506592,9.344569206237793,-1.01753568649292,22.5372314453125,-41.7633056640625,-28.6407470703125
3.3899999,-1.802833914756775,9.488221168518066,-1.37906014919281,5.5694580078125,-42.724609375,-26.18408203125
3.4099999,-1.845929503440857,9.81143856048584,-1.5705963373184204,-30.731201171875,-30.670166015625,-11.627197265625
3.4299999,-1.8914192914962769,10.098742485046387,-1.6543933153152466,-57.6629638671875,-40.283203125,5.889892578125
3.4499999,-1.9057846069335938,10.302249908447266,-1.4460978507995605,-106.8267822265625,-74.5849609375,25.543212890625
3.4699999,-1.8818424940109253,10.335768699645996,-1.0199298858642578,-130.55419921875,-91.49169921875,27.2064208984375
3.4899999,-1.8531121015548706,10.302249908447266,-0.608127236366272,-78.0792236328125,-69.8089599609375,0.4119873046875
3.5099999,-1.6927006244659424,10.170568466186523,0.06703764945268631,-38.2537841796875,-37.933349609375,-26.6265869140625
3.5299999,-1.599326729774475,10.050858497619629,0.43335050344467163,6.011962890625,-48.33984375,-36.8804931640625
3.5499999,-1.5849615335464478,10.132261276245117,0.8092401623725891,28.86962890625,-41.5191650390625,-53.2379150390625
3.5699999,-1.6855180263519287,10.256759643554688,0.6655880808830261,-4.6234130859375,-27.008056640625,-35.4156494140625
3.5899999,-1.9752163887023926,10.429142951965332,0.4357447028160095,-60.1959228515625,-17.1051025390625,-24.322509765625
3.6099999,-2.231395959854126,10.481815338134766,0.29209262132644653,-110.6414794921875,-21.9879150390625,-9.1705322265625
3.6299999,-2.382230758666992,10.335768699645996,0.4596867263317108,-80.7647705078125,-39.215087890625,2.3345947265625
3.6499999,-2.4013843536376953,10.134655952453613,0.9648633003234863,-39.3218994140625,-30.8990478515625,2.227783203125
3.6699999,-2.3056161403656006,10.02691650390625,1.5705963373184204,-48.736572265625,-19.1802978515625,9.5367431640625
3.6899999,-2.296039342880249,9.859322547912598,1.8986018896102905,-84.7930908203125,-31.4788818359375,11.5509033203125
3.7099999,-2.169146776199341,9.737217903137207,2.2697031497955322,-179.931640625,19.53125,8.636474609375
3.7299999,-2.2026655673980713,9.3828763961792,2.477998733520508,-217.8497314453125,37.7044677734375,33.111572265625
3.7499999,-2.094926595687866,8.801085472106934,2.8203697204589844,-197.75390625,-18.798828125,55.9539794921875
3.7699999,-1.9081788063049316,8.370129585266113,3.0861260890960693,-118.0267333984375,6.4849853515625,60.5316162109375
3.7899999,-1.5945383310317993,7.924807548522949,3.687070608139038,50.4608154296875,79.7119140625,23.8189697265625
3.8099999,-1.3192051649093628,7.769184589385986,4.02465295791626,107.8033447265625,63.6138916015625,10.1165771484375
3.8299999000000002,-1.0821791887283325,7.934384346008301,4.402936935424805,88.4552001953125,30.3955078125,3.936767578125
3.8499999,-1.0654197931289673,8.166622161865234,4.4532151222229,51.4984130859375,26.30615234375,7.4310302734375
3.8699999,-1.1971008777618408,8.513781547546387,4.213795185089111,67.1234130859375,38.7115478515625,-1.5869140625
3.8899999,-1.4053963422775269,8.746018409729004,3.8163576126098633,83.4808349609375,42.449951171875,-2.777099609375
3.9099999,-1.6687586307525635,8.738836288452148,3.471592426300049,40.283203125,14.404296875,4.0283203125
3.9299999,-1.941697597503662,8.611943244934082,3.205836057662964,-10.3302001953125,-21.78955078125,-16.876220703125
3.9499999,-2.169146776199341,8.434772491455078,2.9544448852539062,-28.839111328125,-39.459228515625,-33.6151123046875
3.9699999,-2.3582887649536133,8.31985092163086,2.784456491470337,-30.0750732421875,-34.149169921875,-19.805908203125
3.9899999,-2.4420857429504395,8.312667846679688,2.631227731704712,-4.33349609375,-12.4359130859375,-18.3868408203125
4.0099999,-2.4636335372924805,8.389283180236816,2.5522189140319824,11.749267578125,-5.4779052734375,-29.60205078125
4.029999900000001,-2.494758129119873,8.508993148803711,2.540247917175293,12.3748779296875,18.3563232421875,-12.9547119140625
4.0499999,-2.4588451385498047,8.722076416015625,2.5761611461639404,-15.2435302734375,24.1546630859375,-4.5166015625
4.069999900000001,-2.38462495803833,8.9064302444458,2.7293899059295654,-40.9393310546875,21.240234375,1.4801025390625
4.0899999000000005,-2.2840683460235596,9.093177795410156,2.913743495941162,-14.83154296875,19.7601318359375,2.0599365234375
4.1099999,-2.169146776199341,9.20091724395752,3.1890766620635986,-7.75146484375,24.200439453125,2.9144287109375
4.1299999000000005,-2.1332337856292725,9.10993766784668,3.471592426300049,-31.158447265625,24.566650390625,10.0250244140625
4.1499999,-2.1092917919158936,9.030928611755371,3.756502389907837,-38.421630859375,27.313232421875,7.1258544921875
4.1699999000000005,-2.094926595687866,8.920795440673828,4.041412353515625,-33.599853515625,26.0772705078125,1.312255859375
4.1899999,-2.0231003761291504,8.858546257019043,4.378994941711426,-31.6162109375,16.9219970703125,-0.6103515625
4.209999900000001,-2.0374655723571777,8.927978515625,4.596867084503174,-22.2015380859375,1.495361328125,-9.0789794921875
4.2299999,-2.0853497982025146,9.100360870361328,4.766855716705322,-25.3143310546875,-3.570556640625,-9.58251953125
4.249999900000001,-2.319981336593628,9.306262016296387,4.728548526763916,-46.8902587890625,2.0904541015625,3.509521484375
4.2699999,-2.5929205417633057,9.47146224975586,4.572925090789795,-71.5484619140625,8.270263671875,19.5465087890625
4.289999900000001,-2.7772738933563232,9.564835548400879,4.388571739196777,-77.1331787109375,14.7552490234375,24.322509765625
4.3099999,-2.8419175148010254,9.555258750915527,4.201824188232422,-49.835205078125,20.5535888671875,6.8817138671875
4.329999900000001,-2.786850690841675,9.409213066101074,4.137180328369141,-22.552490234375,22.6593017578125,-4.7607421875
4.3499999,-2.669534921646118,9.220070838928223,4.180276393890381,-18.7835693359375,21.6064453125,1.953125
4.369999900000001,-2.5761611461639404,8.939949035644531,4.316745758056641,-35.8123779296875,15.4876708984375,13.0615234375
4.3899999,-2.5043349266052246,8.671798706054688,4.527435302734375,-49.774169921875,16.90673828125,22.308349609375
4.409999900000001,-2.449268341064453,8.429984092712402,4.788403511047363,-48.40087890625,18.49365234375,28.167724609375
4.4299999,-2.408566951751709,8.26478385925293,4.975151062011719,-31.036376953125,4.608154296875,29.3731689453125
4.449999900000001,-2.387019157409668,8.20492935180664,5.080495834350586,-17.2119140625,-2.105712890625,26.702880859375
4.4699999,-2.3247697353363037,8.214506149291992,5.1116204261779785,-11.9476318359375,5.9967041015625,25.0396728515625
4.489999900000001,-2.2577321529388428,8.267178535461426,5.023035049438477,-6.622314453125,5.096435546875,24.35302734375
4.5099999,-2.1571757793426514,8.293514251708984,4.917690277099609,1.800537109375,1.220703125,18.4326171875
4.529999900000001,-2.070984363555908,8.255207061767578,4.843470096588135,2.7313232421875,3.936767578125,12.7105712890625
4.5499999,-2.0183119773864746,8.111555099487305,4.802768707275391,-2.166748046875,0.1678466796875,14.70947265625
4.569999900000001,-1.9704279899597168,7.979874134063721,4.838681697845459,-9.94873046875,-3.9520263671875,11.7950439453125
4.5899999000000005,-1.9105730056762695,7.838616371154785,4.917690277099609,-10.772705078125,-12.9547119140625,10.25390625
4.609999900000001,-1.8315643072128296,7.778761386871338,5.018246650695801,-3.631591796875,-19.7906494140625,8.453369140625
4.6299999000000005,-1.7334020137786865,7.771578788757324,5.073313236236572,-5.06591796875,-24.10888671875,5.8746337890625
4.6499999,-1.556231141090393,7.8745293617248535,5.0876784324646,-33.5235595703125,-22.9949951171875,5.4779052734375
4.6699999000000005,-1.4867992401123047,8.027758598327637,5.039794445037842,-33.5235595703125,-20.660400390625,5.9967041015625
4.6899999,-1.4413094520568848,8.176198959350586,5.032611846923828,-9.5672607421875,-6.7138671875,1.495361328125
4.709999900000001,-1.4173674583435059,8.341399192810059,5.044582843780518,12.14599609375,-9.7198486328125,-1.6326904296875
4.7299999,-1.403002142906189,8.463502883911133,5.104437828063965,12.603759765625,-18.5089111328125,-3.509521484375
4.749999900000001,-1.400607943534851,8.56645393371582,5.149928092956543,8.2855224609375,-20.9503173828125,-0.48828125
4.7699999,-1.3742717504501343,8.643068313598633,5.161899089813232,6.2103271484375,-18.4478759765625,6.622314453125
4.789999900000001,-1.3192051649093628,8.678980827331543,5.135562419891357,2.62451171875,-14.7552490234375,12.6953125
4.8099999,-1.2210428714752197,8.664615631103516,5.1116204261779785,5.6610107421875,-13.0767822265625,15.6097412109375
4.829999900000001,-1.0821791887283325,8.523358345031738,5.173870086669922,4.608154296875,-10.955810546875,22.186279296875
4.8499999,-0.933738648891449,8.300697326660156,5.324704647064209,7.99560546875,-11.8255615234375,25.8941650390625
4.869999900000001,-0.7996633648872375,7.977479934692383,5.5329999923706055,12.6495361328125,-14.34326171875,22.3236083984375
4.8899999,-0.7230489253997803,7.587224960327148,5.717353820800781,9.765625,-18.00537109375,17.486572265625
4.909999900000001,-0.6727706789970398,7.201758861541748,5.815515995025635,3.90625,-18.463134765625,11.0931396484375
4.9299999,-0.6248866319656372,6.907271862030029,5.791574001312256,0.640869140625,-17.5018310546875,2.7313232421875
4.949999900000001,-0.5650315880775452,6.768408298492432,5.6455278396606445,8.575439453125,-20.538330078125,-4.058837890625
4.9699999,-0.49320554733276367,6.775590896606445,5.463568210601807,13.36669921875,-19.7601318359375,-6.6986083984375
4.989999900000001,-0.42856210470199585,6.904877662658691,5.257667064666748,4.119873046875,-18.9056396484375,-9.3536376953125
5.0099999,-0.4213795065879822,7.074865818023682,5.078101634979248,-6.9732666015625,-13.153076171875,-9.27734375
5.029999900000001,-0.4596867263317108,7.223306655883789,4.944026470184326,-13.0462646484375,-5.035400390625,-6.622314453125
5.0499999,-0.5291185975074768,7.354987621307373,4.8722004890441895,-8.2550048828125,4.608154296875,-14.2364501953125
5.069999900000001,-0.6105214357376099,7.443572998046875,4.843470096588135,-7.5836181640625,6.317138671875,-16.05224609375
5.0899999000000005,-0.6919242739677429,7.532158374786377,4.845864295959473,-5.9814453125,6.103515625,-13.5345458984375
5.109999900000001,-0.7422025203704834,7.6351094245910645,4.886565685272217,-8.1024169921875,10.986328125,-8.4381103515625
5.1299999000000005,-0.7781155705451965,7.706935405731201,4.965574264526367,-16.3421630859375,14.4195556640625,-3.1585693359375
5.1499999,-0.7972691655158997,7.711723804473877,5.085284233093262,-22.5372314453125,12.7105712890625,-0.0762939453125
5.1699999000000005,-0.8164227604866028,7.68538761138916,5.214571475982666,-18.1732177734375,8.6517333984375,-5.43212890625
5.1899999,-0.8236053586006165,7.644686222076416,5.384559631347656,-13.641357421875,7.476806640625,-10.43701171875
5.209999900000001,-0.7829039692878723,7.663839817047119,5.5760955810546875,-4.150390625,2.2430419921875,-15.07568359375
5.2299999,-0.7445967197418213,7.750030994415283,5.779603004455566,17.6239013671875,-3.875732421875,-24.444580078125
5.249999900000001,-0.5650315880775452,7.85537576675415,6.165069580078125,38.360595703125,-12.603759765625,-35.5224609375
5.2699999,-0.5602431893348694,8.020575523376465,6.370970726013184,87.6922607421875,-42.022705078125,-59.234619140625
5.289999900000001,-0.6057330369949341,8.267178535461426,6.258443355560303,113.4796142578125,-71.4569091796875,-52.276611328125
5.3099999,-0.790086567401886,8.650250434875488,5.872976779937744,80.56640625,-44.189453125,-32.8521728515625
5.329999900000001,-1.05105459690094,9.035717010498047,5.102043628692627,39.00146484375,-24.4598388671875,-11.8255615234375
5.3499999,-1.237802267074585,9.313444137573242,4.400542736053467,15.7623291015625,-9.33837890625,5.06591796875
5.369999900000001,-1.3096283674240112,9.351752281188965,3.97916316986084,-9.2926025390625,4.852294921875,14.1754150390625
5.3899999,-1.2856862545013428,9.169792175292969,3.9049429893493652,-23.2086181640625,7.476806640625,14.8468017578125
5.409999900000001,-1.1851298809051514,8.87051773071289,4.156333923339844,-26.85546875,6.2103271484375,17.4560546875
5.4299999,-1.015141487121582,8.53293514251709,4.661510944366455,-25.6195068359375,-1.190185546875,14.8468017578125
5.449999900000001,-0.8690952062606812,8.259995460510254,5.161899089813232,-19.2108154296875,-15.5029296875,5.7830810546875
5.4699999,-0.7350199222564697,8.073247909545898,5.571307182312012,-16.510009765625,-21.8658447265625,1.6937255859375
5.489999900000001,-0.6751648783683777,8.027758598327637,5.765237808227539,4.0283203125,-12.51220703125,-2.0904541015625
5.5099999,-0.6488286852836609,8.123526573181152,5.748478412628174,14.6484375,-11.627197265625,-3.2501220703125
5.529999900000001,-0.6607996821403503,8.327033042907715,5.60722017288208,13.092041015625,-16.998291015625,-1.6021728515625
5.5499999,-0.7230489253997803,8.62630844116211,5.355829238891602,16.937255859375,-20.2484130859375,-1.556396484375
5.569999900000001,-0.768538773059845,8.935160636901855,5.161899089813232,9.979248046875,-15.6097412109375,4.21142578125
5.5899999000000005,-0.8092401623725891,9.229647636413574,5.037400245666504,4.058837890625,-12.0849609375,8.7127685546875
5.609999900000001,-0.7924807667732239,9.440337181091309,5.099649429321289,0.42724609375,-17.2119140625,10.711669921875
5.6299999000000005,-0.7876923680305481,9.545681953430176,5.257667064666748,-3.11279296875,-25.4364013671875,12.8631591796875
5.6499999,-0.790086567401886,9.607931137084961,5.3797712326049805,-7.5836181640625,-27.862548828125,12.1612548828125
5.6699999000000005,-0.7757213711738586,9.627084732055664,5.458779811859131,-16.11328125,-19.287109375,13.916015625
5.6899999,-0.7757213711738586,9.588777542114258,5.427655220031738,-16.0064697265625,-12.51220703125,20.721435546875
5.709999900000001,-0.7206547260284424,9.452308654785156,5.293580055236816,-11.1541748046875,-17.1051025390625,25.5584716796875
5.7299999,-0.6248866319656372,9.23682975769043,5.140350818634033,-5.1727294921875,-8.4991455078125,25.0091552734375
5.749999900000001,-0.49320554733276367,8.892065048217773,5.0685248374938965,-5.401611328125,9.185791015625,34.6221923828125
5.7699999,-0.28969839215278625,8.463502883911133,5.197812080383301,-3.4637451171875,5.31005859375,39.5965576171875
5.789999900000001,-0.043095629662275314,8.022970199584961,5.552153587341309,17.608642578125,-8.819580078125,23.3612060546875
5.8099999,0.21547815203666687,7.702147006988525,5.963956356048584,35.6903076171875,-26.0162353515625,0.1678466796875
5.829999900000001,0.35434186458587646,7.582436561584473,6.14831018447876,51.3153076171875,-35.064697265625,-7.14111328125
5.8499999,0.3926490843296051,7.735665798187256,6.054935932159424,56.7626953125,-28.228759765625,0.42724609375
5.869999900000001,0.35673606395721436,8.01339340209961,5.793968200683594,57.6171875,-24.078369140625,6.7596435546875
5.8899999,0.26815059781074524,8.293514251708984,5.442020416259766,61.9964599609375,-31.8450927734375,9.5672607421875
5.909999900000001,0.22266076505184174,8.458714485168457,5.166687488555908,64.02587890625,-34.5458984375,7.9193115234375
5.9299999,0.21787235140800476,8.44434928894043,4.929661273956299,85.0830078125,-31.1431884765625,2.74658203125
5.949999900000001,0.2777273952960968,8.4108304977417,4.654327869415283,126.28173828125,-38.02490234375,-7.537841796875
5.9699999,0.3663128614425659,8.327033042907715,4.280832767486572,143.49365234375,-51.7730712890625,-15.3656005859375
5.989999900000001,0.44771572947502136,8.312667846679688,3.797203779220581,121.673583984375,-52.3681640625,-10.2996826171875
6.0099999,0.5410895943641663,8.305485725402832,3.339911460876465,91.4459228515625,-45.71533203125,4.1656494140625
6.029999900000001,0.5770025849342346,8.47786808013916,2.7724854946136475,121.368408203125,-54.5501708984375,1.6326904296875
6.0499999,0.6440402865409851,8.647856712341309,2.389413356781006,127.9449462890625,-59.4329833984375,0.5950927734375
6.069999900000001,0.6440402865409851,8.889671325683594,1.9823989868164062,112.5335693359375,-59.0362548828125,4.1961669921875
6.0899999000000005,0.5817909836769104,9.153033256530762,1.5179238319396973,107.4371337890625,-60.9588623046875,4.852294921875
6.109999900000001,0.38546648621559143,9.351752281188965,0.8379706144332886,103.1341552734375,-56.976318359375,8.8348388671875
6.1299999000000005,0.16519992053508759,9.495404243469238,0.05027823522686958,76.1566162109375,-40.2679443359375,24.810791015625
6.149999900000001,-0.05027823522686958,9.583989143371582,-0.7757213711738586,49.4232177734375,-13.85498046875,36.4990234375
6.1699999000000005,-0.15801730751991272,9.459490776062012,-1.216254472732544,51.08642578125,-6.5765380859375,29.4952392578125
6.1899999,-0.17956513166427612,9.260771751403809,-1.5514427423477173,82.9620361328125,-46.234130859375,-3.753662109375
6.209999900000001,-0.1412578970193863,8.951920509338379,-1.6136919260025024,97.2137451171875,-35.2325439453125,-7.2479248046875
6.2299999,-0.043095629662275314,8.640673637390137,-1.659181833267212,53.314208984375,11.9171142578125,10.2996826171875
6.249999900000001,0.05985504388809204,8.480262756347656,-1.742978811264038,25.7415771484375,36.5447998046875,14.9688720703125
6.2699999,0.2513911724090576,8.377311706542969,-1.6136919260025024,11.8408203125,42.6025390625,24.6429443359375
6.289999900000001,0.4644751250743866,8.29590892791748,-1.2210428714752197,-12.8936767578125,41.839599609375,38.818359375
6.3099999,0.6943184733390808,8.248024940490723,-0.7709329724311829,-28.38134765625,27.5421142578125,29.449462890625
6.329999900000001,0.9528923034667969,8.20732307434082,-0.3232172429561615,-46.600341796875,13.885498046875,20.721435546875
6.3499999,1.158793568611145,8.224082946777344,-0.0933738648891449,-64.422607421875,2.9144287109375,25.7415771484375
6.369999900000001,1.4197616577148438,8.355764389038086,0.002394201699644327,-110.2294921875,-5.06591796875,48.64501953125
6.3899999,1.6903064250946045,8.422801971435547,0.0454898327589035,-163.6962890625,-19.4854736328125,62.835693359375
6.409999900000001,1.9512743949890137,8.432378768920898,0.12928688526153564,-157.989501953125,-10.8489990234375,42.8466796875
6.4299999,2.250549554824829,8.271966934204102,0.3974374830722809,-143.7530517578125,5.126953125,6.5155029296875
6.449999900000001,2.47560453414917,8.04930591583252,0.6847416758537292,-105.9417724609375,-11.7034912109375,-24.0478515625
6.4699999,2.6839001178741455,7.910442352294922,1.1899182796478271,-64.727783203125,-13.031005859375,-22.1405029296875
6.489999900000001,2.9041666984558105,7.8960771560668945,1.525106430053711,-71.5789794921875,-48.370361328125,-32.8216552734375
6.5099999,2.985569477081299,7.943961143493652,1.8722656965255737,-26.8402099609375,-34.3017578125,-48.2635498046875
6.529999900000001,2.999934673309326,8.030152320861816,1.9800047874450684,2.2125244140625,-20.1568603515625,-54.0008544921875
6.5499999,2.8874073028564453,8.147468566894531,1.8507179021835327,14.0533447265625,-40.771484375,-64.4989013671875
6.569999900000001,2.7006595134735107,8.130708694458008,1.7621324062347412,37.8570556640625,-29.1290283203125,-72.509765625
6.5899999000000005,2.5115175247192383,8.157045364379883,1.5658079385757446,68.8323974609375,-39.306640625,-86.700439453125
6.609999900000001,2.3487119674682617,8.394071578979492,1.192312479019165,70.343017578125,-44.6319580078125,-83.1451416015625
6.6299999000000005,2.1787235736846924,8.489839553833008,0.8858546018600464,54.38232421875,21.42333984375,-32.806396484375
6.649999900000001,2.027888774871826,8.755595207214355,0.5051765441894531,55.3741455078125,37.41455078125,-23.193359375
6.6699999000000005,1.9704279899597168,8.980650901794434,0.2513911724090576,58.3648681640625,18.00537109375,-48.8739013671875
6.6899999,1.900996208190918,9.167398452758789,0.20111294090747833,53.22265625,6.04248046875,-47.8057861328125
6.709999900000001,1.800439715385437,9.519346237182617,0.07182604819536209,21.1639404296875,-15.0146484375,-17.5628662109375
6.7299999,1.6376339197158813,9.86889934539795,-0.05506663769483566,-29.2205810546875,-20.782470703125,15.960693359375
6.749999900000001,1.3670891523361206,10.20648193359375,-0.2801215946674347,-48.370361328125,-8.6517333984375,27.5115966796875
6.7699999,1.2042834758758545,10.38604736328125,-0.304063618183136,-56.5643310546875,8.7890625,30.6396484375
6.789999900000001,1.161187767982483,10.283096313476562,0.016759412363171577,-38.51318359375,15.1519775390625,19.10400390625
6.8099999,1.1204863786697388,10.14902114868164,0.3663128614425659,-8.514404296875,-9.4451904296875,-14.4195556640625
6.829999900000001,1.1468225717544556,9.986215591430664,0.8212111592292786,-30.2886962890625,-22.308349609375,-23.3917236328125
6.8499999,0.7709329724311829,10.0580415725708,1.1180921792984009,-38.57421875,-8.2855224609375,2.0294189453125
6.869999900000001,0.7613561153411865,10.093954086303711,1.158793568611145,-9.124755859375,31.7535400390625,79.437255859375
6.8899999,0.7972691655158997,10.08437728881836,1.2545616626739502,-48.919677734375,51.2237548828125,69.9615478515625
6.909999900000001,1.01753568649292,9.852140426635742,1.3335703611373901,-108.3526611328125,42.6483154296875,-21.66748046875
6.9299999,1.45806884765625,9.457097053527832,1.5729905366897583,-83.8623046875,73.5321044921875,-41.3970947265625
6.949999900000001,1.5753847360610962,9.071630477905273,1.922544002532959,-63.7359619140625,87.2955322265625,-44.158935546875
6.9699999,1.4389152526855469,8.918401718139648,2.233790159225464,-64.9261474609375,91.6748046875,-63.201904296875
6.989999900000001,1.0797849893569946,8.860940933227539,2.580949544906616,-118.3929443359375,81.024169921875,-51.4678955078125
7.0099999,0.569819986820221,9.045293807983398,2.762908697128296,-123.748779296875,72.93701171875,-39.3829345703125
7.029999900000001,-0.05506663769483566,9.41639518737793,2.873042106628418,-54.1534423828125,72.7996826171875,-43.39599609375
7.0499999,-0.629675030708313,9.761159896850586,2.7964274883270264,-29.998779296875,55.450439453125,-22.5830078125
7.069999900000001,-1.1252747774124146,10.062829971313477,2.8395233154296875,-65.85693359375,58.8226318359375,-4.08935546875
7.0899999000000005,-1.3096283674240112,10.04846477508545,3.1052796840667725,-99.9908447265625,38.665771484375,-4.638671875
7.109999900000001,-1.4389152526855469,9.825803756713867,3.4572272300720215,-50.59814453125,-5.5084228515625,-1.220703125
7.1299999000000005,-1.3694833517074585,9.418789863586426,3.909731388092041,-42.510986328125,-17.0440673828125,6.89697265625
7.149999900000001,-1.3503297567367554,9.066842079162598,3.7876269817352295,-48.8433837890625,27.099609375,-22.1710205078125
7.1699999000000005,-1.2880805730819702,8.925583839416504,3.426102638244629,-19.744873046875,147.2015380859375,-63.1561279296875
7.1899999,-1.3886369466781616,8.676587104797363,3.205836057662964,-26.18408203125,231.475830078125,-57.3883056640625
7.209999900000001,-1.5729905366897583,8.523358345031738,3.224989652633667,-125.457763671875,95.245361328125,-119.4610595703125
7.2299999,-2.5330653190612793,8.959102630615234,3.780444383621216,-252.74658203125,-27.2674560546875,-159.881591796875
7.249999900000001,-3.4524388313293457,9.394847869873047,4.371812343597412,-123.96240234375,71.685791015625,8.3770751953125
7.2699999,-4.532223701477051,9.871294021606445,4.46518611907959,-29.815673828125,110.5499267578125,153.25927734375
7.289999900000001,-4.9583916664123535,10.213664054870605,4.764461517333984,-103.790283203125,150.299072265625,145.3857421875
7.3099999,-4.702212333679199,9.734824180603027,4.833893299102783,-138.18359375,113.1439208984375,129.2266845703125
7.329999900000001,-4.108449935913086,8.959102630615234,5.260061264038086,-67.1539306640625,70.61767578125,113.7237548828125
7.3499999,-3.4404678344726562,8.092401504516602,5.959167957305908,-15.045166015625,53.8177490234375,89.5538330078125
7.369999900000001,-2.9927520751953125,7.362170219421387,6.481103897094727,40.313720703125,30.8074951171875,56.0455322265625
7.3899999,-2.7509377002716064,6.854599475860596,6.797138690948486,89.385986328125,9.521484375,37.7197265625
7.409999900000001,-2.63362193107605,6.672640323638916,6.821080684661865,73.2879638671875,12.054443359375,31.67724609375
7.4299999,-2.851494312286377,7.017405033111572,6.603208065032959,62.3016357421875,23.9715576171875,28.045654296875
7.449999900000001,-2.7676970958709717,7.184999465942383,6.0621185302734375,115.386962890625,39.8712158203125,95.39794921875
7.4699999,-2.542642116546631,7.180211067199707,5.30076265335083,106.5521240234375,39.4744873046875,91.705322265625
7.489999900000001,-2.22660756111145,7.0317702293396,4.685452938079834,-26.4739990234375,43.792724609375,-1.8157958984375
7.5099999,-1.6711528301239014,6.682217121124268,4.027047157287598,-42.7093505859375,38.6810302734375,-23.712158203125
7.529999900000001,-1.4915876388549805,6.6127848625183105,3.801992416381836,-32.8826904296875,34.1644287109375,-16.387939453125
7.5499999,-1.50355863571167,6.751648902893066,4.077325344085693,-46.4630126953125,41.9464111328125,-25.0091552734375
7.569999900000001,-1.7142484188079834,7.137115478515625,4.69024133682251,-59.539794921875,33.447265625,-54.6417236328125
7.5899999000000005,-2.094926595687866,7.568071365356445,5.446808815002441,-46.112060546875,9.674072265625,-67.9168701171875
7.609999900000001,-2.425326347351074,8.003816604614258,6.210559368133545,-9.5672607421875,-4.0435791015625,-26.7791748046875
7.6299999000000005,-2.7461493015289307,8.422801971435547,6.646304130554199,27.5115966796875,-6.256103515625,-12.5579833984375
7.649999900000001,-2.849100112915039,8.645462036132812,6.682217121124268,70.2362060546875,-19.3328857421875,-20.0347900390625
7.6699999000000005,-2.849100112915039,8.674192428588867,6.052541732788086,98.5870361328125,-40.7562255859375,-32.16552734375
7.6899999,-2.7772738933563232,8.56884765625,5.252878665924072,15.31982421875,-43.3349609375,-35.980224609375
7.709999900000001,-2.7006595134735107,8.540117263793945,4.462791919708252,-40.252685546875,0.5035400390625,-33.111572265625
7.7299999,-2.674323320388794,8.588001251220703,3.931279182434082,-1.03759765625,0.5645751953125,-22.8729248046875
7.749999900000001,-2.719813108444214,8.731653213500977,3.9839515686035156,3.4332275390625,-9.70458984375,-3.753662109375
7.7699999,-2.8395233154296875,8.975862503051758,4.3406877517700195,10.31494140625,10.8184814453125,20.9197998046875
7.789999900000001,-2.8826189041137695,8.932766914367676,4.857835292816162,20.4925537109375,21.6217041015625,57.18994140625
7.8099999,-2.779668092727661,8.69095230102539,5.152322292327881,49.7283935546875,1.0986328125,62.652587890625
7.829999900000001,-2.537853717803955,8.40843677520752,5.102043628692627,58.04443359375,-12.1002197265625,30.975341796875
7.8499999,-2.1763293743133545,8.054094314575195,4.8722004890441895,6.9427490234375,5.645751953125,16.7999267578125
7.869999900000001,-1.889025092124939,7.848193168640137,4.69024133682251,-44.6929931640625,16.0064697265625,23.4832763671875
7.8899999,-1.7573440074920654,7.910442352294922,4.49870491027832,-0.9307861328125,-0.3204345703125,7.4005126953125
7.909999900000001,-1.7094600200653076,7.838616371154785,4.474762916564941,14.6636962890625,-10.772705078125,1.3275146484375
7.9299999,-1.702277421951294,7.888894557952881,4.481945514678955,-23.01025390625,11.6119384765625,0.18310546875
7.949999900000001,-1.7860745191574097,8.054094314575195,4.173093795776367,-8.97216796875,4.1656494140625,-14.678955078125
7.9699999,-1.886630892753601,8.128314971923828,4.010287761688232,-7.171630859375,2.0294189453125,-16.021728515625
7.989999900000001,-2.0015525817871094,8.31985092163086,4.017470359802246,-11.2152099609375,11.90185546875,-14.984130859375
8.0099999,-2.1045033931732178,8.394071578979492,4.321534156799316,-2.105712890625,2.5177001953125,-14.312744140625
8.0299999,-2.2649147510528564,8.401253700256348,4.6471452713012695,18.2647705078125,-30.94482421875,-24.4903564453125
8.049999900000001,-2.4133553504943848,8.465897560119629,5.123591423034668,-27.557373046875,-61.0504150390625,-26.6876220703125
8.069999900000001,-2.63362193107605,8.667010307312012,5.272032260894775,-44.7998046875,-81.4208984375,-17.8375244140625
8.0899999,-2.9065608978271484,8.920795440673828,5.219359874725342,-0.335693359375,-86.212158203125,-4.4097900390625
8.1099999,-3.160346269607544,9.124302864074707,4.932055473327637,65.399169921875,-78.3843994140625,-25.2227783203125
8.129999900000001,-3.2393548488616943,9.208099365234375,4.5154643058776855,63.262939453125,-81.6497802734375,-17.08984375
8.149999900000001,-3.1196448802948,9.090784072875977,4.091690540313721,33.935546875,-85.51025390625,-3.9825439453125
8.1699999,-2.698265314102173,9.074024200439453,3.7660791873931885,22.39990234375,-59.356689453125,0.2899169921875
8.1899999,-2.0254945755004883,9.02135181427002,3.8163576126098633,15.7928466796875,-33.660888671875,16.265869140625
8.2099999,-1.4484920501708984,8.983044624328613,3.974374771118164,36.0870361328125,-40.802001953125,23.62060546875
8.229999900000001,-1.0342950820922852,8.710105895996094,4.455609321594238,40.2679443359375,-34.1644287109375,23.223876953125
8.2499999,-0.9145850539207458,8.35336971282959,4.841075897216797,17.6544189453125,-33.660888671875,10.8489990234375
8.2699999,-1.015141487121582,7.934384346008301,5.216965675354004,21.3623046875,-47.8973388671875,-20.3094482421875
8.2899999,-1.2976573705673218,7.73087739944458,5.39174222946167,62.1185302734375,-89.263916015625,-47.9736328125
8.309999900000001,-1.522712230682373,7.829039573669434,4.90571928024292,109.527587890625,-114.7918701171875,-45.6695556640625
8.3299999,-1.699883222579956,8.027758598327637,4.55616569519043,98.08349609375,-18.9056396484375,-12.176513671875
8.3499999,-1.7501614093780518,8.317456245422363,3.845088005065918,133.60595703125,-12.420654296875,-18.768310546875
8.3699999,-1.680729627609253,8.62391471862793,3.4117374420166016,155.487060546875,-34.5306396484375,-19.287109375
8.389999900000001,-1.5155296325683594,8.999804496765137,3.2082302570343018,126.739501953125,-37.4298095703125,-0.762939453125
8.4099999,-1.316810965538025,9.526528358459473,3.0885202884674072,62.347412109375,-37.7044677734375,40.0543212890625
8.4299999,-1.0606313943862915,10.098742485046387,3.0119056701660156,11.6424560546875,-40.0390625,89.1876220703125
8.4499999,-0.6607996821403503,10.790667533874512,3.2297780513763428,-29.8614501953125,-36.285400390625,102.1728515625
8.469999900000001,0.014365210197865963,11.298237800598145,3.7708675861358643,-63.629150390625,-70.00732421875,110.260009765625
8.4899999,0.6416460275650024,11.480196952819824,4.580107688903809,-18.341064453125,-112.060546875,96.649169921875
8.5099999,1.338358759880066,11.520898818969727,5.20978307723999,61.1114501953125,-139.0380859375,69.5343017578125
8.5299999,1.8100165128707886,11.238382339477539,5.5329999923706055,47.1954345703125,-134.857177734375,72.1435546875
8.549999900000001,2.0470423698425293,10.919954299926758,5.195417881011963,14.1143798828125,-107.452392578125,79.4677734375
8.569999900000001,2.145204782485962,10.615890502929688,4.381389141082764,-6.9580078125,-82.4127197265625,73.1964111328125
8.5899999,2.2146365642547607,10.256759643554688,3.557783842086792,-53.558349609375,-58.4716796875,70.3582763671875
8.6099999,2.274491548538208,9.86889934539795,2.8155810832977295,-62.9119873046875,-59.14306640625,65.5670166015625
8.629999900000001,2.2912509441375732,9.387664794921875,2.403778553009033,-62.8204345703125,-52.001953125,66.40625
8.649999900000001,2.343923568725586,8.880094528198242,2.33913516998291,-111.846923828125,-33.87451171875,89.90478515625
8.6699999,2.3487119674682617,8.40843677520752,2.4444799423217773,-127.7923583984375,-30.0445556640625,91.6290283203125
8.6899999,2.3750481605529785,7.893682956695557,2.7892448902130127,-132.6446533203125,-36.4990234375,62.957763671875
8.709999900000001,2.47560453414917,7.469909191131592,3.2537200450897217,-118.0267333984375,-34.7442626953125,49.7283935546875
8.729999900000001,2.5234885215759277,7.0988078117370605,3.6080620288848877,-67.3980712890625,-48.2177734375,28.01513671875
8.7499999,2.5689783096313477,6.730101108551025,3.907337188720703,-64.4989013671875,-52.9327392578125,7.781982421875
8.7699999,2.542642116546631,6.440402507781982,4.003105163574219,-61.614990234375,-30.242919921875,-1.8463134765625
8.7899999,2.3965959548950195,6.119579315185547,3.9049429893493652,-25.390625,-28.2745361328125,-10.9710693359375
8.809999900000001,2.276885747909546,5.851428985595703,3.88818359375,-16.998291015625,-18.5089111328125,-19.0582275390625
8.8299999,2.1380221843719482,5.602431774139404,3.8522706031799316,-27.618408203125,-10.284423828125,-14.892578125
8.8499999,2.03507137298584,5.430049419403076,3.8498764038085938,-41.1529541015625,-10.9405517578125,-7.6446533203125
8.8699999,1.9536685943603516,5.2911858558654785,3.8331170082092285,-40.34423828125,-4.913330078125,-11.6729736328125
8.889999900000001,1.922544002532959,5.214571475982666,3.840299606323242,-47.0428466796875,5.1116943359375,-18.157958984375
8.9099999,1.9776105880737305,5.142745018005371,3.995922565460205,-67.19970703125,2.2430419921875,-24.7344970703125
8.9299999,2.1332337856292725,5.252878665924072,4.156333923339844,-55.816650390625,-6.866455078125,-40.008544921875
8.9499999,2.434903144836426,5.458779811859131,4.73573112487793,-34.4390869140625,16.204833984375,-45.8984375
8.969999900000001,2.717418909072876,5.705382823944092,5.1331682205200195,-53.64990234375,-23.4222412109375,-51.5289306640625
8.9899999,2.9927520751953125,6.069301128387451,5.568912982940674,-30.5023193359375,-51.33056640625,-70.6787109375
9.0099999,3.071760892868042,6.370970726013184,5.702988624572754,11.077880859375,-50.2471923828125,-80.1849365234375
9.0299999,3.0837318897247314,6.615179061889648,5.537788391113281,7.080078125,-52.886962890625,-64.239501953125
9.049999900000001,2.9281086921691895,7.003039836883545,5.027823448181152,13.1072998046875,-41.6412353515625,-53.0242919921875
9.069999900000001,2.82515811920166,7.19936466217041,4.577713489532471,38.7420654296875,-8.5296630859375,-52.001953125
9.0899999,2.6599581241607666,7.433996200561523,4.089296340942383,46.3104248046875,13.153076171875,-40.618896484375
9.1099999,2.5091233253479004,7.647080421447754,3.8355112075805664,54.6875,21.575927734375,-38.87939453125
9.129999900000001,2.3774423599243164,7.814674377441406,3.799597978591919,30.5328369140625,29.632568359375,-10.0860595703125
9.149999900000001,2.2242133617401123,7.970297336578369,3.9001545906066895,0.701904296875,35.369873046875,0.5950927734375
9.1699999,2.0925323963165283,8.111555099487305,4.14915132522583,-5.7220458984375,35.4766845703125,-24.017333984375
9.1899999,1.9943699836730957,8.195352554321289,4.469974517822266,-13.885498046875,16.6015625,-19.775390625
9.209999900000001,2.006340980529785,8.267178535461426,4.960785865783691,-25.3448486328125,-6.256103515625,-9.27734375
9.229999900000001,1.944091796875,8.449137687683105,5.2049946784973145,9.70458984375,-19.71435546875,-21.7132568359375
9.2499999,1.7980455160140991,8.662221908569336,5.202600479125977,12.3291015625,3.7384033203125,-29.0374755859375
9.2699999,1.5658079385757446,8.877699851989746,4.900930881500244,-34.7442626953125,42.877197265625,-1.556396484375
9.2899999,1.3407529592514038,8.942343711853027,4.548983097076416,-71.197509765625,55.8929443359375,26.1993408203125
9.309999900000001,1.1779472827911377,8.712499618530273,4.398148536682129,-57.1136474609375,52.398681640625,18.096923828125
9.3299999,1.1228805780410767,8.224082946777344,4.5394062995910645,-35.919189453125,37.6434326171875,-2.655029296875
9.3499999,1.072602391242981,7.575253963470459,4.8602294921875,-61.1114501953125,46.1578369140625,-9.9029541015625
9.3699999,0.9792284965515137,6.9455790519714355,5.190629482269287,-86.6241455078125,63.4765625,-19.2718505859375
9.389999900000001,0.8619126081466675,6.45476770401001,5.564124584197998,-69.39697265625,73.1964111328125,-51.1932373046875
9.4099999,0.8020575642585754,6.344634532928467,6.026205539703369,-35.5682373046875,66.5130615234375,-83.43505859375
9.4299999,0.8762778043746948,6.658275127410889,6.555324077606201,-20.4010009765625,35.7513427734375,-81.35986328125
9.4499999,0.9026140570640564,7.259219646453857,6.739677906036377,13.5345458984375,9.5977783203125,-69.5648193359375
9.469999900000001,0.9385270476341248,8.092401504516602,6.722918510437012,44.5709228515625,30.0140380859375,-78.06396484375
9.4899999,0.7996633648872375,8.7484130859375,6.335057735443115,54.595947265625,50.6439208984375,-95.3521728515625
9.5099999,0.5027823448181152,9.138668060302734,5.779603004455566,44.2352294921875,37.3077392578125,-86.5936279296875
9.5299999,0.07422025501728058,9.253589630126953,5.219359874725342,12.237548828125,32.1044921875,-68.90869140625
9.549999900000001,-0.38067805767059326,9.2033109664917,4.716577529907227,-13.1072998046875,45.2423095703125,-57.1441650390625
9.569999900000001,-0.7948749661445618,8.968679428100586,4.369418144226074,-24.8260498046875,53.22265625,-39.8406982421875
9.5899999,-1.091755986213684,8.65982723236084,4.369418144226074,-20.751953125,53.2073974609375,-28.7628173828125
9.6099999,-1.2832920551300049,8.190564155578613,4.7620673179626465,1.2054443359375,41.290283203125,-28.6865234375
9.629999900000001,-1.4652514457702637,7.735665798187256,5.245696067810059,54.4281005859375,5.1422119140625,-53.22265625
9.649999900000001,-1.6950948238372803,7.398083209991455,5.52821159362793,92.6666259765625,-18.85986328125,-80.6427001953125
9.6699999,-1.9584569931030273,7.314286231994629,5.568912982940674,56.976318359375,2.105712890625,-65.5670166015625
9.6899999,-2.207453966140747,7.60637903213501,5.384559631347656,26.5045166015625,21.636962890625,-52.337646484375
9.709999900000001,-2.387019157409668,8.042123794555664,5.207388877868652,23.1475830078125,11.1541748046875,-41.351318359375
9.729999900000001,-2.5019407272338867,8.544905662536621,5.082890033721924,22.7508544921875,-1.28173828125,-34.759521484375
9.7499999,-2.5474305152893066,8.992621421813965,5.020640850067139,13.1072998046875,10.2996826171875,-38.4063720703125
9.7699999,-2.585737943649292,9.17697525024414,4.994304656982422,-19.7906494140625,29.296875,-32.012939453125
9.7899999,-2.5977089405059814,9.265560150146484,5.063736438751221,-20.904541015625,28.778076171875,-29.9835205078125
9.809999900000001,-2.604891538619995,9.229647636413574,5.25527286529541,16.7236328125,18.6920166015625,-38.5894775390625
9.8299999,-2.607285737991333,9.01895809173584,5.714959621429443,18.4783935546875,13.702392578125,-35.125732421875
9.8499999,-2.6360161304473877,8.688557624816895,6.232107162475586,-2.716064453125,3.265380859375,-35.64453125
9.8699999,-2.693476915359497,8.35336971282959,6.675034523010254,-28.13720703125,-16.5557861328125,-43.975830078125
9.889999900000001,-2.782062292098999,7.8960771560668945,7.0772600173950195,-32.89794921875,-21.148681640625,-55.877685546875
9.9099999,-2.918531894683838,7.398083209991455,7.237671852111816,-44.952392578125,-24.7344970703125,-51.69677734375
9.9299999,-3.1292216777801514,7.007828235626221,7.062894821166992,-55.8624267578125,-33.0963134765625,-53.009033203125
9.9499999,-3.339911460876465,6.531382083892822,6.9910688400268555,-37.2467041015625,-23.590087890625,-63.5528564453125
9.969999900000001,-3.5649664402008057,6.076483726501465,6.797138690948486,-7.6904296875,-38.39111328125,-67.4896240234375
9.9899999,-3.823540210723877,5.612008571624756,6.471527099609375,74.5697021484375,-60.6842041015625,-90.423583984375
10.0099999,-4.05817174911499,5.157110691070557,6.011840343475342,76.385498046875,-50.537109375,-94.42138671875
10.0299999,-4.3191399574279785,4.886565685272217,5.363011837005615,-30.2276611328125,-26.1993408203125,-90.33203125
10.049999900000001,-4.5394062995910645,4.807557106018066,4.668693542480469,-50.78125,-12.176513671875,-99.8687744140625
10.069999900000001,-4.776432514190674,4.824316501617432,4.034229755401611,54.8248291015625,-16.693115234375,-114.410400390625
10.0899999,-5.039794445037842,4.845864295959473,3.756502389907837,119.7357177734375,-4.45556640625,-126.190185546875
10.1099999,-5.365406036376953,4.865017890930176,3.5051112174987793,67.352294921875,-3.662109375,-124.4049072265625
10.129999900000001,-5.7125654220581055,5.023035049438477,3.179499864578247,2.471923828125,-14.2822265625,-114.9139404296875
10.149999900000001,-6.004657745361328,5.30076265335083,2.9161376953125,12.359619140625,9.5672607421875,-104.1717529296875
10.1699999,-6.222530364990234,5.722142219543457,2.698265314102173,3.7689208984375,29.47998046875,-88.5162353515625
10.1899999,-6.380547523498535,6.057330131530762,2.7676970958709717,5.2490234375,22.705078125,-82.1533203125
10.209999900000001,-6.524199485778809,6.1530985832214355,3.0597896575927734,42.816162109375,7.7056884765625,-81.634521484375
10.229999900000001,-6.658275127410889,6.054935932159424,3.383007049560547,48.2635498046875,7.293701171875,-79.2388916015625
10.2499999,-6.7923502922058105,5.762843608856201,3.708618402481079,22.430419921875,19.34814453125,-79.315185546875
10.2699999,-6.933608055114746,5.398924827575684,3.97916316986084,-1.1444091796875,13.4124755859375,-83.6334228515625
10.2899999,-7.058106422424316,5.082890033721924,4.309563159942627,-32.53173828125,-9.3536376953125,-90.789794921875
10.309999900000001,-7.240066051483154,4.795586109161377,4.63517427444458,-19.7601318359375,-26.611328125,-92.803955078125
10.3299999,-7.548917770385742,4.675876140594482,4.742913722991943,19.5465087890625,-39.48974609375,-101.654052734375
10.3499999,-8.01339340209961,4.627991676330566,4.644751071929932,46.4630126953125,-56.70166015625,-124.0081787109375
10.3699999,-9.069235801696777,4.508281707763672,3.6583402156829834,99.6551513671875,-86.8377685546875,-154.0985107421875
10.389999900000001,-11.504138946533203,5.52821159362793,0.24899697303771973,231.475830078125,-123.2757568359375,-214.599609375
10.4099999,-15.655684471130371,9.959878921508789,-7.718906402587891,308.6090087890625,-118.95751953125,-247.955322265625
10.4299999,-21.777658462524414,18.63886070251465,-19.541473388671875,126.2359619140625,80.9783935546875,-130.9814453125
10.4499999,-30.164546966552734,31.270668029785156,-31.189266204833984,-35.400390625,409.454345703125,70.73974609375
10.469999900000001,-40.88338851928711,45.4874382019043,-38.53467559814453,41.1529541015625,499.9847412109375,263.5498046875
10.4899999,-52.713138580322266,57.46562957763672,-35.702335357666016,88.165283203125,499.9847412109375,426.605224609375
10.5099999,-64.53570556640625,65.47183990478516,-24.10721778869629,144.622802734375,499.9847412109375,499.9847412109375
10.5299999,-74.29447174072266,67.95702362060547,-7.043741226196289,140.7012939453125,499.9847412109375,499.9847412109375
10.549999900000001,-78.45320129394531,63.13270568847656,11.508927345275879,137.3748779296875,499.9847412109375,499.9847412109375
10.569999900000001,-78.45320129394531,49.29661178588867,27.870901107788086,265.2587890625,499.9847412109375,499.9847412109375
10.5899999,-78.45320129394531,31.29221534729004,37.67755126953125,238.3270263671875,420.1507568359375,499.9847412109375
10.6099999,-72.96569061279297,11.41555404663086,39.98316955566406,374.0997314453125,353.2562255859375,499.9847412109375
10.629999900000001,-62.416839599609375,-6.6127848625183105,37.43095016479492,206.1767578125,439.4378662109375,499.9847412109375
10.649999900000001,-49.969383239746094,-17.197551727294922,29.506141662597656,8.1329345703125,330.8868408203125,371.978759765625
10.6699999,-37.23941421508789,-23.21417999267578,21.531055450439453,-61.34033203125,147.247314453125,250.54931640625
10.6899999,-25.33783721923828,-24.507047653198242,15.19120979309082,-97.0306396484375,113.0828857421875,215.4693603515625
10.709999900000001,-15.411476135253906,-22.074539184570312,10.108319282531738,-18.61572265625,91.0491943359375,153.472900390625
10.729999900000001,-8.26239013671875,-18.432958602905273,7.201758861541748,38.665771484375,38.8641357421875,77.4688720703125
10.7499999,-3.5410242080688477,-14.700398445129395,5.48272180557251,-14.312744140625,-5.67626953125,28.8543701171875
10.7699999,-0.6799532771110535,-11.8225679397583,4.98472785949707,-64.544677734375,4.486083984375,28.8543701171875
10.7899999,1.170764684677124,-9.10993766784668,4.304774761199951,-23.284912109375,15.3961181640625,2.62451171875
10.809999900000001,2.5091233253479004,-7.113173484802246,3.754108190536499,39.794921875,10.589599609375,-22.552490234375
10.8299999,3.6607344150543213,-5.2049946784973145,3.265691041946411,10.5133056640625,5.2947998046875,-45.0592041015625
10.8499999,4.9152960777282715,-3.7708675861358643,2.808398485183716,5.767822265625,-3.2501220703125,-45.074462890625
10.8699999,6.157886981964111,-2.5091233253479004,2.296039342880249,36.651611328125,-18.035888671875,-48.4619140625
10.889999900000001,7.386112213134766,-1.4676456451416016,1.7405846118927002,22.613525390625,-26.8096923828125,-54.3670654296875
10.9099999,8.516175270080566,-0.6751648783683777,1.0462661981582642,21.17919921875,-14.404296875,-40.435791015625
10.9299999,9.433155059814453,0.047884032130241394,0.9624691009521484,-8.544921875,0.6561279296875,-32.65380859375
10.9499999,10.08437728881836,0.7445967197418213,0.8810662031173706,10.8184814453125,-27.2064208984375,-42.66357421875
10.969999900000001,10.472238540649414,1.4173674583435059,0.5530605912208557,68.115234375,-64.5599365234375,-30.609130859375
10.9899999,10.599130630493164,1.889025092124939,-0.20111294090747833,35.736083984375,-39.85595703125,1.0833740234375
11.0099999,10.551246643066406,2.011129379272461,-1.192312479019165,-52.154541015625,0.9765625,5.9356689453125
11.0299999,10.345345497131348,1.6879122257232666,-2.427720546722412,-44.189453125,-8.453369140625,-9.4757080078125
11.049999900000001,10.02452278137207,0.993593692779541,-3.3925838470458984,7.38525390625,-25.0396728515625,-12.3443603515625
11.069999900000001,9.672574996948242,0.1867477297782898,-3.936067581176758,-19.317626953125,3.387451171875,-4.5013427734375
11.0899999,9.399636268615723,-0.42856210470199585,-4.050989151000977,-21.575927734375,33.782958984375,-16.571044921875
11.1099999,9.260771751403809,-0.9026140570640564,-3.689464807510376,-2.7008056640625,19.195556640625,-27.4658203125
11.129999900000001,9.224859237670898,-1.0079588890075684,-2.6168625354766846,3.3111572265625,-4.150390625,-32.867431640625
11.149999900000001,9.275136947631836,-0.9888052940368652,-1.482010841369629,-8.697509765625,-12.969970703125,-27.984619140625
11.1699999,9.308655738830566,-0.7829039692878723,-0.47405192255973816,-15.4876708984375,-9.7808837890625,-28.6102294921875
11.1899999,9.320627212524414,-0.569819986820221,0.090979665517807,-7.87353515625,-16.1895751953125,-35.4766845703125
11.209999900000001,9.265560150146484,-0.3878606855869293,0.19393034279346466,8.2550048828125,-28.3050537109375,-35.7208251953125
11.229999900000001,9.153033256530762,-0.26096799969673157,-0.15562310814857483,-3.72314453125,-20.172119140625,-31.6162109375
11.2499999,8.971074104309082,-0.2298433631658554,-0.6392518281936646,-23.86474609375,-0.42724609375,-36.56005859375
11.2699999,8.772355079650879,-0.19871874153614044,-1.1013327836990356,-26.55029296875,2.410888671875,-50.4302978515625
11.2899999,8.554482460021973,-0.20350714027881622,-1.2952631711959839,-20.93505859375,-13.6566162109375,-48.4771728515625
11.309999900000001,8.35336971282959,-0.19153612852096558,-1.2473790645599365,-16.326904296875,-11.566162109375,-39.9627685546875
11.3299999,8.169015884399414,-0.05746084079146385,-1.173158884048462,-14.5263671875,-4.608154296875,-44.525146484375
11.3499999,8.01339340209961,0.043095629662275314,-1.2234370708465576,-14.6636962890625,-6.16455078125,-52.67333984375
11.3699999,7.8314337730407715,0.26096799969673157,-1.316810965538025,-20.7061767578125,-11.2457275390625,-57.5408935546875
11.389999900000001,7.632715225219727,0.569819986820221,-1.5682021379470825,-23.9410400390625,-9.5672607421875,-56.6253662109375
11.4099999,7.3454108238220215,0.9888052940368652,-1.8818424940109253,-34.1339111328125,-4.6539306640625,-57.18994140625
11.4299999,7.110779285430908,1.3551181554794312,-2.2649147510528564,-31.768798828125,6.103515625,-63.446044921875
11.4499999,6.959944248199463,1.580173134803772,-2.4875755310058594,-24.3682861328125,13.6566162109375,-70.9991455078125
11.469999900000001,6.909666061401367,1.6089035272598267,-2.5330653190612793,-29.998779296875,14.5263671875,-79.7271728515625
11.4899999,6.873753070831299,1.6065093278884888,-2.2361843585968018,-35.1409912109375,15.9912109375,-92.9718017578125
11.5099999,6.7708024978637695,1.7525556087493896,-1.5442601442337036,-25.93994140625,10.6201171875,-108.184814453125
11.5299999,6.6391215324401855,2.1164743900299072,-0.8690952062606812,-5.2947998046875,-8.880615234375,-109.2071533203125
11.549999900000001,6.478709697723389,2.695871114730835,-0.3495534360408783,-13.031005859375,-22.2625732421875,-91.3848876953125
11.569999900000001,6.361393928527832,3.2776620388031006,-0.10534487664699554,-48.0804443359375,-6.89697265625,-82.5653076171875
11.5899999,6.2416839599609375,3.801992416381836,-0.0933738648891449,-62.9425048828125,1.5716552734375,-89.9810791015625
11.6099999,6.162675380706787,4.170699596405029,-0.002394201699644327,-25.6805419921875,-3.7689208984375,-106.7962646484375
11.629999900000001,6.030993938446045,4.529829502105713,-0.047884032130241394,38.726806640625,-21.820068359375,-115.2496337890625
11.649999900000001,5.863399982452393,4.965574264526367,-0.21547815203666687,19.0277099609375,-29.2816162109375,-108.21533203125
11.6699999,5.585672378540039,5.52821159362793,-0.363918662071228,-53.863525390625,-16.4794921875,-101.409912109375
11.6899999,5.1810526847839355,6.2632317543029785,-0.48602294921875,-68.17626953125,-21.05712890625,-100.2197265625
11.709999900000001,4.630385875701904,6.933608055114746,-0.4357447028160095,-65.0177001953125,-67.840576171875,-89.9810791015625
11.729999900000001,4.043806552886963,7.618350028991699,-0.6320692300796509,-91.5069580078125,-122.222900390625,-99.12109375
11.7499999,3.450044631958008,8.245630264282227,-1.1468225717544556,-67.2149658203125,-67.4591064453125,-120.2392578125
11.7699999,3.0526070594787598,8.65743350982666,-1.8387469053268433,-14.862060546875,1.4495849609375,-119.4610595703125
11.7899999,2.7772738933563232,8.80587387084961,-2.3726539611816406,-5.126953125,-7.4005126953125,-111.846923828125
11.809999900000001,2.741360902786255,8.638279914855957,-2.4660277366638184,-31.707763671875,-28.6407470703125,-115.2191162109375
11.8299999,2.7676970958709717,8.166622161865234,-2.1380221843719482,-68.7713623046875,-35.247802734375,-127.166748046875
11.8499999,2.8155810832977295,7.881711959838867,-1.5466543436050415,-63.3392333984375,-35.4766845703125,-151.6876220703125
11.8699999,2.741360902786255,7.948749542236328,-0.9696516990661621,11.71875,-42.144775390625,-172.42431640625
11.889999900000001,2.52109432220459,8.487444877624512,-0.6991068720817566,61.0504150390625,-57.31201171875,-166.107177734375
11.9099999,2.1954829692840576,9.253589630126953,-0.6823474764823914,-0.274658203125,-48.52294921875,-143.8140869140625
11.9299999,1.7764976024627686,10.022128105163574,-0.7948749661445618,-67.32177734375,-35.15625,-143.37158203125
11.9499999,1.3527239561080933,10.704475402832031,-0.9528923034667969,-32.3944091796875,-46.0052490234375,-155.6243896484375
11.969999900000001,1.0031704902648926,11.12106704711914,-0.9720458984375,-17.059326171875,-55.8929443359375,-142.822265625
11.9899999,0.7254431247711182,11.5065336227417,-0.8475474119186401,-72.0062255859375,-46.661376953125,-121.856689453125
12.0099999,0.5171475410461426,11.580753326416016,-0.49799394607543945,-85.6781005859375,-38.57421875,-115.9820556640625
12.0299999,0.2777273952960968,11.654973983764648,-0.16998831927776337,8.5296630859375,-60.5621337890625,-141.41845703125
12.049999900000001,-0.021547814831137657,11.638214111328125,0,42.4957275390625,-84.7015380859375,-146.4385986328125
12.069999900000001,-0.4213795065879822,11.738770484924316,-0.40701428055763245,-8.6517333984375,-75.0579833984375,-128.326416015625
12.0899999,-0.8523358106613159,11.994950294494629,-1.1994950771331787,-51.239013671875,-44.12841796875,-112.2894287109375
12.1099999,-1.2018892765045166,12.239158630371094,-2.054224967956543,-49.5147705078125,-30.5328369140625,-104.3243408203125
12.129999900000001,-1.4628572463989258,12.435483932495117,-2.432508945465088,-36.224365234375,-26.55029296875,-97.83935546875
12.149999900000001,-1.6112977266311646,12.538434028625488,-2.078166961669922,-66.3604736328125,-0.6103515625,-96.3897705078125
12.1699999,-1.742978811264038,12.552799224853516,-1.1563993692398071,-144.5770263671875,4.7760009765625,-77.4688720703125
12.1899999,-1.8267759084701538,12.409147262573242,0.22026655077934265,-158.0047607421875,-15.6402587890625,-63.8275146484375
12.209999900000001,-1.9321208000183105,12.258312225341797,1.3838485479354858,-58.1512451171875,-38.63525390625,-73.822021484375
12.229999900000001,-2.1092917919158936,11.997344970703125,1.9393033981323242,-36.68212890625,-45.2880859375,-65.1092529296875
12.2499999,-2.3582887649536133,11.707646369934082,1.9057846069335938,-130.18798828125,-13.5498046875,-38.7725830078125
12.2699999,-2.655169725418091,11.580753326416016,1.4293384552001953,-156.7840576171875,10.833740234375,-40.1153564453125
12.289999900000002,-2.9496564865112305,11.568782806396484,1.1252747774124146,-140.2130126953125,1.89208984375,-49.468994140625
12.309999900000001,-3.1531636714935303,11.8225679397583,1.2689268589019775,-130.5389404296875,-0.5950927734375,-34.5611572265625
12.3299999,-3.2752678394317627,12.126631736755371,1.8076223134994507,-129.974365234375,4.3487548828125,-11.1846923828125
12.3499999,-3.265691041946411,12.397176742553711,2.669534921646118,-140.289306640625,6.134033203125,2.1820068359375
12.3699999,-3.184288263320923,12.42351245880127,3.5697548389434814,-103.21044921875,-4.547119140625,-2.62451171875
12.389999900000001,-3.0861260890960693,12.193669319152832,4.185064792633057,-58.3648681640625,-13.6871337890625,-5.279541015625
12.4099999,-3.0190882682800293,11.66455078125,4.553771495819092,-93.26171875,-6.8359375,9.490966796875
12.4299999,-2.9879636764526367,10.99656867980957,4.558559894561768,-125.579833984375,0.7476806640625,21.4691162109375
12.4499999,-2.937685489654541,10.146626472473145,4.659116744995117,-130.5389404296875,-1.312255859375,28.13720703125
12.469999900000001,-2.8395233154296875,9.394847869873047,4.977545261383057,-129.2724609375,-9.1552734375,29.7393798828125
12.4899999,-2.7461493015289307,8.815450668334961,5.34625244140625,-136.8560791015625,-20.2789306640625,38.0706787109375
12.5099999,-2.6886885166168213,8.396465301513672,5.748478412628174,-157.2723388671875,-9.58251953125,45.867919921875
12.5299999,-2.6431987285614014,8.08043098449707,6.160281181335449,-130.9967041015625,1.556396484375,32.379150390625
12.549999900000001,-2.676717519760132,7.898471355438232,6.323086738586426,-43.9605712890625,-14.129638671875,2.8839111328125
12.569999900000001,-2.7102363109588623,7.726089000701904,6.502651691436768,-54.168701171875,-24.658203125,11.41357421875
12.5899999,-2.734178304672241,7.615955829620361,6.643909931182861,-159.698486328125,-5.889892578125,47.8363037109375
12.6099999,-2.719813108444214,7.4986395835876465,6.72531270980835,-187.225341796875,9.307861328125,64.5294189453125
12.629999900000001,-2.741360902786255,7.252037048339844,6.768408298492432,-136.3067626953125,3.8604736328125,57.80029296875
12.649999900000001,-2.7724854946136475,6.845022678375244,6.852205276489258,-125.701904296875,12.5579833984375,56.5032958984375
12.6699999,-2.8419175148010254,6.167463779449463,7.010222434997559,-181.2744140625,41.534423828125,56.976318359375
12.6899999,-2.9544448852539062,5.453991413116455,7.280767440795898,-198.272705078125,34.8968505859375,62.164306640625
12.709999900000001,-2.9664158821105957,4.5609540939331055,7.785943984985352,-190.643310546875,-3.204345703125,58.3648681640625
12.729999900000001,-2.87064790725708,3.6511576175689697,8.360552787780762,-179.5501708984375,-32.9437255859375,36.7584228515625
12.7499999,-2.7054479122161865,2.9664158821105957,8.87051773071289,-155.6243896484375,-15.4876708984375,24.47509765625
12.7699999,-2.473210334777832,2.2912509441375732,9.186552047729492,-138.031005859375,-15.07568359375,10.467529296875
12.789999900000002,-2.2649147510528564,1.8052281141281128,9.366117477416992,-99.4720458984375,-26.5655517578125,1.3580322265625
12.809999900000001,-2.094926595687866,1.4772224426269531,9.461885452270508,-61.859130859375,-15.5792236328125,4.486083984375
12.8299999,-1.9847931861877441,1.2737152576446533,9.454702377319336,-55.4962158203125,-18.5699462890625,15.533447265625
12.8499999,-1.9057846069335938,1.1563993692398071,9.476250648498535,-73.2574462890625,-16.8914794921875,40.191650390625
12.8699999,-1.8195933103561401,1.0654197931289673,9.583989143371582,-53.7567138671875,-9.033203125,52.947998046875
12.889999900000001,-1.7908629179000854,0.9217676520347595,9.605537414550781,-10.345458984375,-5.55419921875,38.6199951171875
12.9099999,-1.6376339197158813,0.629675030708313,9.892841339111328,-24.59716796875,-3.2806396484375,43.426513671875
12.9299999,-1.6208745241165161,0.44771572947502136,9.93354320526123,9.6893310546875,-9.7198486328125,30.45654296875
12.9499999,-1.4748282432556152,0.24899697303771973,10.108319282531738,50.140380859375,-12.2222900390625,17.364501953125
12.969999900000001,-1.4963760375976562,0.22266076505184174,10.002974510192871,84.41162109375,-6.0577392578125,-3.60107421875
12.9899999,-1.4652514457702637,0.3232172429561615,9.852140426635742,48.0194091796875,-15.7470703125,-17.0745849609375
13.0099999,-1.4939818382263184,0.6416460275650024,9.641449928283691,35.7513427734375,0.18310546875,-11.474609375
13.0299999,-1.599326729774475,1.0055646896362305,9.327810287475586,31.5704345703125,-16.41845703125,0.06103515625
13.049999900000001,-1.647210717201233,1.4437036514282227,9.167398452758789,-1.5411376953125,-12.3138427734375,11.138916015625
13.069999900000001,-1.6711528301239014,1.7166426181793213,9.014169692993164,2.2125244140625,6.2103271484375,-0.18310546875
13.0899999,-1.7549498081207275,1.9033904075622559,8.920795440673828,63.934326171875,50.567626953125,-20.751953125
13.1099999,-1.7405846118927002,1.98958158493042,8.959102630615234,62.8204345703125,54.5196533203125,-4.3182373046875
13.129999900000001,-1.8052281141281128,2.1140801906585693,9.042900085449219,35.308837890625,30.0445556640625,7.2021484375
13.149999900000001,-1.8579005002975464,2.1930887699127197,9.210494041442871,11.0015869140625,20.4010009765625,9.979248046875
13.1699999,-1.8914192914962769,2.2218191623687744,9.421183586120605,10.0250244140625,13.4429931640625,5.218505859375
13.1899999,-1.9321208000183105,2.1787235736846924,9.543288230895996,35.2325439453125,8.5296630859375,1.9073486328125
13.209999900000001,-1.9991583824157715,2.2361843585968018,9.59596061706543,12.8021240234375,-4.974365234375,18.4783935546875
13.229999900000001,-2.0877439975738525,2.4229321479797363,9.428366661071777,-56.21337890625,-11.1541748046875,29.1748046875
13.2499999,-2.166752576828003,2.580949544906616,9.23682975769043,-105.072021484375,0.4730224609375,37.811279296875
13.2699999,-2.2433669567108154,2.6575639247894287,8.990227699279785,-151.0009765625,1.739501953125,50.3692626953125
13.289999900000002,-2.2864625453948975,2.346317768096924,8.789113998413086,-207.550048828125,0.18310546875,61.1114501953125
13.309999900000001,-2.248155355453491,1.6352397203445435,8.87051773071289,-246.978759765625,36.9415283203125,58.563232421875
13.3299999,-2.229001760482788,0.8451532125473022,8.947132110595703,-232.3760986328125,66.436767578125,23.956298828125
13.3499999,-2.185906171798706,-0.10534487664699554,9.299078941345215,-197.2808837890625,72.418212890625,15.4266357421875
13.3699999,-2.1571757793426514,-0.993593692779541,9.749189376831055,-153.74755859375,62.92724609375,10.7269287109375
13.389999900000001,-2.2433669567108154,-1.900996208190918,9.93593692779541,-121.5057373046875,28.7017822265625,-2.5634765625
13.4099999,-2.4851813316345215,-2.8107926845550537,10.000580787658691,-98.1903076171875,23.223876953125,-16.9830322265625
13.4299999,-2.698265314102173,-3.5697548389434814,9.801861763000488,-121.734619140625,30.609130859375,-59.63134765625
13.4499999,-2.9520506858825684,-3.8786067962646484,9.241618156433105,-113.9678955078125,30.517578125,-104.2938232421875
13.469999900000001,-3.0166940689086914,-3.885789394378662,8.822632789611816,-40.7257080078125,89.0045166015625,-89.3402099609375
13.4899999,-3.1076738834381104,-3.6727054119110107,8.700529098510742,7.6141357421875,118.6065673828125,-49.102783203125
13.5099999,-3.112462282180786,-3.485957622528076,8.53532886505127,-37.0635986328125,22.1405029296875,-20.1263427734375
13.5299999,-3.2297780513763428,-3.3734302520751953,8.71489429473877,-74.1729736328125,-13.946533203125,-20.8892822265625
13.549999900000001,-3.2992098331451416,-3.4620156288146973,8.774748802185059,-66.83349609375,10.3302001953125,-5.9967041015625
13.569999900000001,-3.3255462646484375,-3.5266590118408203,8.573636054992676,-52.8717041015625,0.5340576171875,-0.06103515625
13.5899999,-3.3016040325164795,-3.687070608139038,8.453926086425781,-16.815185546875,24.2919921875,-3.96728515625
13.6099999,-3.24414324760437,-3.88818359375,8.31985092163086,-3.875732421875,33.2794189453125,-7.4310302734375
13.629999900000001,-3.2345664501190186,-4.144362926483154,8.250418663024902,-24.169921875,11.322021484375,-5.8135986328125
13.649999900000001,-3.2106244564056396,-4.316745758056641,8.329427719116211,-55.2520751953125,-2.4566650390625,0.2593994140625
13.6699999,-3.2106244564056396,-4.41969633102417,8.348581314086914,-54.8858642578125,-11.1236572265625,-0.2899169921875
13.6899999,-3.227383852005005,-4.501099109649658,8.245630264282227,-21.1181640625,-6.8359375,0.4425048828125
13.709999900000001,-3.222595453262329,-4.455609321594238,8.142680168151855,-0.5340576171875,13.7176513671875,-1.40380859375
13.729999900000001,-3.222595453262329,-4.443638324737549,8.056488990783691,4.3487548828125,27.4505615234375,0.9918212890625
13.7499999,-3.2585084438323975,-4.489128112792969,7.994239330291748,-0.9002685546875,14.892578125,13.5650634765625
13.7699999,-3.354276657104492,-4.532223701477051,8.04930591583252,-30.45654296875,2.7618408203125,20.7061767578125
13.789999900000002,-3.5003228187561035,-4.620809078216553,8.068459510803223,-41.2750244140625,1.129150390625,24.4140625
13.809999900000001,-3.6942532062530518,-4.651933670043945,8.075642585754395,-4.0283203125,19.4549560546875,16.7999267578125
13.8299999,-3.8522706031799316,-4.63517427444458,8.08282470703125,25.8331298828125,23.5443115234375,17.8985595703125
13.8499999,-3.9671921730041504,-4.680664539337158,8.094796180725098,10.040283203125,10.8489990234375,27.2369384765625
13.8699999,-4.005499362945557,-4.809951305389404,8.183381080627441,-29.72412109375,3.5552978515625,24.0936279296875
13.889999900000001,-4.019864559173584,-4.879383087158203,8.238448143005371,-31.0211181640625,0,22.6593017578125
13.9099999,-3.9887399673461914,-5.018246650695801,8.252813339233398,8.8958740234375,6.1187744140625,28.80859375
13.9299999,-3.8570590019226074,-5.020640850067139,8.111555099487305,26.397705078125,0.823974609375,31.73828125
13.9499999,-3.7852327823638916,-5.023035049438477,7.91283655166626,5.67626953125,0.7781982421875,15.3350830078125
13.969999900000001,-3.6942532062530518,-5.039794445037842,7.723694801330566,-18.24951171875,1.6021728515625,0.8392333984375
13.9899999,-3.84269380569458,-4.98472785949707,7.457938194274902,-31.158447265625,-16.4031982421875,10.3607177734375
14.0099999,-3.9839515686035156,-5.008669853210449,7.338228225708008,-36.1480712890625,-7.6446533203125,29.84619140625
14.0299999,-4.1874589920043945,-4.999093055725098,7.132327079772949,-26.1077880859375,10.68115234375,27.7252197265625
14.049999900000001,-4.2951979637146,-5.03021764755249,6.947973251342773,-0.5950927734375,16.7388916015625,-3.2501220703125
14.069999900000001,-4.28322696685791,-5.066130638122559,6.864176273345947,-2.0904541015625,13.24462890625,-10.2081298828125
14.0899999,-4.23773717880249,-5.137956619262695,6.768408298492432,-16.4031982421875,8.2855224609375,-14.6942138671875
14.1099999,-4.230554580688477,-5.20978307723999,6.6846113204956055,-28.8848876953125,5.37109375,-26.123046875
14.129999900000001,-4.2544965744018555,-5.279214859008789,6.6391215324401855,-36.8804931640625,10.80322265625,-35.919189453125
14.149999900000001,-4.345476150512695,-5.276820659637451,6.5696892738342285,-43.182373046875,13.3514404296875,-31.158447265625
14.1699999,-4.458003520965576,-5.228936672210693,6.531382083892822,-47.8668212890625,11.23046875,-14.1754150390625
14.1899999,-4.570530891418457,-5.252878665924072,6.5050458908081055,-51.4984130859375,13.916015625,-7.232666015625
14.209999900000001,-4.651933670043945,-5.3342814445495605,6.430825710296631,-50.6591796875,23.6968994140625,-9.3536376953125
14.229999900000001,-4.69024133682251,-5.501875400543213,6.339846134185791,-58.41064453125,36.5142822265625,-9.1094970703125
14.2499999,-4.699818134307861,-5.659893035888672,6.215347766876221,-54.046630859375,38.6810302734375,0.091552734375
14.2699999,-4.675876140594482,-5.748478412628174,6.165069580078125,-32.0587158203125,43.182373046875,5.1116943359375
14.289999900000002,-4.644751071929932,-5.841852188110352,6.208165168762207,-18.341064453125,42.236328125,3.326416015625
14.309999900000001,-4.644751071929932,-5.978321552276611,6.289567947387695,-20.7672119140625,33.5693359375,2.899169921875
14.3299999,-4.651933670043945,-6.203376770019531,6.430825710296631,-34.027099609375,27.0538330078125,8.8348388671875
14.3499999,-4.687847137451172,-6.378153324127197,6.512228488922119,-40.46630859375,28.0609130859375,10.162353515625
14.3699999,-4.7620673179626465,-6.567295074462891,6.44279670715332,-40.4510498046875,23.5443115234375,7.8125
14.389999900000001,-4.812345504760742,-6.751648902893066,6.344634532928467,-36.163330078125,32.7911376953125,11.90185546875
14.4099999,-4.898536682128906,-6.979097843170166,6.138733386993408,-29.4647216796875,41.4581298828125,13.24462890625
14.4299999,-4.965574264526367,-7.156269073486328,5.9519853591918945,-30.731201171875,37.0025634765625,7.6446533203125
14.4499999,-5.0469770431518555,-7.275979042053223,5.686229228973389,-21.97265625,33.5235595703125,0.3814697265625
14.469999900000001,-5.114014625549316,-7.297526836395264,5.509057998657227,6.500244140625,50.84228515625,-4.45556640625
14.4899999,-5.207388877868652,-7.220912456512451,5.348646640777588,39.154052734375,63.8427734375,-8.2550048828125
14.5099999,-5.324704647064209,-7.163451671600342,5.252878665924072,38.4674072265625,52.703857421875,-12.237548828125
14.5299999,-5.456385612487793,-7.06528902053833,5.157110691070557,24.5361328125,48.0804443359375,-18.2647705078125
14.549999900000001,-5.604825973510742,-6.914454460144043,5.008669853210449,-7.3089599609375,48.3245849609375,-17.2119140625
14.569999900000001,-5.7341132164001465,-6.624756336212158,4.757278919219971,-6.591796875,58.0902099609375,-16.204833984375
14.5899999,-5.8203043937683105,-6.212953567504883,4.443638324737549,7.9803466796875,57.464599609375,-15.9149169921875
14.6099999,-5.8657941818237305,-5.705382823944092,4.2329487800598145,7.2174072265625,59.661865234375,-14.8162841796875
14.629999900000001,-5.92325496673584,-5.212177276611328,3.971980571746826,-0.9613037109375,56.793212890625,-10.7421875
14.649999900000001,-5.987898349761963,-4.857835292816162,3.780444383621216,-17.0745849609375,56.1370849609375,3.5552978515625
14.6699999,-6.088454723358154,-4.802768707275391,3.6942532062530518,-28.289794921875,64.39208984375,17.486572265625
14.6899999,-6.205770969390869,-5.032611846923828,3.624821424484253,-17.8985595703125,63.507080078125,16.204833984375
14.709999900000001,-6.320692539215088,-5.47075080871582,3.818751811981201,-18.24951171875,60.455322265625,17.578125
14.729999900000001,-6.440402507781982,-5.853823184967041,4.077325344085693,-22.3236083984375,56.396484375,23.7579345703125
14.7499999,-6.576871871948242,-6.117185115814209,4.393360137939453,-19.622802734375,53.64990234375,29.2510986328125
14.7699999,-6.742072105407715,-6.234501361846924,4.654327869415283,-16.754150390625,52.520751953125,32.073974609375
14.789999900000002,-6.914454460144043,-6.268020153045654,4.8482584953308105,-8.544921875,49.62158203125,28.1982421875
14.809999900000001,-7.089231014251709,-6.229712963104248,4.922478675842285,-0.8392333984375,47.1954345703125,23.7274169921875
14.8299999,-7.240066051483154,-6.150704383850098,4.886565685272217,-6.7901611328125,39.12353515625,24.078369140625
14.8499999,-7.371747016906738,-6.066906929016113,4.67827033996582,-7.659912109375,33.9202880859375,25.5279541015625
14.8699999,-7.453149795532227,-6.095637321472168,4.402936935424805,-3.7689208984375,34.7747802734375,25.543212890625
14.889999900000001,-7.493851184844971,-6.222530364990234,4.055777549743652,0.823974609375,31.951904296875,18.707275390625
14.9099999,-7.469909191131592,-6.375759124755859,3.7708675861358643,-0.1373291015625,21.42333984375,8.636474609375
14.9299999,-7.417236804962158,-6.490680694580078,3.4524388313293457,-2.716064453125,11.9171142578125,6.072998046875
14.9499999,-7.316680431365967,-6.540958881378174,3.2082302570343018,-2.2735595703125,19.71435546875,7.354736328125
14.969999900000001,-7.218518257141113,-6.452373504638672,2.999934673309326,-5.5999755859375,29.60205078125,8.36181640625
14.9899999,-7.144298076629639,-6.3973069190979,2.738966703414917,2.197265625,24.2462158203125,8.575439453125
15.0099999,-7.086836814880371,-6.335057735443115,2.6862943172454834,8.60595703125,34.60693359375,6.5765380859375
15.0299999,-7.122750282287598,-6.3518171310424805,2.647987127304077,10.9710693359375,47.3175048828125,7.38525390625
15.049999900000001,-7.168240070343018,-6.3733649253845215,2.8107926845550537,-7.537841796875,34.5306396484375,8.6669921875
15.069999900000001,-7.2352776527404785,-6.519411087036133,3.1268274784088135,-7.720947265625,31.55517578125,11.4288330078125
15.0899999,-7.2783732414245605,-6.572083473205566,3.5051112174987793,12.5885009765625,29.4036865234375,6.8359375
15.1099999,-7.268796443939209,-6.5912370681762695,3.8786067962646484,3.6773681640625,29.47998046875,13.458251953125
15.129999900000001,-7.218518257141113,-6.557718276977539,4.201824188232422,-3.7841796875,35.21728515625,21.91162109375
15.149999900000001,-7.163451671600342,-6.423643112182617,4.3861775398254395,-14.22119140625,25.390625,24.5208740234375
15.1699999,-7.096413612365723,-6.27280855178833,4.441244125366211,-22.0794677734375,24.3377685546875,23.590087890625
15.1899999,-7.043741226196289,-6.100425720214844,4.367023944854736,-18.8446044921875,31.6009521484375,26.4129638671875
15.209999900000001,-7.007828235626221,-5.9974751472473145,4.089296340942383,-16.9525146484375,32.989501953125,30.1666259765625
15.229999900000001,-6.995857238769531,-6.04775333404541,3.97916316986084,-21.8353271484375,44.647216796875,35.0189208984375
15.2499999,-6.988674640655518,-6.4164605140686035,4.285621166229248,-10.040283203125,64.88037109375,36.56005859375
15.2699999,-7.026981830596924,-7.29034423828125,5.295974254608154,22.3846435546875,71.990966796875,30.487060546875
15.289999900000002,-7.486668586730957,-8.300697326660156,7.91283655166626,93.658447265625,87.8753662109375,21.697998046875
15.309999900000001,-8.755595207214355,-10.120290756225586,14.645331382751465,156.219482421875,119.232177734375,27.7862548828125
15.3299999,-11.1474027633667,-13.414711952209473,24.394521713256836,59.0057373046875,-26.1383056640625,7.0648193359375
15.3499999,-15.19120979309082,-18.066646575927734,36.145263671875,-10.31494140625,-272.5067138671875,-56.243896484375
15.3699999,-21.37543296813965,-26.276363372802734,47.50096130371094,26.9622802734375,-409.2254638671875,-122.0855712890625
15.389999900000001,-29.977800369262695,-35.807682037353516,54.0203742980957,88.4246826171875,-500,-262.3138427734375
15.4099999,-41.23533630371094,-45.25759506225586,55.53829574584961,109.039306640625,-500,-385.3302001953125
15.4299999,-53.807289123535156,-53.194374084472656,51.2143669128418,-2.99072265625,-500,-461.5325927734375
15.4499999,-65.78069305419922,-56.00756072998047,41.78600311279297,-70.1446533203125,-500,-500
15.469999900000001,-74.90020751953125,-52.50244903564453,29.640216827392578,-51.9561767578125,-500,-500
15.4899999,-78.45320129394531,-40.67509078979492,14.772224426269531,-140.0146484375,-500,-500
15.5099999,-75.87464904785156,-24.837448120117188,1.742978811264038,-213.3941650390625,-500,-480.682373046875
15.5299999,-67.38241577148438,-7.922413349151611,-7.060500621795654,-135.5743408203125,-334.8541259765625,-359.8480224609375
15.549999900000001,-55.09776306152344,5.686229228973389,-10.132261276245117,-84.2437744140625,-243.011474609375,-311.767578125
15.569999900000001,-42.27202606201172,13.589488983154297,-7.845798969268799,-82.09228515625,-257.6751708984375,-237.9150390625
15.5899999,-31.268274307250977,18.092981338500977,-3.7636849880218506,-82.9620361328125,-279.266357421875,-162.29248046875
15.6099999,-22.97954750061035,20.010738372802734,-1.1109095811843872,-63.1103515625,-231.93359375,-81.7413330078125
15.629999900000001,-16.970102310180664,19.462465286254883,-1.0654197931289673,-74.8748779296875,-168.792724609375,-9.002685546875
15.649999900000001,-12.248735427856445,16.608577728271484,-3.4380736351013184,-49.7894287109375,-110.931396484375,2.9754638671875
15.6699999,-8.166622161865234,11.801020622253418,-5.748478412628174,16.9677734375,-44.3115234375,-12.8631591796875
15.6899999,-4.398148536682129,6.785167694091797,-6.7708024978637695,49.49951171875,1.8768310546875,-15.1824951171875
15.709999900000001,-1.1109095811843872,2.671929121017456,-7.417236804962158,-5.218505859375,-55.8013916015625,5.43212890625
15.729999900000001,1.7190368175506592,0.5363011956214905,-7.079654216766357,11.688232421875,-54.107666015625,8.85009765625
15.7499999,3.821146011352539,-0.23702596127986908,-7.058106422424316,24.078369140625,-8.4228515625,22.88818359375
15.7699999,5.468356609344482,-0.7493851184844971,-7.060500621795654,17.2119140625,15.411376953125,35.7818603515625
15.789999900000002,6.651092529296875,-0.706289529800415,-6.943184852600098,31.341552734375,-0.9002685546875,-0.67138671875
15.809999900000001,7.489062786102295,-0.7158663272857666,-6.375759124755859,36.6363525390625,-7.537841796875,-10.772705078125
15.8299999,7.927201747894287,-0.5147533416748047,-5.674258232116699,28.411865234375,-2.593994140625,3.021240234375
15.8499999,8.073247909545898,-0.08858546614646912,-5.039794445037842,20.0653076171875,2.5787353515625,15.93017578125
15.869999900000002,8.037335395812988,0.2585737705230713,-4.4532151222229,20.56884765625,0.518798828125,10.2081298828125
15.889999900000001,7.936778545379639,0.15801730751991272,-4.067748546600342,21.3165283203125,-2.25830078125,6.7596435546875
15.9099999,7.819462776184082,-0.023942016065120697,-3.914519786834717,27.557373046875,1.3580322265625,6.8206787109375
15.9299999,7.694964408874512,-0.31364041566848755,-3.936067581176758,33.50830078125,8.2244873046875,11.4898681640625
15.9499999,7.575253963470459,-0.5123591423034668,-4.082113742828369,29.0069580078125,5.2947998046875,12.237548828125
15.969999900000001,7.481880187988281,-0.6967126727104187,-4.2329487800598145,18.8751220703125,-6.1187744140625,9.21630859375
15.9899999,7.390900611877441,-0.689530074596405,-4.481945514678955,13.7176513671875,-18.6614990234375,11.688232421875
16.0099999,7.2137298583984375,-0.4644751250743866,-5.027823448181152,22.9034423828125,-27.6947021484375,18.9208984375
16.0299999,6.897695064544678,-0.40940847992897034,-5.6455278396606445,25.3448486328125,-14.923095703125,31.92138671875
16.0499999,6.4380083084106445,-0.13407529890537262,-6.270414352416992,18.4173583984375,4.39453125,25.604248046875
16.0699999,5.839457988739014,-0.10534487664699554,-6.366182327270508,9.613037109375,5.279541015625,29.0985107421875
16.089999900000002,5.169081687927246,0.0933738648891449,-6.064512729644775,25.8941650390625,6.256103515625,41.778564453125
16.109999900000002,4.460397720336914,0.2777273952960968,-5.386953830718994,28.656005859375,10.19287109375,55.8929443359375
16.1299999,3.8139634132385254,0.5051765441894531,-4.558559894561768,21.4080810546875,39.0167236328125,72.7996826171875
16.1499999,3.3255462646484375,0.3447650372982025,-3.8115692138671875,4.974365234375,31.585693359375,89.35546875
16.1699999,3.07415509223938,0.09816227108240128,-3.2178070545196533,33.294677734375,28.411865234375,89.4775390625
16.1899999,3.004723072052002,-0.5793967843055725,-2.8203697204589844,40.0848388671875,33.477783203125,104.644775390625
16.2099999,2.980781078338623,-1.702277421951294,-2.655169725418091,-20.4925537109375,19.8516845703125,105.6671142578125
16.2299999,3.064578056335449,-2.7102363109588623,-2.5498247146606445,3.0059814453125,57.861328125,54.7027587890625
16.249999900000002,3.251325845718384,-3.8283286094665527,-2.0661959648132324,-47.91259765625,69.915771484375,23.49853515625
16.269999900000002,3.7636849880218506,-3.931279182434082,-1.6304513216018677,-125.8087158203125,3.326416015625,19.5159912109375
16.2899999,4.477157115936279,-3.627215623855591,-0.9983820915222168,-81.085205078125,-7.01904296875,71.380615234375
16.3099999,5.2911858558654785,-3.337517261505127,-0.9600749015808105,-7.26318359375,17.4407958984375,117.919921875
16.3299999,6.095637321472168,-3.3470940589904785,-1.4652514457702637,21.636962890625,47.332763671875,118.9117431640625
16.3499999,6.756437301635742,-3.9863457679748535,-2.051830768585205,145.1873779296875,139.5111083984375,104.217529296875
16.3699999,7.24485445022583,-4.821922302246094,-2.078166961669922,348.5260009765625,255.5694580078125,134.613037109375
16.3899999,7.568071365356445,-5.894524574279785,-0.586579442024231,386.3372802734375,285.2935791015625,174.9420166015625
16.4099999,7.603984832763672,-6.9240312576293945,0.8188169598579407,67.108154296875,95.5810546875,140.960693359375
16.429999900000002,7.51779317855835,-7.508216381072998,2.760514497756958,19.683837890625,27.008056640625,98.0072021484375
16.4499999,7.240066051483154,-7.608773231506348,3.600879430770874,110.6719970703125,107.574462890625,121.7041015625
16.4699999,6.914454460144043,-7.275979042053223,3.818751811981201,124.08447265625,129.4097900390625,167.3126220703125
16.4899999,6.303933143615723,-7.383718013763428,3.641580820083618,78.582763671875,96.3134765625,193.9239501953125
16.5099999,5.5329999923706055,-7.99184513092041,3.2417490482330322,72.0977783203125,110.65673828125,130.889892578125
16.5299999,4.649539470672607,-8.616731643676758,2.849100112915039,122.7874755859375,159.3017578125,71.6094970703125
16.5499999,3.8522706031799316,-8.990227699279785,2.9712042808532715,166.473388671875,199.8443603515625,99.7314453125
16.5699999,3.201047658920288,-8.956708908081055,3.818751811981201,171.2799072265625,190.24658203125,148.5443115234375
16.589999900000002,2.652775526046753,-8.78193187713623,5.04218864440918,155.670166015625,159.7747802734375,127.9449462890625
16.609999900000002,2.145204782485962,-8.935160636901855,6.19379997253418,186.676025390625,183.1207275390625,95.550537109375
16.6299999,1.5682021379470825,-8.81784439086914,6.737283706665039,275.93994140625,257.049560546875,95.1995849609375
16.6499999,0.7469909191131592,-8.406042098999023,6.976703643798828,345.8404541015625,312.4847412109375,103.729248046875
16.6699999,-0.23942017555236816,-7.582436561584473,7.196970462799072,321.4263916015625,295.34912109375,113.922119140625
16.6899999,-1.7357962131500244,-6.524199485778809,7.9415669441223145,261.4288330078125,274.3988037109375,87.6922607421875
16.7099999,-2.894589900970459,-5.631162166595459,9.404424667358398,253.8604736328125,263.824462890625,94.757080078125
16.7299999,-4.015076160430908,-4.2975921630859375,11.367670059204102,190.948486328125,227.35595703125,22.5830078125
16.749999900000002,-4.786009311676025,-2.892195701599121,13.290213584899902,82.733154296875,201.9195556640625,3.2196044921875
16.769999900000002,-5.214571475982666,-1.98958158493042,14.413094520568848,74.1119384765625,178.7567138671875,48.0804443359375
16.7899999,-5.805939197540283,-1.522712230682373,14.968548774719238,94.4671630859375,193.4051513671875,14.09912109375
16.8099999,-6.3949127197265625,-1.4269442558288574,14.556746482849121,154.5562744140625,177.490234375,-38.0096435546875
16.8299999,-6.809109687805176,-1.7836803197860718,14.190433502197266,147.8118896484375,138.0462646484375,-14.434814453125
16.8499999,-7.139509677886963,-1.7334020137786865,13.630189895629883,90.5609130859375,120.3460693359375,-11.444091796875
16.8699999,-7.311892032623291,-1.278503656387329,12.971784591674805,62.31689453125,109.55810546875,-42.0684814453125
16.8899999,-7.357381820678711,-0.7398083209991455,12.255918502807617,46.0052490234375,105.0567626953125,-32.2113037109375
16.9099999,-7.479485988616943,-0.19871874153614044,11.563994407653809,33.4930419921875,94.2535400390625,-21.97265625
16.929999900000002,-7.5632829666137695,0.033518824726343155,11.161767959594727,32.928466796875,82.183837890625,-30.5633544921875
16.9499999,-7.659051418304443,-0.12449848651885986,10.771512985229492,19.34814453125,64.788818359375,-44.98291015625
16.9699999,-7.673416614532471,-0.3519476354122162,10.319009780883789,11.8255615234375,65.765380859375,-51.666259765625
16.9899999,-7.632715225219727,-0.5961562395095825,9.648633003234863,5.2947998046875,74.3408203125,-49.8809814453125
17.0099999,-7.63989782333374,-0.8044517636299133,8.927978515625,-3.509521484375,74.76806640625,-52.67333984375
17.0299999,-7.580042362213135,-0.8619126081466675,8.360552787780762,-21.4996337890625,60.4400634765625,-72.6165771484375
17.0499999,-7.577648162841797,-0.9888052940368652,7.965508937835693,-29.0374755859375,33.599853515625,-67.56591796875
17.0699999,-7.422025203704834,-1.0247182846069336,7.759607791900635,-24.7039794921875,22.064208984375,-28.778076171875
17.089999900000002,-7.295132637023926,-0.9911994934082031,7.587224960327148,-29.937744140625,30.82275390625,-23.49853515625
17.109999900000002,-7.168240070343018,-1.1252747774124146,7.357381820678711,-32.318115234375,26.1688232421875,-16.998291015625
17.1299999,-7.122750282287598,-1.5466543436050415,7.2568254470825195,-24.84130859375,22.3236083984375,-10.345458984375
17.1499999,-7.273584842681885,-2.0422539710998535,7.12035608291626,-19.2413330078125,10.894775390625,-20.9197998046875
17.1699999,-7.359776020050049,-2.408566951751709,6.993463039398193,-38.6810302734375,2.6702880859375,-37.2161865234375
17.1899999,-7.503427982330322,-2.5019407272338867,6.971915245056152,-45.7611083984375,27.64892578125,-21.3470458984375
17.2099999,-7.582436561584473,-2.5474305152893066,6.801927089691162,-36.590576171875,39.0777587890625,7.14111328125
17.2299999,-7.572859764099121,-2.542642116546631,6.744466304779053,-18.5546875,43.2891845703125,7.7056884765625
17.249999900000002,-7.603984832763672,-2.8634653091430664,6.845022678375244,-17.1966552734375,63.9801025390625,-15.6402587890625
17.269999900000002,-7.46033239364624,-3.6128504276275635,6.552929878234863,-48.7518310546875,-25.421142578125,-33.2489013671875
17.2899999,-7.2568254470825195,-3.845088005065918,6.344634532928467,-10.650634765625,10.1776123046875,-37.4603271484375
17.3099999,-7.321468830108643,-3.3949780464172363,5.8873419761657715,13.2598876953125,-10.833740234375,-54.9468994140625
17.3299999,-7.2137298583984375,-3.49314022064209,5.904101371765137,38.665771484375,19.287109375,-15.2587890625
17.3499999,-7.295132637023926,-2.980781078338623,5.770026206970215,63.2781982421875,53.802490234375,-3.5247802734375
17.3699999,-7.216124057769775,-3.00711727142334,6.066906929016113,88.348388671875,57.8460693359375,26.9012451171875
17.3899999,-7.184999465942383,-3.1196448802948,6.45476770401001,148.773193359375,33.416748046875,43.792724609375
17.409999900000003,-7.137115478515625,-3.098097085952759,6.641515731811523,193.7103271484375,-25.4974365234375,9.6435546875
17.429999900000002,-7.287950038909912,-3.1483752727508545,6.763619899749756,193.90869140625,-33.0963134765625,9.46044921875
17.4499999,-7.513004779815674,-3.1028854846954346,6.524199485778809,145.8282470703125,-24.47509765625,21.1639404296875
17.4699999,-7.692570209503174,-2.892195701599121,6.100425720214844,115.0054931640625,-14.95361328125,24.35302734375
17.4899999,-7.807491779327393,-2.6240451335906982,5.781997203826904,108.9324951171875,35.4461669921875,21.0113525390625
17.5099999,-7.745242595672607,-2.0638017654418945,5.4444146156311035,72.784423828125,65.5059814453125,19.04296875
17.5299999,-7.565677165985107,-1.623268723487854,5.367800235748291,34.698486328125,63.2781982421875,26.153564453125
17.5499999,-7.398083209991455,-1.3886369466781616,5.305551052093506,62.8204345703125,63.6444091796875,-0.9613037109375
17.5699999,-7.328651428222656,-1.3000515699386597,5.370194435119629,60.9130859375,40.1763916015625,-60.7757568359375
17.589999900000002,-7.5632829666137695,-1.2761094570159912,5.506663799285889,32.8521728515625,12.2833251953125,-85.968017578125
17.609999900000002,-7.939172744750977,-1.137245774269104,5.394136428833008,52.734375,-5.0506591796875,-29.3426513671875
17.6299999,-8.403648376464844,-0.9696516990661621,5.298368453979492,32.5775146484375,22.5372314453125,22.4456787109375
17.6499999,-8.755595207214355,-0.8523358106613159,4.944026470184326,-41.93115234375,48.5992431640625,-1.2969970703125
17.6699999,-8.851364135742188,-0.7206547260284424,4.7620673179626465,-92.926025390625,55.1300048828125,-14.2364501953125
17.6899999,-8.69334602355957,-0.6991068720817566,5.07570743560791,-147.705078125,58.7158203125,33.0963134765625
17.7099999,-8.552088737487793,-0.3758896589279175,5.027823448181152,-6.6070556640625,-8.941650390625,56.7779541015625
17.7299999,-8.367734909057617,-0.15801730751991272,5.343858242034912,72.906494140625,-7.9498291015625,55.9539794921875
17.749999900000002,-8.26239013671875,0.13168109953403473,5.114014625549316,60.943603515625,25.360107421875,54.901123046875
17.769999900000002,-8.315062522888184,0.2777273952960968,4.663905143737793,28.656005859375,38.6199951171875,41.44287109375
17.7899999,-8.51138687133789,0.2585737705230713,4.352658748626709,-48.9654541015625,60.546875,65.36865234375
17.8099999,-8.762778282165527,0.10773907601833344,4.2544965744018555,-103.5308837890625,86.42578125,23.681640625
17.8299999,-9.078812599182129,-0.0933738648891449,4.630385875701904,-79.2999267578125,72.7996826171875,-33.233642578125
17.8499999,-9.373299598693848,-0.40701428055763245,4.963180065155029,-13.7939453125,50.933837890625,-55.17578125
17.8699999,-9.543288230895996,-0.5889736413955688,5.161899089813232,17.88330078125,36.376953125,-68.2830810546875
17.8899999,-9.617507934570312,-0.6129156351089478,5.592854976654053,18.157958984375,53.2379150390625,-68.1610107421875
17.909999900000003,-9.660603523254395,-0.5267243981361389,5.284003257751465,148.9410400390625,5.9051513671875,-61.3250732421875
17.929999900000002,-9.552865028381348,-0.5770025849342346,4.51067590713501,208.892822265625,-52.1392822265625,-20.9808349609375
17.9499999,-9.44752025604248,-0.3711012601852417,4.1180267333984375,57.037353515625,11.199951171875,1.4190673828125
17.9699999,-9.315838813781738,-0.4836287498474121,3.1004912853240967,95.8099365234375,10.8184814453125,8.514404296875
17.9899999,-9.224859237670898,-0.6320692300796509,2.7078421115875244,178.253173828125,-23.681640625,30.426025390625
18.0099999,-9.169792175292969,-0.4405331015586853,2.760514497756958,166.1376953125,-27.6031494140625,47.2259521484375
18.0299999,-9.188945770263672,-0.30885201692581177,3.045424461364746,179.26025390625,-16.05224609375,50.201416015625
18.0499999,-9.10993766784668,0.38307225704193115,3.1531636714935303,299.5147705078125,-41.07666015625,75.0885009765625
18.0699999,-9.028534889221191,1.0103530883789062,3.28963303565979,333.709716796875,-48.40087890625,78.1707763671875
18.089999900000002,-8.916007041931152,1.601720929145813,3.184288263320923,200.7904052734375,-35.7818603515625,50.506591796875
18.109999900000002,-8.722076416015625,2.3104045391082764,3.162740468978882,173.64501953125,-2.960205078125,-6.34765625
18.1299999,-8.547300338745117,2.7461493015289307,2.7724854946136475,265.716552734375,-19.622802734375,-0.6103515625
18.1499999,-8.413225173950195,3.205836057662964,2.7916390895843506,356.0333251953125,-4.0130615234375,18.7225341796875
18.1699999,-8.391676902770996,3.426102638244629,2.75812029838562,356.01806640625,3.23486328125,5.4168701171875
18.1899999,-8.463502883911133,3.2537200450897217,2.559401512145996,369.4305419921875,-34.149169921875,-18.5699462890625
18.2099999,-8.655038833618164,3.157952070236206,2.360682964324951,339.2486572265625,-42.5567626953125,-70.1141357421875
18.2299999,-8.925583839416504,3.043030261993408,1.9177556037902832,255.9051513671875,-21.66748046875,-101.74560546875
18.249999900000002,-8.971074104309082,2.9472622871398926,0.6775590777397156,187.2711181640625,-21.1639404296875,-69.854736328125
18.269999900000002,-9.05247688293457,2.9975404739379883,-0.6560112833976746,117.7520751953125,14.801025390625,-89.4317626953125
18.2899999,-9.105149269104004,2.8826189041137695,-1.5298948287963867,75.1495361328125,96.13037109375,-107.879638671875
18.3099999,-9.198522567749023,2.8586769104003906,-2.2433669567108154,8.4228515625,69.76318359375,-90.118408203125
18.3299999,-9.437943458557129,3.026270866394043,-1.6831238269805908,-39.0625,75.0579833984375,-92.8192138671875
18.3499999,-9.59835433959961,3.117250680923462,-1.137245774269104,60.2569580078125,80.535888671875,-41.8853759765625
18.3699999,-9.66539192199707,3.157952070236206,-0.7038952708244324,144.1497802734375,70.7855224609375,13.2598876953125
18.3899999,-9.730035781860352,2.9664158821105957,-0.5003881454467773,133.36181640625,85.9222412109375,11.0931396484375
18.409999900000003,-9.909601211547852,3.0621838569641113,-0.6392518281936646,122.3297119140625,82.45849609375,7.537841796875
18.429999900000002,-10.079588890075684,3.002328872680664,-0.7398083209991455,148.6663818359375,75.775146484375,44.4488525390625
18.4499999,-10.158597946166992,3.246537446975708,-0.8738836050033569,130.55419921875,58.8226318359375,39.6575927734375
18.4699999,-9.974244117736816,3.5936968326568604,-1.2186486721038818,120.60546875,33.0352783203125,16.9219970703125
18.4899999,-9.583989143371582,3.4308910369873047,-2.1308395862579346,270.050048828125,43.792724609375,42.0379638671875
18.5099999,-9.138668060302734,3.2321722507476807,-3.1268274784088135,366.14990234375,98.1903076171875,4.0740966796875
18.5299999,-8.9064302444458,2.8227639198303223,-4.2329487800598145,228.302001953125,120.6817626953125,-19.7906494140625
18.5499999,-8.75080680847168,2.250549554824829,-4.900930881500244,94.818115234375,105.6365966796875,8.30078125
18.5699999,-8.757989883422852,1.987187385559082,-4.991910457611084,71.6552734375,90.850830078125,32.8826904296875
18.589999900000002,-8.901641845703125,2.0207061767578125,-4.733336925506592,59.7381591796875,69.000244140625,43.8232421875
18.609999900000002,-8.856152534484863,1.8195933103561401,-4.153939723968506,43.9605712890625,44.097900390625,78.6590576171875
18.6299999,-8.746018409729004,1.721431016921997,-3.885789394378662,-29.8614501953125,-19.622802734375,53.0242919921875
18.6499999,-8.453926086425781,1.1803414821624756,-3.706224203109741,-56.57958984375,-46.3409423828125,37.5518798828125
18.6699999,-8.164227485656738,0.5099649429321289,-4.043806552886963,7.9803466796875,-25.177001953125,30.0140380859375
18.6899999,-8.099584579467773,0.27054479718208313,-4.446032524108887,60.7147216796875,-13.97705078125,-15.13671875
18.7099999,-8.243236541748047,0.3734954595565796,-5.04218864440918,56.33544921875,-27.008056640625,-23.98681640625
18.7299999,-8.671798706054688,1.0630255937576294,-5.492298603057861,34.027099609375,-18.98193359375,0.9002685546875
18.749999900000002,-8.956708908081055,2.0446481704711914,-5.762843608856201,81.512451171875,45.684814453125,15.9759521484375
18.769999900000002,-9.136273384094238,2.6862943172454834,-5.789179801940918,77.3773193359375,66.0552978515625,43.853759765625
18.7899999,-9.016563415527344,2.5546131134033203,-5.348646640777588,97.3052978515625,78.0792236328125,37.53662109375
18.8099999,-8.62391471862793,2.382230758666992,-5.039794445037842,133.4686279296875,84.9609375,-6.9122314453125
18.8299999,-7.841010570526123,1.4844050407409668,-5.185841083526611,60.05859375,61.0809326171875,-3.23486328125
18.8499999,-7.261613845825195,0.9624691009521484,-5.214571475982666,-21.8353271484375,65.521240234375,31.707763671875
18.8699999,-6.718130111694336,0.6488286852836609,-5.896918773651123,-5.6304931640625,54.5196533203125,26.4129638671875
18.8899999,-6.665457725524902,0.5195417404174805,-5.937620162963867,-3.0975341796875,29.815673828125,39.947509765625
18.909999900000003,-6.943184852600098,0.6536170840263367,-5.920860767364502,-52.6885986328125,-30.853271484375,44.8150634765625
18.929999900000002,-7.429207801818848,1.2234370708465576,-5.990292549133301,-77.5299072265625,-76.0498046875,47.7142333984375
18.9499999,-7.661445617675781,1.2018892765045166,-6.119579315185547,-62.3779296875,-50.323486328125,77.57568359375
18.9699999,-7.888894557952881,1.5945383310317993,-6.517016887664795,-25.7110595703125,-16.754150390625,32.1502685546875
18.9899999,-7.9176249504089355,1.6208745241165161,-6.481103897094727,4.2572021484375,23.62060546875,12.2528076171875
19.0099999,-7.819462776184082,1.4891934394836426,-6.593631267547607,57.2357177734375,15.2587890625,57.2662353515625
19.0299999,-7.706935405731201,1.647210717201233,-6.327875137329102,98.0072021484375,30.426025390625,25.7720947265625
19.0499999,-7.484274387359619,1.6376339197158813,-6.311115741729736,12.3748779296875,-5.5084228515625,-5.06591796875
19.0699999,-7.4316020011901855,1.9033904075622559,-6.356605529785156,-51.513671875,-35.369873046875,4.6234130859375
19.089999900000002,-7.484274387359619,2.2002713680267334,-6.19379997253418,-1.3580322265625,7.6904296875,30.70068359375
19.109999900000002,-7.572859764099121,2.5546131134033203,-6.016628742218018,34.698486328125,7.232666015625,29.693603515625
19.1299999,-7.6997528076171875,2.7246015071868896,-5.600037574768066,-29.6173095703125,-32.501220703125,1.2664794921875
19.1499999,-7.637503623962402,2.784456491470337,-5.341464042663574,-56.549072265625,-45.257568359375,-13.9007568359375
19.1699999,-7.654263019561768,2.9041666984558105,-4.908113479614258,-7.476806640625,-28.167724609375,-4.2877197265625
19.1899999,-7.972691535949707,3.3854012489318848,-4.865017890930176,22.1405029296875,-51.94091796875,13.7176513671875
19.2099999,-8.070854187011719,3.2609026432037354,-5.044582843780518,-7.720947265625,-52.3681640625,54.0924072265625
19.2299999,-8.327033042907715,3.3686418533325195,-5.1331682205200195,-81.8939208984375,2.3345947265625,8.8348388671875
19.249999900000002,-8.183381080627441,2.652775526046753,-5.327098846435547,-66.89453125,-1.9683837890625,-24.3682861328125
19.269999900000002,-7.90086555480957,1.944091796875,-5.094861030578613,-73.577880859375,-42.9534912109375,-32.562255859375
19.2899999,-7.843404769897461,1.6735470294952393,-4.596867084503174,-84.28955078125,-59.8907470703125,-61.95068359375
19.3099999,-7.82185697555542,1.599326729774475,-3.9217023849487305,-84.442138671875,-35.9039306640625,-58.6700439453125
19.3299999,-7.989450931549072,1.9369091987609863,-3.428496837615967,-81.7413330078125,-39.4439697265625,-51.94091796875
19.3499999,-8.197746276855469,2.3343467712402344,-2.806004285812378,-97.930908203125,-66.3909912109375,-77.667236328125
19.3699999,-8.293514251708984,2.343923568725586,-2.276885747909546,-61.676025390625,-79.1015625,-79.498291015625
19.3899999,-8.382100105285645,2.2888567447662354,-1.8794482946395874,20.5535888671875,-80.4901123046875,-85.9375
19.409999900000003,-8.465897560119629,2.0015525817871094,-1.6065093278884888,26.611328125,-101.837158203125,-95.7794189453125
19.429999900000002,-8.616731643676758,1.778891921043396,-1.6424223184585571,-4.1656494140625,-109.3902587890625,-90.7745361328125
19.4499999,-8.9064302444458,1.6855180263519287,-1.6711528301239014,-10.55908203125,-103.08837890625,-80.078125
19.4699999,-9.208099365234375,1.601720929145813,-1.845929503440857,47.821044921875,-60.1806640625,-38.8946533203125
19.4899999,-9.579200744628906,1.6160861253738403,-1.8363527059555054,97.3052978515625,-49.2095947265625,-19.989013671875
19.5099999,-9.904812812805176,1.8339585065841675,-2.1140801906585693,96.86279296875,-70.556640625,-26.9622802734375
19.5299999,-9.971850395202637,1.8770540952682495,-2.5546131134033203,57.8155517578125,-84.7320556640625,-10.4827880859375
19.5499999,-9.974244117736816,1.8124107122421265,-2.846705913543701,-33.4625244140625,-53.2684326171875,-8.819580078125
19.5699999,-9.797073364257812,1.5418659448623657,-3.1028854846954346,-1.03759765625,-21.6064453125,-25.4364013671875
19.589999900000002,-9.694122314453125,1.1204863786697388,-2.8778305053710938,32.2723388671875,-11.7034912109375,-28.167724609375
19.609999900000002,-9.744400978088379,0.9720458984375,-2.4684219360351562,4.9591064453125,-13.1072998046875,-25.848388671875
19.6299999,-9.950302124023438,1.0558429956436157,-2.0254945755004883,-13.18359375,-8.7738037109375,-4.6844482421875
19.6499999,-10.218452453613281,1.3503297567367554,-1.699883222579956,-16.2200927734375,-1.1444091796875,10.5743408203125
19.6699999,-10.441113471984863,1.6639702320098877,-1.4915876388549805,-9.09423828125,-7.8277587890625,5.7525634765625
19.6899999,-10.44350814819336,1.6543933153152466,-1.3311761617660522,-1.617431640625,-0.213623046875,13.5955810546875
19.7099999,-10.290278434753418,1.6208745241165161,-1.3838485479354858,3.173828125,-3.96728515625,11.65771484375
19.7299999,-10.098742485046387,1.5682021379470825,-1.3215993642807007,14.373779296875,-10.3607177734375,7.4310302734375
19.749999900000002,-9.832986831665039,1.4915876388549805,-1.4437036514282227,17.02880859375,-22.0489501953125,13.641357421875
19.769999900000002,-9.59596061706543,1.455674648284912,-1.7094600200653076,21.3470458984375,-29.4647216796875,15.31982421875
19.7899999,-9.363722801208496,1.3670891523361206,-2.011129379272461,29.754638671875,-12.664794921875,9.429931640625
19.8099999,-9.229647636413574,1.2497732639312744,-2.2888567447662354,22.216796875,-12.603759765625,-0.640869140625
19.8299999,-9.172186851501465,1.2234370708465576,-2.4157495498657227,22.064208984375,-19.287109375,-6.89697265625
19.8499999,-9.253589630126953,1.1827356815338135,-2.27209734916687,24.3682861328125,-18.98193359375,1.068115234375
19.8699999,-9.27034854888916,1.1085153818130493,-2.3127987384796143,21.17919921875,-22.15576171875,-1.7547607421875
19.8899999,-9.248801231384277,1.1635819673538208,-2.4205379486083984,-17.730712890625,-20.843505859375,-27.374267578125
19.909999900000003,-9.253589630126953,1.4676456451416016,-2.5977089405059814,-68.29833984375,-14.3890380859375,-32.7606201171875
19.929999900000002,-9.255983352661133,2.0254945755004883,-3.071760892868042,-55.267333984375,-22.8118896484375,-17.578125
19.9499999,-9.607931137084961,3.069366693496704,-3.581725835800171,-91.9342041015625,-31.3568115234375,-16.876220703125
19.9699999,-10.457873344421387,4.173093795776367,-4.039018154144287,-135.1470947265625,-24.017333984375,-24.2919921875
19.9899999,-11.674127578735352,5.403713226318359,-5.564124584197998,9.002685546875,-8.7432861328125,-3.60107421875
20.0099999,-13.433865547180176,7.876923561096191,-9.619902610778809,83.06884765625,-37.1246337890625,-16.326904296875
20.0299999,-16.601394653320312,12.445060729980469,-15.591041564941406,-112.1368408203125,0.06103515625,-2.9144287109375
20.0499999,-21.380220413208008,19.275718688964844,-24.763227462768555,-87.371826171875,125.8697509765625,144.8516845703125
20.0699999,-28.8453426361084,27.054479598999023,-35.66881561279297,71.1212158203125,262.2833251953125,335.9375
20.089999900000002,-40.34708786010742,36.27694320678711,-43.39490509033203,-51.5899658203125,447.113037109375,463.5162353515625
20.109999900000002,-52.8304557800293,42.70058822631836,-46.30625534057617,-85.906982421875,499.9847412109375,499.9847412109375
20.1299999,-65.72322845458984,45.88248062133789,-42.755653381347656,-43.64013671875,499.9847412109375,499.9847412109375
20.1499999,-75.75493621826172,44.20893478393555,-32.82210922241211,-89.9505615234375,499.9847412109375,499.9847412109375
20.1699999,-78.45320129394531,34.770992279052734,-18.576610565185547,-196.6400146484375,499.9847412109375,499.9847412109375
20.1899999,-78.45320129394531,16.780960083007812,-0.3734954595565796,-216.85791015625,489.5172119140625,499.9847412109375
