# Time (seconds),Accel_X,Accel_Y,Accel_Z,Gyro_X,Gyro_Y,Gyro_Z
0.0099999,0.4189853072166443,1.9057846069335938,-9.832986831665039,15.80810546875,-12.8173828125,30.1971435546875
0.029999900000000003,0.3926490843296051,1.6543933153152466,-9.825803756713867,19.9737548828125,-8.758544921875,25.634765625
0.0499999,0.363918662071228,1.436521053314209,-9.840168952941895,18.4326171875,-4.1046142578125,24.6124267578125
0.0699999,0.3663128614425659,1.2761094570159912,-9.856928825378418,12.4969482421875,0.48828125,19.3328857421875
0.08999990000000001,0.38067805767059326,1.161187767982483,-9.849745750427246,8.48388671875,6.0577392578125,9.674072265625
0.10999990000000001,0.4118026793003082,1.1276689767837524,-9.81143856048584,6.256103515625,14.404296875,4.7607421875
0.1299999,0.44771572947502136,1.1540051698684692,-9.713275909423828,4.0740966796875,16.0369873046875,5.1116943359375
0.14999990000000002,0.48602294921875,1.192312479019165,-9.600749015808105,8.5906982421875,14.678955078125,4.7149658203125
0.1699999,0.5339069962501526,1.1827356815338135,-9.452308654785156,10.6353759765625,15.6707763671875,-0.4425048828125
0.1899999,0.5793967843055725,1.1827356815338135,-9.282320022583008,6.8359375,10.8795166015625,-6.988525390625
0.20999990000000002,0.6248866319656372,1.173158884048462,-9.282320022583008,6.3629150390625,-6.1187744140625,-3.90625
0.2299999,0.646434485912323,1.213860273361206,-9.294290542602539,0.152587890625,-1.007080078125,0.9307861328125
0.2499999,0.6416460275650024,1.2713210582733154,-9.457097053527832,-7.32421875,1.617431640625,0.67138671875
0.2699999,0.6344634294509888,1.2737152576446533,-9.641449928283691,-6.53076171875,0.8087158203125,1.2664794921875
0.28999990000000003,0.6129156351089478,1.2761094570159912,-9.782708168029785,-4.5928955078125,3.5247802734375,-1.007080078125
0.3099999,0.6057330369949341,1.278503656387329,-9.8784761428833,-5.6304931640625,6.683349609375,-3.662109375
0.3299999,0.6105214357376099,1.3551181554794312,-9.904812812805176,-5.31005859375,9.2620849609375,-3.60107421875
0.34999990000000003,0.6272808313369751,1.4844050407409668,-9.86889934539795,-5.5084228515625,10.528564453125,-1.3885498046875
0.3699999,0.667982280254364,1.623268723487854,-9.782708168029785,-4.6844482421875,7.7362060546875,1.40380859375
0.3899999,0.7038952708244324,1.7501614093780518,-9.694122314453125,-4.730224609375,2.8533935546875,0.8087158203125
0.40999990000000003,0.7422025203704834,1.8195933103561401,-9.617507934570312,-5.767822265625,1.9073486328125,0.3509521484375
0.4299999,0.768538773059845,1.8124107122421265,-9.610325813293457,-4.9591064453125,3.1280517578125,2.74658203125
0.4499999,0.7829039692878723,1.7717092037200928,-9.627084732055664,-3.5858154296875,6.500244140625,1.6937255859375
0.4699999,0.7972691655158997,1.7286136150360107,-9.646238327026367,-3.0059814453125,8.1634521484375,-1.983642578125
0.4899999,0.8092401623725891,1.6855180263519287,-9.641449928283691,-3.9520263671875,5.5389404296875,-0.7171630859375
0.5099999,0.8259995579719543,1.6687586307525635,-9.600749015808105,-3.7841796875,5.096435546875,1.8157958984375
0.5299999,0.8331822156906128,1.647210717201233,-9.550470352172852,-2.227783203125,4.058837890625,0.9765625
0.5499999,0.8427590131759644,1.6280571222305298,-9.528923034667969,-1.1138916015625,1.3885498046875,-1.0528564453125
0.5699999,0.8355764150619507,1.6160861253738403,-9.50737476348877,1.922607421875,2.0294189453125,-1.52587890625
0.5899998999999999,0.8236053586006165,1.5682021379470825,-9.481039047241211,2.50244140625,1.861572265625,2.44140625
0.6099998999999999,0.8140285611152649,1.4939818382263184,-9.433155059814453,2.9144287109375,-1.7242431640625,2.86865234375
0.6299999,0.8068459630012512,1.41257905960083,-9.370905876159668,1.5869140625,-3.0517578125,-4.180908203125
0.6499999,0.8020575642585754,1.3646949529647827,-9.32541561126709,-1.251220703125,-2.99072265625,-6.5765380859375
0.6699999,0.8020575642585754,1.4053963422775269,-9.370905876159668,-1.617431640625,-4.5623779296875,-2.1514892578125
0.6899999,0.7805097699165344,1.5179238319396973,-9.418789863586426,1.190185546875,-2.1209716796875,0.1068115234375
0.7099999,0.7613561153411865,1.601720929145813,-9.526528358459473,1.9378662109375,-4.425048828125,2.0904541015625
0.7299998999999999,0.7374141216278076,1.6400281190872192,-9.651026725769043,0.1983642578125,-7.7972412109375,-0.7171630859375
0.7499998999999999,0.7134721279144287,1.6160861253738403,-9.770736694335938,-0.4730224609375,-3.9215087890625,-3.3721923828125
0.7699999,0.6967126727104187,1.5897499322891235,-9.9000244140625,-1.1138916015625,-0.030517578125,-2.960205078125
0.7899999,0.6751648783683777,1.599326729774475,-10.012551307678223,2.0294189453125,-0.4730224609375,-2.7313232421875
0.8099999,0.6512228846549988,1.623268723487854,-9.988609313964844,-0.06103515625,3.265380859375,-0.8544921875
0.8299999,0.6344634294509888,1.6136919260025024,-9.928754806518555,-3.6468505859375,-2.9144287109375,2.532958984375
0.8499998999999999,0.6224924325942993,1.556231141090393,-9.821015357971191,-3.631591796875,-8.1024169921875,0.42724609375
0.8699998999999999,0.6224924325942993,1.525106430053711,-9.787496566772461,-3.84521484375,-7.0343017578125,-5.79833984375
0.8899999,0.629675030708313,1.53707754611969,-9.904812812805176,-0.579833984375,-4.486083984375,-6.65283203125
0.9099999,0.6344634294509888,1.625662922859192,-10.125079154968262,2.166748046875,0.7781982421875,-0.8087158203125
0.9299999,0.6320692300796509,1.7357962131500244,-10.323798179626465,0.7171630859375,6.9122314453125,2.716064453125
0.9499999,0.6320692300796509,1.7597382068634033,-10.453084945678711,0.457763671875,4.1351318359375,3.0670166015625
0.9699998999999999,0.629675030708313,1.7166426181793213,-10.426748275756836,0.6103515625,3.5400390625,0.5340576171875
0.9899998999999999,0.6344634294509888,1.6136919260025024,-10.259154319763184,-1.3427734375,7.904052734375,-0.6561279296875
1.0099999,0.6416460275650024,1.522712230682373,-10.0580415725708,-1.9378662109375,5.92041015625,-0.1068115234375
1.0299999,0.6560112833976746,1.4628572463989258,-9.794678688049316,-1.678466796875,5.8441162109375,-0.213623046875
1.0499999,0.6703764796257019,1.4317326545715332,-9.545681953430176,-2.0904541015625,5.8441162109375,-0.457763671875
1.0699999,0.6943184733390808,1.400607943534851,-9.349357604980469,-0.6866455078125,2.25830078125,0.030517578125
1.0899999,0.7134721279144287,1.414973258972168,-9.188945770263672,-2.6702880859375,2.593994140625,-2.5634765625
1.1099999,0.7326257228851318,1.4437036514282227,-9.153033256530762,-1.64794921875,1.5106201171875,-2.38037109375
1.1299999,0.7398083209991455,1.5059528350830078,-9.155426979064941,-2.3345947265625,1.89208984375,0.7476806640625
1.1499999,0.7445967197418213,1.5466543436050415,-9.210494041442871,-2.01416015625,3.35693359375,2.5634765625
1.1699998999999999,0.7469909191131592,1.5490485429763794,-9.275136947631836,-1.3580322265625,1.03759765625,0.946044921875
1.1899998999999999,0.7422025203704834,1.5394717454910278,-9.315838813781738,-2.8839111328125,1.007080078125,-4.0130615234375
1.2099999,0.7445967197418213,1.556231141090393,-9.361329078674316,-2.38037109375,1.03759765625,-4.5166015625
1.2299999,0.7350199222564697,1.6328455209732056,-9.390059471130371,-2.50244140625,1.6326904296875,-2.0751953125
1.2499999,0.730231523513794,1.7381904125213623,-9.418789863586426,-3.2501220703125,0.30517578125,0.7781982421875
1.2699999,0.7158663272857666,1.8195933103561401,-9.418789863586426,-5.1727294921875,0.0152587890625,0.457763671875
1.2899999,0.6991068720817566,1.8579005002975464,-9.418789863586426,-5.523681640625,-0.9613037109375,-0.8087158203125
1.3099999,0.6823474764823914,1.867477297782898,-9.41639518737793,-4.1351318359375,-1.800537109375,-2.1209716796875
1.3299999,0.6631938815116882,1.8938134908676147,-9.461885452270508,-2.6092529296875,-3.0517578125,-2.44140625
1.3499999,0.6584054827690125,1.9273324012756348,-9.519346237182617,-1.52587890625,-1.4495849609375,-1.007080078125
1.3699999,0.6607996821403503,1.9632453918457031,-9.603142738342285,-2.7923583984375,-1.64794921875,0.30517578125
1.3899999,0.6727706789970398,1.9776105880737305,-9.718064308166504,-1.678466796875,-3.997802734375,0.7171630859375
1.4099999,0.6775590777397156,1.9800047874450684,-9.792284965515137,-2.3193359375,-0.5950927734375,-0.5340576171875
1.4299998999999999,0.6775590777397156,1.9560627937316895,-9.880870819091797,-2.62451171875,0.091552734375,0.1220703125
1.4499999,0.6727706789970398,1.941697597503662,-9.9000244140625,-0.885009765625,1.40380859375,-0.3814697265625
1.4699999,0.6655880808830261,1.9393033981323242,-9.8784761428833,-0.79345703125,1.678466796875,-1.8157958984375
1.4899999,0.6584054827690125,1.9560627937316895,-9.835380554199219,-0.091552734375,-0.335693359375,-1.800537109375
1.5099999,0.6536170840263367,1.968033790588379,-9.763554573059082,-1.28173828125,1.3580322265625,0.3204345703125
1.5299999,0.6512228846549988,1.9632453918457031,-9.720458984375,-1.251220703125,1.3885498046875,1.251220703125
1.5499999,0.6512228846549988,1.9369091987609863,-9.684545516967773,-1.190185546875,1.7242431640625,-1.312255859375
1.5699999,0.6584054827690125,1.9033904075622559,-9.66299819946289,-1.3580322265625,2.1820068359375,-2.7313232421875
1.5899999,0.667982280254364,1.9105730056762695,-9.646238327026367,-2.8533935546875,1.678466796875,-2.2735595703125
1.6099999,0.6775590777397156,1.922544002532959,-9.634267807006836,-3.753662109375,1.15966796875,1.190185546875
1.6299999,0.6847416758537292,1.9345149993896484,-9.610325813293457,-2.0751953125,2.1209716796875,1.4190673828125
1.6499999,0.6943184733390808,1.9033904075622559,-9.610325813293457,0.4730224609375,0.6103515625,-0.7171630859375
1.6699999,0.6967126727104187,1.8531121015548706,-9.607931137084961,2.288818359375,2.01416015625,-2.2735595703125
1.6899998999999999,0.6991068720817566,1.8124107122421265,-9.627084732055664,2.74658203125,3.7078857421875,-2.593994140625
1.7099999,0.6943184733390808,1.7812861204147339,-9.62947940826416,3.5400390625,3.47900390625,-0.762939453125
1.7299999,0.6847416758537292,1.7621324062347412,-9.627084732055664,3.0059814453125,1.46484375,-0.6103515625
1.7499999,0.6751648783683777,1.7573440074920654,-9.643844604492188,2.0599365234375,-0.152587890625,-1.861572265625
1.7699999,0.667982280254364,1.745373010635376,-9.651026725769043,0.6561279296875,2.960205078125,-1.4190673828125
1.7899999,0.6655880808830261,1.742978811264038,-9.691728591918945,-0.9613037109375,2.0294189453125,0.0457763671875
1.8099999,0.6703764796257019,1.7357962131500244,-9.732429504394531,0.6256103515625,0.885009765625,-0.762939453125
1.8299999,0.6775590777397156,1.7310078144073486,-9.732429504394531,0.30517578125,3.6468505859375,-1.9378662109375
1.8499999,0.689530074596405,1.7262194156646729,-9.761159896850586,1.89208984375,1.3885498046875,-1.983642578125
1.8699999,0.6991068720817566,1.7357962131500244,-9.737217903137207,1.373291015625,2.6397705078125,-1.5411376953125
1.8899999,0.7038952708244324,1.766920804977417,-9.744400978088379,2.01416015625,2.4261474609375,-1.6937255859375
1.9099999,0.7134721279144287,1.778891921043396,-9.725247383117676,2.3040771484375,3.5400390625,-0.8087158203125
1.9299998999999999,0.7158663272857666,1.7836803197860718,-9.715670585632324,0.1068115234375,3.47900390625,-0.946044921875
1.9499999,0.7230489253997803,1.7693150043487549,-9.684545516967773,-2.5787353515625,2.227783203125,-2.13623046875
1.9699999,0.727837324142456,1.7501614093780518,-9.648633003234863,-1.5869140625,1.6632080078125,-2.3040771484375
1.9899999,0.7374141216278076,1.7525556087493896,-9.622296333312988,-0.1220703125,1.3580322265625,-2.2735595703125
2.0099999,0.7398083209991455,1.7836803197860718,-9.610325813293457,-0.274658203125,2.044677734375,-2.105712890625
2.0299999,0.7445967197418213,1.8052281141281128,-9.607931137084961,-0.1678466796875,3.4942626953125,0.2899169921875
2.0499999,0.7493851184844971,1.821987509727478,-9.600749015808105,-0.9918212890625,2.6397705078125,0.152587890625
2.0699999,0.751779317855835,1.8195933103561401,-9.591172218322754,-2.3345947265625,0.2899169921875,-1.2054443359375
2.0899999,0.751779317855835,1.8076223134994507,-9.588777542114258,-2.44140625,-0.9307861328125,-1.434326171875
2.1099999,0.7469909191131592,1.7980455160140991,-9.591172218322754,-0.9918212890625,1.251220703125,-0.0457763671875
2.1299999,0.7350199222564697,1.8052281141281128,-9.63187313079834,-1.1749267578125,1.129150390625,-0.823974609375
2.1499999,0.7254431247711182,1.7956513166427612,-9.670180320739746,-1.0833740234375,1.0528564453125,-0.3814697265625
2.1699999,0.7134721279144287,1.7884687185287476,-9.708487510681152,-1.739501953125,2.3956298828125,-0.9765625
2.1899999,0.706289529800415,1.7764976024627686,-9.744400978088379,-1.3580322265625,2.0904541015625,-1.7547607421875
2.2099999,0.7015010714530945,1.7741034030914307,-9.758766174316406,-0.18310546875,2.5482177734375,-1.678466796875
2.2299999,0.7038952708244324,1.7908629179000854,-9.751583099365234,-0.885009765625,3.021240234375,-2.0599365234375
2.2499999,0.706289529800415,1.824381709098816,-9.744400978088379,-1.46484375,1.64794921875,-1.739501953125
2.2699999,0.7158663272857666,1.8531121015548706,-9.718064308166504,-1.8463134765625,2.50244140625,-0.8697509765625
2.2899999,0.730231523513794,1.8722656965255737,-9.6989107131958,-2.3345947265625,3.60107421875,-0.579833984375
2.3099999,0.7445967197418213,1.8746598958969116,-9.708487510681152,-2.3651123046875,2.25830078125,-1.3427734375
2.3299999,0.7589619159698486,1.86508309841156,-9.708487510681152,-3.3721923828125,4.39453125,-1.6326904296875
2.3499999,0.7733271718025208,1.8602946996688843,-9.744400978088379,-3.6163330078125,5.3863525390625,-0.9765625
2.3699999,0.7876923680305481,1.8387469053268433,-9.710882186889648,-3.4332275390625,7.9803466796875,-0.396728515625
2.3899999,0.7948749661445618,1.8602946996688843,-9.694122314453125,-1.556396484375,5.096435546875,-3.1585693359375
2.4099999,0.811634361743927,1.843535304069519,-9.624691009521484,-2.2125244140625,4.547119140625,-2.0751953125
2.4299999,0.8236053586006165,1.8698714971542358,-9.57441234588623,-3.173828125,6.927490234375,-1.8463134765625
2.4499999,0.8379706144332886,1.8794482946395874,-9.550470352172852,-5.6304931640625,6.89697265625,-2.044677734375
2.4699999,0.8571242094039917,1.9057846069335938,-9.521739959716797,-6.103515625,8.056640625,-2.7923583984375
2.4899999,0.8690952062606812,1.9321208000183105,-9.50498104095459,-5.2490234375,6.9427490234375,-4.0283203125
2.5099999,0.8738836050033569,1.9728221893310547,-9.50737476348877,-3.4637451171875,4.486083984375,-3.60107421875
2.5299999,0.8738836050033569,2.0207061767578125,-9.459490776062012,-3.6163330078125,5.6915283203125,-2.960205078125
2.5499999,0.8786720037460327,2.056619167327881,-9.481039047241211,-1.89208984375,0.457763671875,-1.220703125
2.5699999,0.8834604024887085,2.0877439975738525,-9.47146224975586,-2.2735595703125,0.7781982421875,-2.1820068359375
2.5899999,0.8978256583213806,2.10210919380188,-9.495404243469238,-2.838134765625,3.387451171875,-3.2958984375
2.6099999,0.9217676520347595,2.0829553604125977,-9.53849983215332,-1.953125,1.64794921875,-3.11279296875
2.6299999,0.9385270476341248,2.0829553604125977,-9.586383819580078,-1.6326904296875,1.495361328125,-7.2784423828125
2.6499999,0.9457096457481384,2.099714994430542,-9.651026725769043,-1.190185546875,2.471923828125,-10.0860595703125
2.6699999,0.9433154463768005,2.123656988143921,-9.684545516967773,-2.6092529296875,7.965087890625,-5.828857421875
2.6899999,0.9361328482627869,2.164358377456665,-9.713275909423828,-2.25830078125,7.720947265625,-2.8533935546875
2.7099999,0.933738648891449,2.207453966140747,-9.715670585632324,-1.6021728515625,6.04248046875,-4.8065185546875
2.7299999,0.9648633003234863,2.2577321529388428,-9.749189376831055,-1.2359619140625,8.85009765625,-2.838134765625
2.7499999,0.9840168952941895,2.3726539611816406,-9.895236015319824,8.697509765625,13.85498046875,2.2125244140625
2.7699999,1.0558429956436157,2.434903144836426,-10.019734382629395,16.143798828125,29.022216796875,12.969970703125
2.7899999,1.1013327836990356,2.497152328491211,-10.165780067443848,22.1405029296875,36.2701416015625,14.7705078125
2.8099999,1.173158884048462,2.365471363067627,-10.146626472473145,21.820068359375,38.7725830078125,14.739990234375
2.8299999,1.2665326595306396,2.161964178085327,-10.000580787658691,16.693115234375,39.3524169921875,11.749267578125
2.8499999,1.3551181554794312,1.9847931861877441,-9.823410034179688,12.14599609375,33.111572265625,5.5389404296875
2.8699999,1.4867992401123047,1.9273324012756348,-9.703699111938477,12.8326416015625,32.684326171875,10.19287109375
2.8899999,1.5849615335464478,2.0398597717285156,-9.696516990661621,-11.2762451171875,34.0118408203125,22.7203369140625
2.9099999,1.6927006244659424,2.1332337856292725,-9.744400978088379,-13.580322265625,43.7774658203125,36.6668701171875
2.9299999,1.7980455160140991,2.1811177730560303,-9.730035781860352,1.0833740234375,50.811767578125,35.186767578125
2.9499999,1.9153614044189453,2.1499931812286377,-9.720458984375,10.467529296875,41.7022705078125,28.350830078125
2.9699999,2.049436569213867,1.9823989868164062,-9.62947940826416,11.65771484375,52.4139404296875,35.247802734375
2.9899999,2.2457611560821533,1.8818424940109253,-9.617507934570312,10.5133056640625,65.7196044921875,38.4063720703125
3.0099999,2.4396915435791016,1.845929503440857,-9.78989028930664,0.0762939453125,65.2923583984375,30.2581787109375
3.0299999,2.63362193107605,1.9249382019042969,-9.916783332824707,-11.6424560546875,92.681884765625,34.515380859375
3.0499999,2.8586769104003906,2.006340980529785,-9.84495735168457,-14.0533447265625,112.3046875,49.0570068359375
3.0699999,3.090914487838745,2.0829553604125977,-9.591172218322754,5.06591796875,88.226318359375,53.253173828125
3.0899999,3.361459255218506,2.054224967956543,-9.308655738830566,15.93017578125,58.685302734375,46.7987060546875
3.1099999,3.6559460163116455,1.9369091987609863,-8.995016098022461,18.890380859375,85.7696533203125,44.3267822265625
3.1299999,3.9887399673461914,1.8315643072128296,-8.875306129455566,30.609130859375,107.574462890625,49.285888671875
3.1499999,4.223371982574463,1.8555063009262085,-8.793902397155762,43.0145263671875,86.212158203125,46.9512939453125
3.1699999,4.481945514678955,1.7501614093780518,-8.370129585266113,51.3458251953125,79.7271728515625,57.3883056640625
3.1899999,4.707000732421875,1.6927006244659424,-7.924807548522949,59.0667724609375,58.59375,64.3463134765625
3.2099999,4.881777286529541,1.5634137392044067,-7.556100368499756,95.733642578125,35.6597900390625,58.65478515625
3.2299999,5.04218864440918,1.3551181554794312,-7.113173484802246,132.4462890625,53.314208984375,65.6585693359375
3.2499999,5.102043628692627,1.2066776752471924,-6.845022678375244,125.9002685546875,37.53662109375,78.8421630859375
3.2699999,5.0900726318359375,0.8068459630012512,-6.617573261260986,122.589111328125,1.556396484375,94.2535400390625
3.2899999,5.094861030578613,0.1604115068912506,-6.476315498352051,114.07470703125,3.11279296875,94.7723388671875
3.3099999,4.953603267669678,-0.3447650372982025,-6.490680694580078,97.7935791015625,20.4315185546875,69.2901611328125
3.3299999000000002,4.817133903503418,-1.0462661981582642,-6.449979305267334,97.625732421875,23.3917236328125,108.0169677734375
3.3499999,4.663905143737793,-1.7836803197860718,-6.5912370681762695,113.95263671875,-16.448974609375,159.7900390625
3.3699999,4.422090530395508,-2.382230758666992,-6.495469093322754,91.3238525390625,-7.3089599609375,125.8697509765625
3.3899999,4.285621166229248,-3.3734302520751953,-6.414066314697266,79.0557861328125,1.0986328125,127.838134765625
3.4099999,4.129997730255127,-4.213795185089111,-6.167463779449463,71.6094970703125,-7.965087890625,131.89697265625
3.4299999,3.912125587463379,-4.747702121734619,-5.875370979309082,82.550048828125,-29.571533203125,125.946044921875
3.4499999,3.687070608139038,-5.245696067810059,-5.5760955810546875,105.5145263671875,-37.0941162109375,140.0299072265625
3.4699999,3.339911460876465,-5.473145008087158,-5.377377033233643,79.5135498046875,-35.5224609375,144.439697265625
3.4899999,3.021482467651367,-6.035782337188721,-5.3582234382629395,47.4395751953125,-48.7518310546875,143.646240234375
3.5099999,2.652775526046753,-6.610390663146973,-5.272032260894775,15.106201171875,-62.7593994140625,122.802734375
3.5299999,2.3032219409942627,-7.232883453369141,-5.274426460266113,-7.354736328125,-82.7484130859375,100.311279296875
3.5499999,1.9488801956176758,-7.666234016418457,-5.4444146156311035,20.355224609375,-93.475341796875,102.8289794921875
3.5699999,1.5705963373184204,-7.795520782470703,-5.6455278396606445,10.4522705078125,-84.4268798828125,97.625732421875
3.5899999,1.2066776752471924,-8.02536392211914,-5.825092792510986,-26.42822265625,-88.43994140625,90.1641845703125
3.6099999,0.8212111592292786,-8.214506149291992,-5.839457988739014,-51.6204833984375,-117.0501708984375,66.680908203125
3.6299999,0.3687070608139038,-8.169015884399414,-5.6910176277160645,-96.6949462890625,-159.820556640625,34.7442626953125
3.6499999,-0.1412578970193863,-7.908048152923584,-5.91128396987915,-73.944091796875,-177.3223876953125,42.724609375
3.6699999,-0.646434485912323,-7.5201873779296875,-6.536170482635498,-42.022705078125,-157.7301025390625,61.6912841796875
3.6899999,-1.1276689767837524,-7.24485445022583,-7.441178798675537,-76.5228271484375,-126.8463134765625,35.919189453125
3.7099999,-1.4963760375976562,-7.314286231994629,-8.377311706542969,-99.4873046875,-122.7569580078125,-5.92041015625
3.7299999,-1.8291701078414917,-7.422025203704834,-8.978256225585938,-100.2197265625,-128.47900390625,-32.5775146484375
3.7499999,-2.0853497982025146,-7.625532627105713,-9.14585018157959,-91.5069580078125,-107.2845458984375,-30.7159423828125
3.7699999,-2.3319525718688965,-7.620744228363037,-9.064447402954102,-83.0230712890625,-96.771240234375,-49.3316650390625
3.7899999,-2.604891538619995,-7.225700855255127,-8.796297073364258,-88.9129638671875,-95.733642578125,-83.1298828125
3.8099999,-2.806004285812378,-6.610390663146973,-8.89685344696045,-78.1097412109375,-102.9815673828125,-83.55712890625
3.8299999000000002,-2.964021682739258,-5.954379558563232,-8.774748802185059,-64.14794921875,-64.483642578125,-48.370361328125
3.8499999,-3.045424461364746,-5.494692802429199,-8.757989883422852,-64.788818359375,-38.177490234375,-67.19970703125
3.8699999,-3.0526070594787598,-5.676652431488037,-8.549694061279297,-39.9627685546875,-63.65966796875,-97.503662109375
3.8899999,-3.1244332790374756,-5.920860767364502,-8.274360656738281,-31.25,-71.2890625,-125.5035400390625
3.9099999,-3.224989652633667,-6.1315507888793945,-8.142680168151855,-33.69140625,-59.7381591796875,-126.3885498046875
3.9299999,-3.378218650817871,-6.0836663246154785,-8.044517517089844,-39.4134521484375,-39.55078125,-115.29541015625
3.9499999,-3.514688014984131,-5.861005783081055,-7.979874134063721,-27.9998779296875,-54.779052734375,-130.2032470703125
3.9699999,-3.5913026332855225,-6.004657745361328,-7.8529815673828125,-5.3558349609375,-72.5250244140625,-141.6778564453125
3.9899999,-3.7014358043670654,-5.894524574279785,-7.886500358581543,-13.702392578125,-74.5086669921875,-161.041259765625
4.0099999,-3.801992416381836,-5.216965675354004,-8.497021675109863,-28.564453125,-61.5081787109375,-171.2493896484375
4.029999900000001,-3.8307228088378906,-3.8786067962646484,-9.454702377319336,-25.8941650390625,-33.477783203125,-118.0419921875
4.0499999,-3.6750996112823486,-2.4636335372924805,-10.38844108581543,-27.9083251953125,6.927490234375,-47.6531982421875
4.069999900000001,-3.3686418533325195,-1.4915876388549805,-10.824186325073242,-20.050048828125,23.7579345703125,-27.069091796875
4.0899999000000005,-2.9065608978271484,-1.644816517829895,-10.735600471496582,-5.3863525390625,18.4783935546875,-40.6494140625
4.1099999,-2.4684219360351562,-2.671929121017456,-10.170568466186523,5.2947998046875,13.8702392578125,-53.4210205078125
4.1299999000000005,-2.123656988143921,-3.818751811981201,-9.739612579345703,17.425537109375,29.7393798828125,-61.187744140625
4.1499999,-1.8626888990402222,-4.8051629066467285,-10.113107681274414,17.425537109375,35.247802734375,-55.9844970703125
4.1699999000000005,-1.7501614093780518,-5.228936672210693,-10.290278434753418,4.21142578125,109.4970703125,-51.8798828125
4.1899999,-1.6304513216018677,-4.977545261383057,-10.137049674987793,-12.664794921875,155.609130859375,-56.33544921875
4.209999900000001,-1.4652514457702637,-4.702212333679199,-10.144232749938965,4.8370361328125,49.285888671875,-17.364501953125
4.2299999,-1.2401964664459229,-4.108449935913086,-9.363722801208496,6.317138671875,77.69775390625,-9.979248046875
4.249999900000001,-0.9169792532920837,-3.6750996112823486,-9.011775016784668,10.31494140625,127.2735595703125,-24.7650146484375
4.2699999,-0.5650315880775452,-3.3854012489318848,-8.755595207214355,5.859375,104.888916015625,-11.1083984375
4.289999900000001,-0.2585737705230713,-3.090914487838745,-8.33182144165039,-12.0086669921875,79.986572265625,6.9427490234375
4.3099999,0.021547814831137657,-2.9712042808532715,-7.778761386871338,-28.7628173828125,69.4427490234375,19.6685791015625
4.329999900000001,0.2585737705230713,-3.045424461364746,-7.220912456512451,-26.4739990234375,58.990478515625,23.1475830078125
4.3499999,0.47165772318840027,-3.3877954483032227,-6.871358871459961,-4.5318603515625,30.57861328125,23.529052734375
4.369999900000001,0.6440402865409851,-3.890577793121338,-6.7492547035217285,-4.5166015625,8.6822509765625,18.798828125
4.3899999,0.7829039692878723,-4.395754337310791,-6.979097843170166,-4.852294921875,9.09423828125,9.857177734375
4.409999900000001,0.8906430602073669,-4.843470096588135,-7.419631004333496,-8.1329345703125,16.326904296875,2.960205078125
4.4299999,0.9552865028381348,-5.104437828063965,-7.864952564239502,-7.3394775390625,15.2740478515625,1.1444091796875
4.449999900000001,0.993593692779541,-5.200206279754639,-8.11634349822998,1.8157958984375,7.2784423828125,-1.40380859375
4.4699999,1.0055646896362305,-5.161899089813232,-8.233659744262695,8.819580078125,-4.974365234375,-3.143310546875
4.489999900000001,1.01753568649292,-5.049371242523193,-8.279149055480957,8.636474609375,-8.0718994140625,-4.3182373046875
4.5099999,1.0438719987869263,-4.948814868927002,-8.403648376464844,1.9989013671875,-5.4168701171875,-5.4168701171875
4.529999900000001,1.0630255937576294,-4.8722004890441895,-8.497021675109863,-4.21142578125,2.13623046875,-7.843017578125
4.5499999,1.0869675874710083,-4.8602294921875,-8.549694061279297,-0.54931640625,1.8157958984375,-9.4146728515625
4.569999900000001,1.091755986213684,-4.869806289672852,-8.540117263793945,7.01904296875,-8.453369140625,-8.4381103515625
4.5899999000000005,1.0797849893569946,-4.8602294921875,-8.458714485168457,10.955810546875,-7.0343017578125,-9.0789794921875
4.609999900000001,1.0582371950149536,-4.8602294921875,-8.425195693969727,11.4593505859375,-5.2642822265625,-6.1492919921875
4.6299999000000005,1.036689281463623,-4.876988887786865,-8.422801971435547,12.298583984375,-5.584716796875,-4.547119140625
4.6499999,1.0295066833496094,-4.941632270812988,-8.4108304977417,10.6048583984375,-2.6397705078125,-7.6751708984375
4.6699999000000005,1.0342950820922852,-5.018246650695801,-8.38688850402832,9.6282958984375,-3.173828125,-12.7716064453125
4.6899999,1.0414776802062988,-5.082890033721924,-8.343792915344238,15.07568359375,-6.3018798828125,-12.9241943359375
4.709999900000001,1.0630255937576294,-5.135562419891357,-8.257601737976074,21.240234375,-7.293701171875,-9.796142578125
4.7299999,1.0654197931289673,-5.1331682205200195,-8.238448143005371,37.59765625,-8.819580078125,-13.97705078125
4.749999900000001,1.072602391242981,-5.099649429321289,-8.271966934204102,33.233642578125,-8.3160400390625,-16.9525146484375
4.7699999,1.072602391242981,-5.0469770431518555,-8.336610794067383,8.4381103515625,-1.46484375,-11.0626220703125
4.789999900000001,1.0462661981582642,-4.920084476470947,-8.401253700256348,0.06103515625,2.105712890625,-6.04248046875
4.8099999,1.0271124839782715,-4.857835292816162,-8.401253700256348,4.45556640625,-0.79345703125,1.0223388671875
4.829999900000001,1.0127472877502441,-4.891354084014893,-8.355764389038086,7.1868896484375,-4.3792724609375,4.3182373046875
4.8499999,1.0007762908935547,-5.003881454467773,-8.288725852966309,6.317138671875,-1.89208984375,-2.01416015625
4.869999900000001,1.0103530883789062,-5.200206279754639,-8.257601737976074,8.30078125,0.06103515625,-4.2266845703125
4.8899999,1.0199298858642578,-5.384559631347656,-8.243236541748047,6.4239501953125,-0.9307861328125,-2.7008056640625
4.909999900000001,1.0223240852355957,-5.4875102043151855,-8.233659744262695,3.2958984375,-0.9613037109375,-6.3934326171875
4.9299999,1.0247182846069336,-5.5329999923706055,-8.233659744262695,1.0833740234375,-0.6103515625,-8.0108642578125
4.949999900000001,1.0223240852355957,-5.5329999923706055,-8.245630264282227,-1.7242431640625,-1.2969970703125,-6.591796875
4.9699999,1.0247182846069336,-5.501875400543213,-8.245630264282227,-7.049560546875,0.4425048828125,-6.77490234375
4.989999900000001,1.0295066833496094,-5.463568210601807,-8.224082946777344,-2.5787353515625,1.251220703125,-8.72802734375
5.0099999,1.0462661981582642,-5.43723201751709,-8.22887134552002,6.3934326171875,-2.2430419921875,-8.2855224609375
5.029999900000001,1.0654197931289673,-5.4252610206604,-8.197746276855469,3.7841796875,-2.4261474609375,-7.50732421875
5.0499999,1.0821791887283325,-5.408501625061035,-8.190564155578613,9.368896484375,0.1678466796875,-8.4991455078125
5.069999900000001,1.0989385843276978,-5.432443618774414,-8.20732307434082,8.8348388671875,-4.2877197265625,-8.6669921875
5.0899999000000005,1.115697979927063,-5.48272180557251,-8.200140953063965,8.4228515625,-1.007080078125,-8.6517333984375
5.109999900000001,1.1228805780410767,-5.535394191741943,-8.195352554321289,10.9710693359375,0.8392333984375,-12.2528076171875
5.1299999000000005,1.1348515748977661,-5.612008571624756,-8.10437297821045,13.4735107421875,-0.213623046875,-13.702392578125
5.1499999,1.139639973640442,-5.628767967224121,-8.034940719604492,15.411376953125,-8.056640625,-14.22119140625
5.1699999000000005,1.1468225717544556,-5.616796970367432,-7.999027729034424,16.6473388671875,-11.9171142578125,-14.9993896484375
5.1899999,1.1516109704971313,-5.547365188598633,-8.020575523376465,8.8653564453125,-3.509521484375,-13.5040283203125
5.209999900000001,1.1563993692398071,-5.477933406829834,-8.133103370666504,10.955810546875,0.8697509765625,-10.711669921875
5.2299999,1.158793568611145,-5.394136428833008,-8.169015884399414,1.1138916015625,1.739501953125,-9.46044921875
5.249999900000001,1.1563993692398071,-5.34625244140625,-8.185775756835938,-10.8795166015625,-3.41796875,-7.293701171875
5.2699999,1.1540051698684692,-5.327098846435547,-8.14028549194336,-13.824462890625,-5.2337646484375,-4.1046142578125
5.289999900000001,1.1516109704971313,-5.331887245178223,-8.109161376953125,-21.17919921875,-3.509521484375,-3.5552978515625
5.3099999,1.1492167711257935,-5.351040840148926,-8.118738174438477,-22.76611328125,-4.364013671875,-4.3487548828125
5.329999900000001,1.1516109704971313,-5.327098846435547,-8.087613105773926,-24.3682861328125,-3.3416748046875,-5.0048828125
5.3499999,1.161187767982483,-5.2911858558654785,-8.08282470703125,-12.0849609375,-5.340576171875,-4.852294921875
5.369999900000001,1.1492167711257935,-5.219359874725342,-8.123526573181152,-0.1373291015625,-10.4522705078125,-2.9144287109375
5.3899999,1.1563993692398071,-5.190629482269287,-8.152256965637207,-9.27734375,-3.47900390625,-1.2664794921875
5.409999900000001,1.1492167711257935,-5.252878665924072,-8.303091049194336,-18.1732177734375,-3.6773681640625,-1.64794921875
5.4299999,1.1659762859344482,-5.434837818145752,-8.38688850402832,-51.7730712890625,-5.9661865234375,-4.364013671875
5.449999900000001,1.1875240802764893,-5.52821159362793,-8.271966934204102,-95.1995849609375,-6.378173828125,-18.341064453125
5.4699999,1.1851298809051514,-5.494692802429199,-8.252813339233398,-43.1060791015625,-20.9197998046875,-27.6641845703125
5.489999900000001,1.1755530834197998,-5.2911858558654785,-8.209717750549316,12.0697021484375,-18.0816650390625,-16.7388916015625
5.5099999,1.1228805780410767,-4.941632270812988,-8.279149055480957,-11.5203857421875,-3.7841796875,-12.02392578125
5.529999900000001,1.0797849893569946,-4.568136692047119,-8.492233276367188,-34.48486328125,-1.28173828125,-15.5029296875
5.5499999,1.0342950820922852,-4.261679172515869,-8.597578048706055,-56.7169189453125,-8.2855224609375,-7.99560546875
5.569999900000001,0.9911994934082031,-4.0294413566589355,-8.69095230102539,-50.9796142578125,-18.3563232421875,2.6702880859375
5.5899999000000005,0.9768342971801758,-3.9600095748901367,-8.712499618530273,-37.2314453125,-14.007568359375,8.0413818359375
5.609999900000001,0.9672574996948242,-4.015076160430908,-8.769960403442383,-29.6630859375,-9.674072265625,0.18310546875
5.6299999000000005,0.9840168952941895,-4.189853191375732,-8.875306129455566,-32.196044921875,-10.406494140625,-8.392333984375
5.6499999,1.0342950820922852,-4.323928356170654,-8.841787338256836,-46.08154296875,-6.134033203125,-12.7716064453125
5.6699999000000005,1.072602391242981,-4.367023944854736,-8.832210540771484,10.55908203125,-2.166748046875,-24.9481201171875
5.6899999,1.0893617868423462,-4.242525577545166,-8.796297073364258,46.9818115234375,-11.8408203125,-37.1856689453125
5.709999900000001,1.0630255937576294,-4.084507942199707,-8.901641845703125,66.558837890625,-7.5225830078125,-33.75244140625
5.7299999,1.0271124839782715,-3.9025487899780273,-9.01895809173584,33.3709716796875,5.6610107421875,-26.55029296875
5.749999900000001,0.9816226959228516,-3.825934410095215,-9.148244857788086,21.3165283203125,7.3089599609375,-24.0478515625
5.7699999,0.9959878921508789,-3.8977603912353516,-9.133879661560059,53.619384765625,4.6844482421875,-25.7568359375
5.789999900000001,1.0319008827209473,-4.084507942199707,-8.983044624328613,65.8721923828125,3.0975341796875,-31.8756103515625
5.8099999,1.094150185585022,-4.2951979637146,-8.762778282165527,86.3037109375,5.06591796875,-37.567138671875
5.829999900000001,1.1228805780410767,-4.4939165115356445,-8.540117263793945,110.8551025390625,5.4931640625,-36.8804931640625
5.8499999,1.1061211824417114,-4.568136692047119,-8.372523307800293,96.4202880859375,-6.9732666015625,-27.191162109375
5.869999900000001,1.0749965906143188,-4.656722068786621,-8.367734909057617,41.2445068359375,-18.6309814453125,-7.171630859375
5.8899999,1.0678139925003052,-4.824316501617432,-8.456320762634277,-11.138916015625,-6.28662109375,9.124755859375
5.909999900000001,1.0965443849563599,-5.037400245666504,-8.571242332458496,-24.0478515625,11.5814208984375,0.8544921875
5.9299999,1.1563993692398071,-5.216965675354004,-8.559270858764648,-24.6429443359375,9.765625,-9.3841552734375
5.949999900000001,1.2258312702178955,-5.281609058380127,-8.451532363891602,-13.458251953125,2.0294189453125,-4.1046142578125
5.9699999,1.2617442607879639,-5.185841083526611,-8.312667846679688,-14.58740234375,-0.67138671875,3.7078857421875
5.989999900000001,1.2761094570159912,-5.0254292488098145,-8.22887134552002,-8.544921875,9.9334716796875,5.615234375
6.0099999,1.290474772453308,-4.927267074584961,-8.248024940490723,1.64794921875,13.427734375,7.38525390625
6.029999900000001,1.2952631711959839,-4.900930881500244,-8.279149055480957,8.8653564453125,13.8397216796875,8.1634521484375
6.0499999,1.3192051649093628,-4.98472785949707,-8.245630264282227,-14.4805908203125,11.962890625,12.451171875
6.069999900000001,1.3263877630233765,-5.03021764755249,-8.200140953063965,-23.8189697265625,5.9356689453125,8.1939697265625
6.0899999000000005,1.338358759880066,-5.1116204261779785,-8.147468566894531,-9.7808837890625,1.2664794921875,9.735107421875
6.109999900000001,1.3479355573654175,-5.193023681640625,-8.166622161865234,-4.425048828125,1.2359619140625,16.632080078125
6.1299999000000005,1.3335703611373901,-5.200206279754639,-8.169015884399414,-20.4925537109375,6.927490234375,8.056640625
6.149999900000001,1.3239935636520386,-5.262455463409424,-8.24084186553955,-17.4407958984375,3.3416748046875,4.241943359375
6.1699999000000005,1.3120225667953491,-5.295974254608154,-8.250418663024902,-8.331298828125,0.152587890625,5.43212890625
6.1899999,1.3263877630233765,-5.329493045806885,-8.26478385925293,-15.6097412109375,-0.9918212890625,2.4566650390625
6.209999900000001,1.3192051649093628,-5.324704647064209,-8.303091049194336,-15.2587890625,-2.3956298828125,-5.9661865234375
6.2299999,1.316810965538025,-5.2672438621521,-8.334216117858887,-31.8145751953125,-2.3651123046875,-9.4146728515625
6.249999900000001,1.3072341680526733,-5.178658485412598,-8.377311706542969,-53.7567138671875,-9.033203125,-4.791259765625
6.2699999,1.2641384601593018,-5.044582843780518,-8.485051155090332,-38.57421875,-9.2315673828125,-5.1727294921875
6.289999900000001,1.2689268589019775,-4.9368438720703125,-8.49941635131836,-40.83251953125,3.936767578125,-9.3536376953125
6.3099999,1.2880805730819702,-4.819528102874756,-8.607154846191406,-30.914306640625,3.387451171875,-16.7694091796875
6.329999900000001,1.3072341680526733,-4.675876140594482,-8.695740699768066,0.213623046875,6.6375732421875,-20.751953125
6.3499999,1.3934253454208374,-4.4723687171936035,-8.765172004699707,-23.7579345703125,13.1378173828125,-19.012451171875
6.369999900000001,1.4317326545715332,-4.225766181945801,-8.841787338256836,-16.5252685546875,14.4500732421875,-15.93017578125
6.3899999,1.53707754611969,-4.000710964202881,-8.815450668334961,-18.4478759765625,6.256103515625,-7.7667236328125
6.409999900000001,1.6065093278884888,-3.754108190536499,-8.78432559967041,-6.5765380859375,1.7852783203125,-1.129150390625
6.4299999,1.6615760326385498,-3.624821424484253,-8.722076416015625,-0.6561279296875,3.9215087890625,9.3841552734375
6.449999900000001,1.656787633895874,-3.5625722408294678,-8.736441612243652,-15.0909423828125,4.45556640625,15.19775390625
6.4699999,1.6663644313812256,-3.6343982219696045,-8.757989883422852,-46.5545654296875,-0.3814697265625,12.3138427734375
6.489999900000001,1.623268723487854,-3.754108190536499,-8.87051773071289,-5.5999755859375,3.0059814453125,9.1094970703125
6.5099999,1.6208745241165161,-3.825934410095215,-8.911218643188477,49.468994140625,20.01953125,5.3253173828125
6.529999900000001,1.6041151285171509,-3.8355112075805664,-8.947132110595703,46.0205078125,21.4996337890625,12.725830078125
6.5499999,1.5682021379470825,-3.7900211811065674,-8.908824920654297,33.99658203125,13.2598876953125,19.012451171875
6.569999900000001,1.534683346748352,-3.8355112075805664,-8.789113998413086,51.7425537109375,15.625,20.660400390625
6.5899999000000005,1.5083470344543457,-4.067748546600342,-8.662221908569336,59.356689453125,18.3868408203125,17.63916015625
6.609999900000001,1.5203180313110352,-4.436455726623535,-8.516175270080566,33.782958984375,13.0157470703125,8.209228515625
6.6299999000000005,1.5729905366897583,-4.7620673179626465,-8.422801971435547,11.8255615234375,5.8441162109375,-2.288818359375
6.649999900000001,1.625662922859192,-4.999093055725098,-8.415618896484375,19.3634033203125,3.96728515625,2.5787353515625
6.6699999000000005,1.745373010635376,-5.058948040008545,-8.432378768920898,-8.758544921875,5.9814453125,12.115478515625
6.6899999,1.7573440074920654,-4.948814868927002,-8.51138687133789,-0.0152587890625,12.63427734375,5.43212890625
6.709999900000001,1.802833914756775,-4.812345504760742,-8.480262756347656,-16.05224609375,11.8255615234375,10.1165771484375
6.7299999,1.7812861204147339,-4.7189717292785645,-8.406042098999023,-15.594482421875,2.74658203125,22.6898193359375
6.749999900000001,1.7573440074920654,-4.692635536193848,-8.26478385925293,12.3443603515625,1.3427734375,18.4326171875
6.7699999,1.7357962131500244,-4.797980308532715,-8.14028549194336,25.482177734375,3.9215087890625,8.270263671875
6.789999900000001,1.7190368175506592,-4.9799394607543945,-8.121131896972656,35.369873046875,2.86865234375,1.4801025390625
6.8099999,1.6974890232086182,-5.17626428604126,-8.190564155578613,32.9437255859375,4.4403076171875,-1.0223388671875
6.829999900000001,1.6759412288665771,-5.298368453979492,-8.343792915344238,22.2625732421875,10.3759765625,-2.9754638671875
6.8499999,1.6496049165725708,-5.355829238891602,-8.451532363891602,-6.439208984375,14.9688720703125,-0.8392333984375
6.869999900000001,1.623268723487854,-5.339069843292236,-8.485051155090332,-8.85009765625,14.95361328125,2.3956298828125
6.8899999,1.623268723487854,-5.30076265335083,-8.367734909057617,-9.21630859375,9.82666015625,4.45556640625
6.909999900000001,1.6352397203445435,-5.25527286529541,-8.176198959350586,-3.997802734375,4.7149658203125,1.4801025390625
6.9299999,1.680729627609253,-5.216965675354004,-8.027758598327637,3.692626953125,0.67138671875,-2.4871826171875
6.949999900000001,1.702277421951294,-5.166687488555908,-7.9415669441223145,-8.7432861328125,0.06103515625,-2.349853515625
6.9699999,1.7334020137786865,-5.12119722366333,-7.970297336578369,-10.040283203125,3.173828125,-0.4425048828125
6.989999900000001,1.742978811264038,-5.07570743560791,-8.018181800842285,-8.6517333984375,4.3487548828125,-2.288818359375
7.0099999,1.7501614093780518,-5.054159641265869,-8.092401504516602,-2.227783203125,3.1585693359375,-5.3558349609375
7.029999900000001,1.7693150043487549,-5.04218864440918,-8.166622161865234,0.8392333984375,2.0751953125,-5.9967041015625
7.0499999,1.7908629179000854,-5.027823448181152,-8.250418663024902,1.068115234375,3.8909912109375,-4.9896240234375
7.069999900000001,1.821987509727478,-5.003881454467773,-8.305485725402832,-2.0294189453125,6.0882568359375,-4.0283203125
7.0899999000000005,1.8483237028121948,-4.994304656982422,-8.322244644165039,0.0457763671875,4.94384765625,-3.6163330078125
7.109999900000001,1.8818424940109253,-5.011064052581787,-8.283937454223633,-1.9073486328125,1.708984375,-3.265380859375
7.1299999000000005,1.9105730056762695,-5.03021764755249,-8.243236541748047,-2.25830078125,-0.7781982421875,-5.8135986328125
7.149999900000001,1.9345149993896484,-5.056553840637207,-8.252813339233398,-0.3814697265625,-0.396728515625,-5.9356689453125
7.1699999000000005,1.9512743949890137,-5.049371242523193,-8.312667846679688,-3.72314453125,2.13623046875,-4.2266845703125
7.1899999,1.9560627937316895,-5.008669853210449,-8.394071578979492,-5.7830810546875,5.096435546875,-2.86865234375
7.209999900000001,1.9584569931030273,-4.970362663269043,-8.425195693969727,-8.941650390625,5.8746337890625,0.0762939453125
7.2299999,1.9632453918457031,-4.932055473327637,-8.396465301513672,-6.8206787109375,3.60107421875,0.3204345703125
7.249999900000001,1.9704279899597168,-4.927267074584961,-8.329427719116211,-2.5482177734375,0.6561279296875,-1.1749267578125
7.2699999,1.9823989868164062,-4.941632270812988,-8.252813339233398,-1.2054443359375,1.0833740234375,-2.227783203125
7.289999900000001,1.9919757843017578,-4.95120906829834,-8.2312650680542,-0.0152587890625,1.3580322265625,-2.777099609375
7.3099999,1.9967641830444336,-4.948814868927002,-8.238448143005371,1.068115234375,1.7242431640625,-2.5177001953125
7.329999900000001,1.9991583824157715,-4.932055473327637,-8.248024940490723,-3.0059814453125,3.2958984375,-1.617431640625
7.3499999,1.9991583824157715,-4.908113479614258,-8.274360656738281,-3.387451171875,1.2054443359375,-1.800537109375
7.369999900000001,1.9967641830444336,-4.884171485900879,-8.281543731689453,0.0152587890625,0.9613037109375,-1.953125
7.3899999,1.9943699836730957,-4.862623691558838,-8.250418663024902,-4.0283203125,2.74658203125,-0.8392333984375
7.409999900000001,1.9919757843017578,-4.8482584953308105,-8.22887134552002,-3.3111572265625,0.2593994140625,-0.640869140625
7.4299999,1.98958158493042,-4.8267107009887695,-8.219294548034668,-0.3662109375,-3.23486328125,-2.38037109375
7.449999900000001,1.9847931861877441,-4.800374507904053,-8.245630264282227,0.9002685546875,-1.068115234375,-2.4871826171875
7.4699999,1.9823989868164062,-4.778826713562012,-8.288725852966309,-4.2572021484375,3.753662109375,0.1678466796875
7.489999900000001,1.9800047874450684,-4.774038314819336,-8.324639320373535,-4.4403076171875,3.8604736328125,1.1138916015625
7.5099999,1.9847931861877441,-4.797980308532715,-8.322244644165039,-1.953125,0.8544921875,-0.3662109375
7.529999900000001,1.9919757843017578,-4.838681697845459,-8.293514251708984,-1.678466796875,-0.18310546875,-2.25830078125
7.5499999,2.0015525817871094,-4.8602294921875,-8.274360656738281,-2.2735595703125,-0.06103515625,-2.9449462890625
7.569999900000001,2.006340980529785,-4.853046894073486,-8.293514251708984,-1.495361328125,-0.18310546875,-1.739501953125
7.5899999000000005,2.006340980529785,-4.824316501617432,-8.322244644165039,-0.8392333984375,1.434326171875,-0.5950927734375
7.609999900000001,2.006340980529785,-4.790797710418701,-8.35097599029541,-3.35693359375,2.0294189453125,-0.823974609375
7.6299999000000005,2.006340980529785,-4.76924991607666,-8.365341186523438,-2.532958984375,0.9613037109375,-1.0223388671875
7.649999900000001,2.006340980529785,-4.76924991607666,-8.35336971282959,-2.5177001953125,0.5950927734375,-0.1220703125
7.6699999000000005,2.011129379272461,-4.776432514190674,-8.343792915344238,-3.0517578125,-0.3204345703125,-1.1138916015625
7.6899999,2.0183119773864746,-4.795586109161377,-8.348581314086914,-3.0059814453125,-1.2969970703125,-2.1820068359375
7.709999900000001,2.0254945755004883,-4.81473970413208,-8.374917984008789,-3.0975341796875,-0.701904296875,-2.349853515625
7.7299999,2.027888774871826,-4.797980308532715,-8.42040729522705,-1.6326904296875,0.8697509765625,-2.960205078125
7.749999900000001,2.032677173614502,-4.771644115447998,-8.473079681396484,-0.3204345703125,1.8463134765625,-1.28173828125
7.7699999,2.0254945755004883,-4.726154327392578,-8.485051155090332,-6.8206787109375,1.6937255859375,0.732421875
7.789999900000001,2.0254945755004883,-4.697423934936523,-8.473079681396484,-7.537841796875,0.9002685546875,1.1138916015625
7.8099999,2.0207061767578125,-4.683058738708496,-8.432378768920898,-1.708984375,0.1068115234375,-1.0223388671875
7.829999900000001,2.0159177780151367,-4.6950297355651855,-8.379706382751465,-0.518798828125,0.3662109375,-1.251220703125
7.8499999,2.013523578643799,-4.707000732421875,-8.355764389038086,1.2969970703125,-0.518798828125,-1.77001953125
7.869999900000001,2.008735179901123,-4.704606533050537,-8.346187591552734,2.8076171875,0.3662109375,-3.2958984375
7.8899999,2.011129379272461,-4.69024133682251,-8.370129585266113,1.3427734375,0.8544921875,-2.777099609375
7.909999900000001,2.011129379272461,-4.671087741851807,-8.396465301513672,1.52587890625,1.4495849609375,-0.9918212890625
7.9299999,2.0183119773864746,-4.661510944366455,-8.396465301513672,-2.0904541015625,3.0364990234375,-0.42724609375
7.949999900000001,2.0231003761291504,-4.656722068786621,-8.391676902770996,-1.800537109375,0.8697509765625,-1.9378662109375
7.9699999,2.027888774871826,-4.666299343109131,-8.362946510314941,-0.5340576171875,-0.4730224609375,-2.3193359375
7.989999900000001,2.032677173614502,-4.666299343109131,-8.334216117858887,-1.983642578125,0.79345703125,-1.8310546875
8.0099999,2.03507137298584,-4.663905143737793,-8.322244644165039,-3.448486328125,0.396728515625,-1.9683837890625
8.0299999,2.03507137298584,-4.649539470672607,-8.312667846679688,-4.7454833984375,-0.396728515625,-2.9296875
8.049999900000001,2.032677173614502,-4.623203277587891,-8.310274124145508,-5.157470703125,-0.7476806640625,-2.8228759765625
8.069999900000001,2.0207061767578125,-4.577713489532471,-8.324639320373535,-1.4190673828125,-0.6561279296875,-1.6937255859375
8.0899999,2.008735179901123,-4.537012100219727,-8.355764389038086,0.9002685546875,-0.2899169921875,0.213623046875
8.1099999,1.9991583824157715,-4.513070106506348,-8.398859977722168,-1.52587890625,0.3204345703125,0.67138671875
8.129999900000001,2.0039467811584473,-4.532223701477051,-8.453926086425781,-1.373291015625,0.244140625,0.7476806640625
8.149999900000001,2.0159177780151367,-4.572925090789795,-8.494627952575684,-0.518798828125,0.885009765625,-0.42724609375
8.1699999,2.027888774871826,-4.616020679473877,-8.513781547546387,-0.9613037109375,1.6326904296875,-1.6326904296875
8.1899999,2.0398597717285156,-4.6471452713012695,-8.518569946289062,-0.9307861328125,0.335693359375,-0.885009765625
8.2099999,2.0422539710998535,-4.651933670043945,-8.506598472595215,-1.3885498046875,-0.2288818359375,-0.4425048828125
8.229999900000001,2.0422539710998535,-4.649539470672607,-8.508993148803711,-0.6561279296875,-0.030517578125,-0.396728515625
8.2499999,2.0374655723571777,-4.6471452713012695,-8.518569946289062,-0.1068115234375,1.4495849609375,-0.54931640625
8.2699999,2.03507137298584,-4.656722068786621,-8.520963668823242,-1.9378662109375,2.777099609375,-0.152587890625
8.2899999,2.03507137298584,-4.675876140594482,-8.525752067565918,-0.5340576171875,1.1138916015625,-0.7476806640625
8.309999900000001,2.0422539710998535,-4.697423934936523,-8.497021675109863,-0.823974609375,1.556396484375,-2.0599365234375
8.3299999,2.0470423698425293,-4.69024133682251,-8.461109161376953,-1.0833740234375,1.52587890625,-3.662109375
8.3499999,2.049436569213867,-4.654327869415283,-8.44195556640625,1.983642578125,-0.4425048828125,-3.265380859375
8.3699999,2.0470423698425293,-4.58968448638916,-8.434772491455078,1.64794921875,0.335693359375,-1.3427734375
8.389999900000001,2.0398597717285156,-4.522646903991699,-8.42040729522705,-1.861572265625,3.35693359375,0.244140625
8.4099999,2.0422539710998535,-4.484339714050293,-8.396465301513672,-4.3487548828125,2.50244140625,0.885009765625
8.4299999,2.0422539710998535,-4.489128112792969,-8.35336971282959,-10.19287109375,-2.5177001953125,1.373291015625
8.4499999,2.049436569213867,-4.522646903991699,-8.31985092163086,-5.9814453125,-3.2196044921875,0.1068115234375
8.469999900000001,2.049436569213867,-4.553771495819092,-8.343792915344238,-3.35693359375,-1.8310546875,-2.1514892578125
8.4899999,2.0422539710998535,-4.55616569519043,-8.38688850402832,-1.129150390625,2.0294189453125,-2.960205078125
8.5099999,2.0398597717285156,-4.537012100219727,-8.429984092712402,-1.8463134765625,2.8228759765625,-1.0986328125
8.5299999,2.0422539710998535,-4.505887508392334,-8.468291282653809,-0.79345703125,-1.15966796875,-1.1138916015625
8.549999900000001,2.049436569213867,-4.491522312164307,-8.494627952575684,1.52587890625,-1.6937255859375,-2.62451171875
8.569999900000001,2.0614075660705566,-4.513070106506348,-8.51138687133789,-2.7923583984375,0.8544921875,-1.983642578125
8.5899999,2.073378562927246,-4.548983097076416,-8.556877136230469,-2.2125244140625,-0.213623046875,-1.7852783203125
8.6099999,2.0829553604125977,-4.577713489532471,-8.60236644744873,0.823974609375,-1.4190673828125,-3.2196044921875
8.629999900000001,2.0877439975738525,-4.599261283874512,-8.643068313598633,-1.220703125,0.6561279296875,-2.4871826171875
8.649999900000001,2.0901381969451904,-4.608838081359863,-8.674192428588867,-1.007080078125,2.777099609375,-1.5869140625
8.6699999,2.0877439975738525,-4.6040496826171875,-8.681375503540039,0.4730224609375,2.685546875,-2.4566650390625
8.6899999,2.0805611610412598,-4.584896087646484,-8.652645111083984,1.6632080078125,2.2430419921875,-3.662109375
8.709999900000001,2.070984363555908,-4.548983097076416,-8.604761123657227,1.6632080078125,2.9449462890625,-3.3111572265625
8.729999900000001,2.0614075660705566,-4.505887508392334,-8.544905662536621,-0.54931640625,2.99072265625,-1.251220703125
8.7499999,2.049436569213867,-4.4723687171936035,-8.473079681396484,-0.8087158203125,2.8228759765625,-0.8697509765625
8.7699999,2.0470423698425293,-4.462791919708252,-8.394071578979492,-1.7547607421875,1.861572265625,-1.678466796875
8.7899999,2.051830768585205,-4.4723687171936035,-8.343792915344238,-0.79345703125,-0.4119873046875,-2.410888671875
8.809999900000001,2.056619167327881,-4.474762916564941,-8.329427719116211,1.8157958984375,-0.1678466796875,-3.4332275390625
8.8299999,2.0661959648132324,-4.467580318450928,-8.341399192810059,-0.518798828125,1.9073486328125,-2.960205078125
8.8499999,2.0661959648132324,-4.448426723480225,-8.377311706542969,-3.0364990234375,0.91552734375,-1.8157958984375
8.8699999,2.070984363555908,-4.422090530395508,-8.40843677520752,-1.922607421875,-0.579833984375,-1.7852783203125
8.889999900000001,2.0661959648132324,-4.383783340454102,-8.429984092712402,0.9765625,0.4119873046875,-2.349853515625
8.9099999,2.0638017654418945,-4.3622355461120605,-8.458714485168457,0.4119873046875,0.579833984375,-0.396728515625
8.9299999,2.0590133666992188,-4.355052947998047,-8.47786808013916,-0.823974609375,1.2664794921875,0.5340576171875
8.9499999,2.0590133666992188,-4.371812343597412,-8.492233276367188,0.244140625,1.2664794921875,-0.67138671875
8.969999900000001,2.0638017654418945,-4.405331134796143,-8.473079681396484,-0.213623046875,1.40380859375,-1.251220703125
8.9899999,2.070984363555908,-4.434061527252197,-8.449137687683105,0.244140625,-0.1220703125,-1.220703125
9.0099999,2.075772762298584,-4.448426723480225,-8.432378768920898,2.593994140625,-1.4801025390625,-1.28173828125
9.0299999,2.0805611610412598,-4.4532151222229,-8.432378768920898,0.6561279296875,-0.4730224609375,-0.6866455078125
9.049999900000001,2.0877439975738525,-4.46518611907959,-8.453926086425781,-0.152587890625,0.823974609375,0.457763671875
9.069999900000001,2.099714994430542,-4.491522312164307,-8.47786808013916,-0.5950927734375,0.4425048828125,0.152587890625
9.0899999,2.1092917919158936,-4.525041103363037,-8.489839553833008,-0.91552734375,-0.2899169921875,-1.129150390625
9.1099999,2.118868589401245,-4.558559894561768,-8.473079681396484,-2.01416015625,0.152587890625,-1.7242431640625
9.129999900000001,2.1284453868865967,-4.577713489532471,-8.463502883911133,-1.739501953125,-1.6021728515625,-2.2735595703125
9.149999900000001,2.1308395862579346,-4.565742492675781,-8.465897560119629,0.457763671875,-2.3040771484375,-3.509521484375
9.1699999,2.1308395862579346,-4.534617900848389,-8.489839553833008,1.7547607421875,-0.213623046875,-2.471923828125
9.1899999,2.1308395862579346,-4.508281707763672,-8.540117263793945,0.67138671875,0.9002685546875,0.274658203125
9.209999900000001,2.123656988143921,-4.479551315307617,-8.564059257507324,-1.4190673828125,2.288818359375,-0.3814697265625
9.229999900000001,2.1164743900299072,-4.481945514678955,-8.547300338745117,-1.5716552734375,2.25830078125,-0.9613037109375
9.2499999,2.1116859912872314,-4.503493309020996,-8.518569946289062,-2.166748046875,-2.38037109375,-0.5035400390625
9.2699999,2.1045033931732178,-4.513070106506348,-8.51138687133789,-0.67138671875,-2.99072265625,-2.227783203125
9.2899999,2.097320795059204,-4.520252704620361,-8.516175270080566,-1.6021728515625,2.044677734375,-2.410888671875
9.309999900000001,2.0901381969451904,-4.505887508392334,-8.547300338745117,-1.739501953125,2.13623046875,-1.6021728515625
9.3299999,2.0805611610412598,-4.477157115936279,-8.573636054992676,-0.1220703125,-0.7781982421875,-1.6937255859375
9.3499999,2.070984363555908,-4.438849925994873,-8.544905662536621,-1.3580322265625,1.190185546875,-2.105712890625
9.3699999,2.0661959648132324,-4.405331134796143,-8.513781547546387,-3.1585693359375,1.0223388671875,-1.7547607421875
9.389999900000001,2.0614075660705566,-4.378994941711426,-8.489839553833008,0.1220703125,-2.105712890625,-1.617431640625
9.4099999,2.0590133666992188,-4.359841346740723,-8.465897560119629,1.007080078125,-0.1983642578125,-1.8157958984375
9.4299999,2.0614075660705566,-4.369418144226074,-8.456320762634277,-3.173828125,1.1138916015625,-0.732421875
9.4499999,2.0685901641845703,-4.388571739196777,-8.468291282653809,-1.800537109375,-1.0223388671875,-0.701904296875
9.469999900000001,2.0805611610412598,-4.414907932281494,-8.489839553833008,-0.5340576171875,-2.6092529296875,-2.349853515625
9.4899999,2.0901381969451904,-4.422090530395508,-8.530540466308594,0.67138671875,-0.67138671875,-3.021240234375
9.5099999,2.0901381969451904,-4.417302131652832,-8.580819129943848,-0.0152587890625,1.1749267578125,-0.9918212890625
9.5299999,2.0829553604125977,-4.398148536682129,-8.611943244934082,-1.2664794921875,1.739501953125,-0.0762939453125
9.549999900000001,2.0685901641845703,-4.381389141082764,-8.619126319885254,-1.03759765625,0.3509521484375,-1.068115234375
9.569999900000001,2.056619167327881,-4.378994941711426,-8.592789649963379,-0.3814697265625,0.4119873046875,-0.7781982421875
9.5899999,2.0446481704711914,-4.381389141082764,-8.552088737487793,-0.1678466796875,0.9918212890625,-0.42724609375
9.6099999,2.0398597717285156,-4.390965938568115,-8.520963668823242,0.1678466796875,-0.06103515625,-0.6561279296875
9.629999900000001,2.0422539710998535,-4.405331134796143,-8.504204750061035,0.9002685546875,-0.4425048828125,-0.9918212890625
9.649999900000001,2.056619167327881,-4.414907932281494,-8.501810073852539,0,0.42724609375,-1.5411376953125
9.6699999,2.070984363555908,-4.400542736053467,-8.53293514251709,0.213623046875,-0.1068115234375,-1.6632080078125
9.6899999,2.0829553604125977,-4.378994941711426,-8.56645393371582,-0.3662109375,0.0152587890625,-0.4730224609375
9.709999900000001,2.0901381969451904,-4.355052947998047,-8.588001251220703,-1.861572265625,1.739501953125,0.6103515625
9.729999900000001,2.094926595687866,-4.350264549255371,-8.60236644744873,-0.5645751953125,0.42724609375,0.06103515625
9.7499999,2.097320795059204,-4.369418144226074,-8.604761123657227,-0.8392333984375,-0.9918212890625,-0.823974609375
9.7699999,2.099714994430542,-4.400542736053467,-8.611943244934082,-0.885009765625,0.2899169921875,-0.9613037109375
9.7899999,2.097320795059204,-4.4292731285095215,-8.628703117370605,-0.3814697265625,1.434326171875,-1.1444091796875
9.809999900000001,2.094926595687866,-4.448426723480225,-8.628703117370605,-0.9307861328125,2.2430419921875,-1.5869140625
9.8299999,2.0877439975738525,-4.4508209228515625,-8.607154846191406,-1.0986328125,1.434326171875,-1.861572265625
9.8499999,2.0805611610412598,-4.431667327880859,-8.56645393371582,1.0528564453125,-0.274658203125,-2.3345947265625
9.8699999,2.078166961669922,-4.395754337310791,-8.537723541259766,2.01416015625,-0.2288818359375,-1.9683837890625
9.889999900000001,2.078166961669922,-4.355052947998047,-8.53293514251709,0.457763671875,0.885009765625,-0.946044921875
9.9099999,2.0805611610412598,-4.326322555541992,-8.537723541259766,0,2.9449462890625,-0.091552734375
9.9299999,2.0853497982025146,-4.326322555541992,-8.528146743774414,-1.3580322265625,2.74658203125,-0.030517578125
9.9499999,2.0877439975738525,-4.3406877517700195,-8.528146743774414,0.1678466796875,-1.0528564453125,-0.7781982421875
9.969999900000001,2.0829553604125977,-4.364629745483398,-8.501810073852539,1.3275146484375,0.7171630859375,-1.3885498046875
9.9899999,2.0829553604125977,-4.3861775398254395,-8.47786808013916,-1.190185546875,2.7923583984375,-0.732421875
10.0099999,2.078166961669922,-4.398148536682129,-8.480262756347656,0.1068115234375,-0.8697509765625,-1.068115234375
10.0299999,2.073378562927246,-4.390965938568115,-8.473079681396484,0.9918212890625,-0.2899169921875,-1.7547607421875
10.049999900000001,2.070984363555908,-4.376600742340088,-8.468291282653809,-0.2899169921875,2.2125244140625,-0.8087158203125
10.069999900000001,2.0661959648132324,-4.367023944854736,-8.489839553833008,-0.54931640625,0.0152587890625,0.2899169921875
10.0899999,2.0661959648132324,-4.352658748626709,-8.508993148803711,0.18310546875,-1.03759765625,-1.15966796875
10.1099999,2.0661959648132324,-4.352658748626709,-8.520963668823242,-0.0762939453125,1.373291015625,-1.220703125
10.129999900000001,2.0661959648132324,-4.3406877517700195,-8.544905662536621,0.152587890625,0.885009765625,-0.7781982421875
10.149999900000001,2.0638017654418945,-4.314351558685303,-8.573636054992676,2.1820068359375,-0.5645751953125,-0.7476806640625
10.1699999,2.0638017654418945,-4.299986362457275,-8.585607528686523,0.54931640625,1.251220703125,1.15966796875
10.1899999,2.0614075660705566,-4.302380561828613,-8.597578048706055,-0.6256103515625,2.0599365234375,1.5716552734375
10.209999900000001,2.0638017654418945,-4.323928356170654,-8.59997272491455,0.9002685546875,0.8392333984375,-0.1678466796875
10.229999900000001,2.0661959648132324,-4.367023944854736,-8.578424453735352,0.1220703125,1.03759765625,-0.274658203125
10.2499999,2.0661959648132324,-4.393360137939453,-8.542511940002441,-0.579833984375,1.5106201171875,-0.396728515625
10.2699999,2.0614075660705566,-4.395754337310791,-8.520963668823242,1.2054443359375,0.1983642578125,-0.5950927734375
10.2899999,2.0590133666992188,-4.383783340454102,-8.49941635131836,1.800537109375,0.91552734375,0.4425048828125
10.309999900000001,2.0590133666992188,-4.369418144226074,-8.47786808013916,-0.5645751953125,2.105712890625,1.7547607421875
10.3299999,2.0661959648132324,-4.376600742340088,-8.470685958862305,0.1220703125,0.335693359375,1.251220703125
10.3499999,2.075772762298584,-4.395754337310791,-8.468291282653809,0.9307861328125,-0.7781982421875,-0.3662109375
10.3699999,2.0853497982025146,-4.422090530395508,-8.480262756347656,0.0457763671875,0.518798828125,-0.457763671875
10.389999900000001,2.0877439975738525,-4.422090530395508,-8.51138687133789,0.9613037109375,1.5106201171875,-0.67138671875
10.4099999,2.0853497982025146,-4.400542736053467,-8.523358345031738,-0.9918212890625,2.3345947265625,-0.0152587890625
10.4299999,2.0805611610412598,-4.378994941711426,-8.53293514251709,-0.4730224609375,0.274658203125,1.7852783203125
10.4499999,2.078166961669922,-4.369418144226074,-8.544905662536621,0.42724609375,-1.3580322265625,1.7852783203125
10.469999900000001,2.078166961669922,-4.381389141082764,-8.571242332458496,1.40380859375,0.518798828125,0.6866455078125
10.4899999,2.0829553604125977,-4.422090530395508,-8.5903959274292,0.213623046875,3.265380859375,0.9002685546875
10.5099999,2.0877439975738525,-4.460397720336914,-8.592789649963379,-0.6256103515625,2.1209716796875,0.54931640625
10.5299999,2.0877439975738525,-4.474762916564941,-8.585607528686523,1.3427734375,-1.5716552734375,-1.1138916015625
10.549999900000001,2.0901381969451904,-4.486733913421631,-8.56884765625,2.13623046875,-0.152587890625,-0.244140625
10.569999900000001,2.0877439975738525,-4.477157115936279,-8.580819129943848,1.3580322265625,2.044677734375,0.5340576171875
10.5899999,2.0853497982025146,-4.462791919708252,-8.592789649963379,1.251220703125,2.4261474609375,-0.274658203125
10.6099999,2.0829553604125977,-4.458003520965576,-8.56645393371582,0.0762939453125,2.9144287109375,-0.2899169921875
10.629999900000001,2.0805611610412598,-4.443638324737549,-8.516175270080566,-0.9918212890625,0.8697509765625,-0.48828125
10.649999900000001,2.075772762298584,-4.422090530395508,-8.463502883911133,1.0833740234375,-1.8768310546875,-1.2054443359375
10.6699999,2.070984363555908,-4.402936935424805,-8.449137687683105,3.173828125,-1.3427734375,-0.67138671875
10.6899999,2.0661959648132324,-4.395754337310791,-8.480262756347656,0.42724609375,0.5340576171875,0.579833984375
10.709999900000001,2.0661959648132324,-4.410119533538818,-8.516175270080566,-0.3814697265625,3.082275390625,0.885009765625
10.729999900000001,2.070984363555908,-4.436455726623535,-8.523358345031738,-0.42724609375,2.62451171875,-0.2593994140625
10.7499999,2.075772762298584,-4.455609321594238,-8.51138687133789,-0.30517578125,-1.3427734375,-1.2969970703125
10.7699999,2.078166961669922,-4.4532151222229,-8.489839553833008,2.044677734375,-1.617431640625,-1.2969970703125
10.7899999,2.073378562927246,-4.424484729766846,-8.492233276367188,1.922607421875,1.0833740234375,-0.6103515625
10.809999900000001,2.073378562927246,-4.402936935424805,-8.504204750061035,-0.7171630859375,2.197265625,1.1138916015625
10.8299999,2.075772762298584,-4.405331134796143,-8.49941635131836,-0.152587890625,1.2359619140625,1.312255859375
10.8499999,2.0829553604125977,-4.436455726623535,-8.487444877624512,-0.701904296875,-0.8544921875,-0.0457763671875
10.8699999,2.0925323963165283,-4.489128112792969,-8.487444877624512,0.5950927734375,-1.9378662109375,-1.007080078125
10.889999900000001,2.099714994430542,-4.529829502105713,-8.504204750061035,1.1138916015625,0.06103515625,-1.739501953125
10.9099999,2.10210919380188,-4.55616569519043,-8.523358345031738,-1.8157958984375,1.312255859375,-1.5106201171875
10.9299999,2.10210919380188,-4.568136692047119,-8.542511940002441,-1.2054443359375,0.0457763671875,-0.8544921875
10.9499999,2.097320795059204,-4.565742492675781,-8.547300338745117,-0.54931640625,-1.678466796875,-1.861572265625
10.969999900000001,2.0925323963165283,-4.55616569519043,-8.544905662536621,0.335693359375,-0.518798828125,-3.021240234375
10.9899999,2.0901381969451904,-4.54419469833374,-8.549694061279297,-1.46484375,-0.396728515625,-2.593994140625
11.0099999,2.0877439975738525,-4.5154643058776855,-8.580819129943848,-0.213623046875,-1.77001953125,-2.8076171875
11.0299999,2.0877439975738525,-4.486733913421631,-8.628703117370605,1.28173828125,-0.6561279296875,-2.1820068359375
11.049999900000001,2.099714994430542,-4.529829502105713,-8.705317497253418,-2.7008056640625,2.0751953125,0.9613037109375
11.069999900000001,2.1380221843719482,-4.527435302734375,-8.848969459533691,2.899169921875,4.302978515625,-4.9591064453125
11.0899999,2.205059766769409,-4.680664539337158,-9.155426979064941,21.7437744140625,12.2528076171875,-5.8135986328125
11.1099999,2.3295583724975586,-5.006275653839111,-9.435548782348633,3.41796875,31.7535400390625,-1.495361328125
11.129999900000001,2.494758129119873,-5.322310447692871,-9.677363395690918,-2.685546875,51.177978515625,-29.1748046875
11.149999900000001,2.6455929279327393,-5.724536418914795,-9.86889934539795,48.8433837890625,58.197021484375,-52.4139404296875
11.1699999,2.8227639198303223,-5.940014362335205,-9.943120002746582,70.80078125,78.0181884765625,-61.4471435546875
11.1899999,2.9281086921691895,-5.872976779937744,-10.134655952453613,36.0565185546875,89.813232421875,-78.033447265625
11.209999900000001,3.0382418632507324,-5.659893035888672,-10.359710693359375,45.684814453125,117.5384521484375,-82.4737548828125
11.229999900000001,3.1459810733795166,-5.279214859008789,-10.469843864440918,89.1876220703125,157.9437255859375,-86.4410400390625
11.2499999,3.3470940589904785,-4.975151062011719,-10.484209060668945,90.14892578125,164.459228515625,-87.21923828125
11.2699999,3.6343982219696045,-4.891354084014893,-10.407594680786133,103.485107421875,168.0450439453125,-86.9140625
11.2899999,3.957615375518799,-4.879383087158203,-9.876082420349121,89.17236328125,213.9892578125,-110.5499267578125
11.309999900000001,4.3406877517700195,-4.9583916664123535,-9.136273384094238,71.8231201171875,222.4578857421875,-120.8648681640625
11.3299999,4.776432514190674,-5.035006046295166,-8.08282470703125,53.7109375,178.4820556640625,-105.5145263671875
11.3499999,5.2480902671813965,-5.080495834350586,-6.981492042541504,62.5762939453125,174.4232177734375,-109.4207763671875
11.3699999,5.722142219543457,-5.006275653839111,-5.940014362335205,61.1724853515625,194.3359375,-136.6424560546875
11.389999900000001,6.102819919586182,-4.572925090789795,-4.98472785949707,32.3486328125,196.2432861328125,-151.9927978515625
11.4099999,6.303933143615723,-3.689464807510376,-4.101267337799072,44.37255859375,174.0264892578125,-121.917724609375
11.4299999,6.445190906524658,-2.4684219360351562,-3.1938650608062744,-3.875732421875,157.0281982421875,-65.6890869140625
11.4499999,6.54574728012085,-1.1492167711257935,-2.4899697303771973,-13.6566162109375,159.6527099609375,-27.191162109375
11.469999900000001,6.691793918609619,-0.24181437492370605,-2.118868589401245,48.52294921875,164.337158203125,8.8958740234375
11.4899999,6.799532890319824,0.31124621629714966,-1.9057846069335938,62.1795654296875,180.3741455078125,43.51806640625
11.5099999,6.847416877746582,0.33279404044151306,-1.723825216293335,10.1165771484375,193.3441162109375,79.315185546875
11.5299999,6.821080684661865,-0.026336219161748886,-1.4628572463989258,4.9285888671875,198.944091796875,100.4486083984375
11.549999900000001,6.677428722381592,-0.5937620401382446,-1.0989385843276978,27.008056640625,190.5975341796875,103.0120849609375
11.569999900000001,6.36378812789917,-1.1827356815338135,-0.5913678407669067,31.524658203125,196.197509765625,116.3482666015625
11.5899999,5.896918773651123,-1.7884687185287476,0.10295066982507706,27.923583984375,231.3232421875,153.7017822265625
11.6099999,5.303156852722168,-2.3750481605529785,1.0797849893569946,-20.08056640625,232.147216796875,179.0618896484375
11.629999900000001,4.67827033996582,-3.050212860107422,2.365471363067627,-55.8013916015625,193.8323974609375,183.77685546875
11.649999900000001,4.094084739685059,-3.825934410095215,3.646369218826294,-39.0777587890625,158.3709716796875,191.95556640625
11.6699999,3.56017804145813,-4.838681697845459,4.941632270812988,-55.8319091796875,148.101806640625,214.569091796875
11.6899999,3.0765492916107178,-5.868188381195068,6.04775333404541,-94.451904296875,131.500244140625,211.48681640625
11.709999900000001,2.6647465229034424,-6.856993675231934,6.8162922859191895,-94.8638916015625,66.6961669921875,183.3648681640625
11.729999900000001,2.3032219409942627,-7.939172744750977,7.184999465942383,-63.3087158203125,7.8887939453125,188.6749267578125
11.7499999,2.049436569213867,-8.59997272491455,6.720524311065674,-37.3077392578125,-1.03759765625,174.652099609375
11.7699999,1.7310078144073486,-9.251194953918457,5.961562156677246,-60.05859375,22.8271484375,172.9583740234375
11.7899999,1.3766659498214722,-9.50737476348877,5.066130638122559,-64.3768310546875,25.08544921875,158.87451171875
11.809999900000001,1.0031704902648926,-9.792284965515137,4.599261283874512,-95.3216552734375,-28.9459228515625,165.6951904296875
11.8299999,0.5841852426528931,-9.770736694335938,4.424484729766846,-77.728271484375,-55.938720703125,159.027099609375
11.8499999,0.1604115068912506,-9.926360130310059,4.596867084503174,-61.004638671875,-56.5948486328125,154.3121337890625
11.8699999,-0.2561795711517334,-10.287884712219238,5.104437828063965,-58.6700439453125,-55.35888671875,148.8037109375
11.889999900000001,-0.7469909191131592,-10.802638053894043,5.219359874725342,-91.9036865234375,-147.308349609375,119.2474365234375
11.9099999,-1.070208191871643,-11.8225679397583,4.955997467041016,-134.8419189453125,-223.5870361328125,101.654052734375
11.9299999,-1.3287819623947144,-12.449849128723145,3.976768970489502,-95.8099365234375,-153.0609130859375,55.1605224609375
11.9499999,-1.460463047027588,-12.57913589477539,2.6192567348480225,-78.125,-113.006591796875,18.3258056640625
11.969999900000001,-1.4867992401123047,-12.51209831237793,2.0398597717285156,-48.4161376953125,-110.260009765625,51.2542724609375
11.9899999,-1.6950948238372803,-11.774683952331543,1.9369091987609863,-34.60693359375,-196.2890625,35.736083984375
12.0099999,-1.944091796875,-11.267112731933594,2.2433669567108154,-40.58837890625,-260.4522705078125,13.336181640625
12.0299999,-2.2577321529388428,-10.757147789001465,2.2385785579681396,-75.25634765625,-221.3592529296875,15.7623291015625
12.049999900000001,-2.537853717803955,-10.170568466186523,1.4508862495422363,-66.34521484375,-205.8563232421875,17.0135498046875
12.069999900000001,-2.6216509342193604,-9.684545516967773,0.38067805767059326,-79.4219970703125,-197.9522705078125,32.623291015625
12.0899999,-2.47560453414917,-9.62947940826416,-1.1994950771331787,-59.26513671875,-202.423095703125,43.7774658203125
12.1099999,-2.1499931812286377,-9.78989028930664,-2.4660277366638184,-15.44189453125,-148.98681640625,15.7928466796875
12.129999900000001,-1.7381904125213623,-10.350133895874023,-3.2369606494903564,-49.4384765625,-90.972900390625,-6.317138671875
12.149999900000001,-1.3934253454208374,-10.687716484069824,-3.2776620388031006,-13.7786865234375,-99.3194580078125,-11.3067626953125
12.1699999,-1.2210428714752197,-10.625467300415039,-2.5498247146606445,8.392333984375,-111.2518310546875,-10.589599609375
12.1899999,-1.1659762859344482,-10.45547866821289,-1.6304513216018677,-7.26318359375,-117.6300048828125,12.51220703125
12.209999900000001,-1.2330138683319092,-10.201693534851074,-0.7613561153411865,0.1068115234375,-92.4224853515625,18.218994140625
12.229999900000001,-1.2976573705673218,-10.014945983886719,-0.38067805767059326,25.5126953125,-100.2349853515625,-0.7476806640625
12.2499999,-1.3646949529647827,-10.1753568649292,-0.13407529890537262,21.575927734375,-98.9227294921875,2.9449462890625
12.2699999,-1.2761094570159912,-10.680533409118652,-0.08379705995321274,-4.2572021484375,-89.2791748046875,3.23486328125
12.289999900000002,-1.173158884048462,-11.401188850402832,0.12210428714752197,-16.021728515625,-77.239990234375,-42.90771484375
12.309999900000001,-1.1492167711257935,-11.753135681152344,0.608127236366272,-22.674560546875,-86.2884521484375,-98.08349609375
12.3299999,-1.256955862045288,-11.224017143249512,0.646434485912323,14.892578125,-145.9197998046875,-98.1903076171875
12.3499999,-1.290474772453308,-10.623072624206543,0.07422025501728058,45.3338623046875,-147.03369140625,-5.218505859375
12.3699999,-1.2449848651885986,-9.737217903137207,-1.137245774269104,-41.0308837890625,-62.1337890625,-15.0604248046875
12.389999900000001,-0.8906430602073669,-9.660603523254395,-2.652775526046753,-82.489013671875,-5.4473876953125,-94.42138671875
12.4099999,-0.3902548849582672,-10.022128105163574,-3.5482068061828613,-56.5338134765625,16.845703125,-115.72265625
12.4299999,0,-10.098742485046387,-3.620033025741577,-53.1768798828125,15.655517578125,-112.5030517578125
12.4499999,0.29209262132644653,-9.890447616577148,-3.0190882682800293,-58.7310791015625,17.39501953125,-83.2366943359375
12.469999900000001,0.47405192255973816,-9.461885452270508,-2.1787235736846924,-51.8951416015625,16.143798828125,-60.943603515625
12.4899999,0.6153098344802856,-9.035717010498047,-1.3838485479354858,-59.1278076171875,7.2174072265625,-59.6160888671875
12.5099999,0.7709329724311829,-8.746018409729004,-0.8858546018600464,-62.5,-4.791259765625,-57.037353515625
12.5299999,0.9241618514060974,-8.571242332458496,-0.8020575642585754,-37.6129150390625,-6.805419921875,-40.679931640625
12.549999900000001,1.0869675874710083,-8.49941635131836,-1.0869675874710083,-25.787353515625,-1.3580322265625,-26.2451171875
12.569999900000001,1.2665326595306396,-8.56884765625,-1.5658079385757446,-28.1524658203125,11.16943359375,-20.416259765625
12.5899999,1.4221558570861816,-8.712499618530273,-1.965639591217041,-20.8740234375,23.98681640625,-20.904541015625
12.6099999,1.5610195398330688,-8.882488250732422,-2.1547815799713135,-21.1639404296875,21.4691162109375,-17.913818359375
12.629999900000001,1.678335428237915,-9.047688484191895,-2.1380221843719482,-14.83154296875,9.033203125,-9.9639892578125
12.649999900000001,1.7836803197860718,-9.17697525024414,-2.013523578643799,-7.537841796875,5.4931640625,-7.7667236328125
12.6699999,1.867477297782898,-9.258378028869629,-1.946485996246338,-5.828857421875,6.2255859375,-11.566162109375
12.6899999,1.9345149993896484,-9.26795482635498,-1.9823989868164062,-4.6539306640625,6.7901611328125,-11.0931396484375
12.709999900000001,1.987187385559082,-9.23443603515625,-2.097320795059204,-7.7362060546875,10.528564453125,-0.3662109375
12.729999900000001,2.0183119773864746,-9.191340446472168,-2.2457611560821533,-2.960205078125,18.5394287109375,7.720947265625
12.7499999,2.070984363555908,-9.258378028869629,-2.33913516998291,-5.2490234375,26.824951171875,9.307861328125
12.7699999,2.1332337856292725,-9.425971984863281,-2.322375535964966,-7.659912109375,31.6314697265625,3.265380859375
12.789999900000002,2.1739351749420166,-9.605537414550781,-2.164358377456665,-14.0228271484375,21.1944580078125,-6.40869140625
12.809999900000001,2.1978771686553955,-9.670180320739746,-1.9776105880737305,-12.87841796875,3.47900390625,-11.41357421875
12.8299999,2.190694570541382,-9.653421401977539,-1.8411411046981812,-3.90625,-1.220703125,-3.5400390625
12.8499999,2.1787235736846924,-9.5408935546875,-1.7980455160140991,-7.1258544921875,6.28662109375,-0.030517578125
12.8699999,2.1739351749420166,-9.457097053527832,-1.8531121015548706,-1.861572265625,8.1634521484375,-2.5634765625
12.889999900000001,2.190694570541382,-9.442731857299805,-1.9393033981323242,-3.0670166015625,3.7994384765625,-4.0283203125
12.9099999,2.2170307636260986,-9.476250648498535,-1.9991583824157715,-7.6904296875,1.556396484375,-8.5906982421875
12.9299999,2.2409727573394775,-9.493009567260742,-2.051830768585205,-11.505126953125,2.5482177734375,-14.0533447265625
12.9499999,2.255337953567505,-9.466673851013184,-2.1045033931732178,-6.2103271484375,3.631591796875,-12.786865234375
12.969999900000001,2.2649147510528564,-9.399636268615723,-2.140416383743286,-5.6304931640625,3.204345703125,-6.8511962890625
12.9899999,2.274491548538208,-9.320627212524414,-2.164358377456665,-6.65283203125,3.692626953125,-4.4403076171875
13.0099999,2.293645143508911,-9.272743225097656,-2.1811177730560303,-8.0108642578125,3.082275390625,-4.0283203125
13.0299999,2.3295583724975586,-9.255983352661133,-2.212242364883423,-4.669189453125,1.4801025390625,-5.7220458984375
13.049999900000001,2.3487119674682617,-9.23682975769043,-2.2433669567108154,-3.265380859375,0.8392333984375,-7.171630859375
13.069999900000001,2.3726539611816406,-9.191340446472168,-2.255337953567505,-11.3372802734375,1.3885498046875,-4.33349609375
13.0899999,2.382230758666992,-9.165003776550293,-2.2912509441375732,-7.4920654296875,0.3662109375,0.335693359375
13.1099999,2.3942017555236816,-9.141061782836914,-2.279279947280884,-4.1046142578125,1.5869140625,-1.800537109375
13.129999900000001,2.4133553504943848,-9.162610054016113,-2.2888567447662354,-6.6375732421875,0.3509521484375,-3.936767578125
13.149999900000001,2.434903144836426,-9.186552047729492,-2.3032219409942627,0.4425048828125,-2.685546875,-4.4097900390625
13.1699999,2.4588451385498047,-9.220070838928223,-2.3535003662109375,3.662109375,-3.204345703125,-2.4261474609375
13.1899999,2.473210334777832,-9.220070838928223,-2.4013843536376953,-4.5013427734375,0.30517578125,-3.47900390625
13.209999900000001,2.4803929328918457,-9.208099365234375,-2.449268341064453,-7.8887939453125,1.434326171875,-4.45556640625
13.229999900000001,2.4851813316345215,-9.17697525024414,-2.473210334777832,-4.21142578125,-1.7547607421875,-3.7689208984375
13.2499999,2.47560453414917,-9.126696586608887,-2.4684219360351562,1.1138916015625,-1.52587890625,-3.204345703125
13.2699999,2.4803929328918457,-9.100360870361328,-2.4396915435791016,-5.889892578125,-1.1749267578125,-2.0294189453125
13.289999900000002,2.4875755310058594,-9.126696586608887,-2.4133553504943848,-3.5400390625,-1.9989013671875,-1.2664794921875
13.309999900000001,2.5067291259765625,-9.181763648986816,-2.3726539611816406,-2.38037109375,-2.777099609375,-3.4637451171875
13.3299999,2.5234885215759277,-9.255983352661133,-2.360682964324951,0.1678466796875,-3.1890869140625,-5.5694580078125
13.3499999,2.5450363159179688,-9.301473617553711,-2.382230758666992,0.0152587890625,-3.1280517578125,-6.8511962890625
13.3699999,2.5522189140319824,-9.296685218811035,-2.434903144836426,-0.640869140625,-0.8087158203125,-7.3394775390625
13.389999900000001,2.557007312774658,-9.244012832641602,-2.4875755310058594,-7.9803466796875,0.335693359375,-6.622314453125
13.4099999,2.5665841102600098,-9.181763648986816,-2.5306711196899414,-10.8489990234375,-1.7852783203125,-4.0130615234375
13.4299999,2.5785553455352783,-9.138668060302734,-2.58813214302063,-7.6904296875,-3.8299560546875,-2.349853515625
13.4499999,2.5929205417633057,-9.107542991638184,-2.652775526046753,-8.5601806640625,-0.5950927734375,-4.9896240234375
13.469999900000001,2.6168625354766846,-9.100360870361328,-2.7102363109588623,-15.07568359375,2.6397705078125,-5.2642822265625
13.4899999,2.6455929279327393,-9.131484985351562,-2.784456491470337,4.9591064453125,4.364013671875,-1.251220703125
13.5099999,2.669534921646118,-9.148244857788086,-2.8227639198303223,22.52197265625,8.819580078125,-3.8299560546875
13.5299999,2.6886885166168213,-9.172186851501465,-2.7916390895843506,5.8135986328125,11.8408203125,-6.53076171875
13.549999900000001,2.693476915359497,-9.174580574035645,-2.7293899059295654,3.0059814453125,9.8114013671875,-5.2642822265625
13.569999900000001,2.6815059185028076,-9.131484985351562,-2.5689783096313477,-3.3111572265625,5.2337646484375,-4.1656494140625
13.5899999,2.6647465229034424,-9.069235801696777,-2.3965959548950195,-1.800537109375,0.9765625,-3.631591796875
13.6099999,2.6575639247894287,-9.040505409240723,-2.255337953567505,-3.7994384765625,-3.2501220703125,-0.7171630859375
13.629999900000001,2.6599581241607666,-9.026140213012695,-2.2026655673980713,-0.9613037109375,-3.448486328125,-1.007080078125
13.649999900000001,2.674323320388794,-9.033323287963867,-2.2361843585968018,-1.40380859375,-2.62451171875,-3.2806396484375
13.6699999,2.693476915359497,-9.050082206726074,-2.3295583724975586,-3.3416748046875,-2.44140625,-2.349853515625
13.6899999,2.717418909072876,-9.069235801696777,-2.4372973442077637,-6.28662109375,-2.7313232421875,0.1220703125
13.709999900000001,2.7437551021575928,-9.093177795410156,-2.5330653190612793,-3.7078857421875,-2.532958984375,-0.30517578125
13.729999900000001,2.7772738933563232,-9.141061782836914,-2.6216509342193604,2.25830078125,-1.4801025390625,-2.3956298828125
13.7499999,2.8107926845550537,-9.186552047729492,-2.7102363109588623,7.26318359375,1.2664794921875,-4.150390625
13.7699999,2.8395233154296875,-9.222464561462402,-2.779668092727661,6.5155029296875,3.4332275390625,-4.638671875
13.789999900000002,2.8395233154296875,-9.2033109664917,-2.8347349166870117,11.7950439453125,6.9427490234375,-4.5166015625
13.809999900000001,2.7916390895843506,-9.07641887664795,-2.7293899059295654,-6.7596435546875,7.4005126953125,5.3253173828125
13.8299999,2.7724854946136475,-9.028534889221191,-2.58813214302063,-7.4615478515625,4.058837890625,6.8359375
13.8499999,2.762908697128296,-9.033323287963867,-2.4468741416931152,-3.509521484375,-1.434326171875,1.678466796875
13.8699999,2.760514497756958,-9.05487060546875,-2.360682964324951,1.373291015625,-3.082275390625,-1.28173828125
13.889999900000001,2.7485435009002686,-9.074024200439453,-2.360682964324951,4.150390625,-1.3580322265625,2.2735595703125
13.9099999,2.7293899059295654,-9.083600997924805,-2.3965959548950195,-0.79345703125,0.6256103515625,7.5836181640625
13.9299999,2.7102363109588623,-9.102754592895508,-2.434903144836426,-9.490966796875,-1.251220703125,7.50732421875
13.9499999,2.7078421115875244,-9.148244857788086,-2.434903144836426,-6.4849853515625,-4.33349609375,3.326416015625
13.969999900000001,2.7030537128448486,-9.191340446472168,-2.4229321479797363,-0.79345703125,-7.0648193359375,-2.716064453125
13.9899999,2.7006595134735107,-9.174580574035645,-2.449268341064453,5.2642822265625,-7.2021484375,-4.08935546875
14.0099999,2.6839001178741455,-9.117119789123535,-2.5330653190612793,-3.173828125,-5.6915283203125,2.38037109375
14.0299999,2.6671407222747803,-9.028534889221191,-2.650381326675415,-7.6446533203125,-1.434326171875,6.8359375
14.049999900000001,2.6575639247894287,-8.973467826843262,-2.7006595134735107,-11.2152099609375,2.1820068359375,7.2021484375
14.069999900000001,2.6623523235321045,-8.975862503051758,-2.583343744277954,-3.9520263671875,0.5035400390625,3.7689208984375
14.0899999,2.655169725418091,-9.028534889221191,-2.3774423599243164,23.4832763671875,-12.481689453125,0.7781982421875
14.1099999,2.63362193107605,-8.98543930053711,-2.1547815799713135,36.9873046875,-29.6783447265625,0.6866455078125
14.129999900000001,2.583343744277954,-9.006986618041992,-2.140416383743286,36.4227294921875,-29.815673828125,11.5203857421875
14.149999900000001,2.5091233253479004,-8.947132110595703,-2.3319525718688965,7.62939453125,-20.751953125,15.106201171875
14.1699999,2.454056739807129,-8.995016098022461,-2.676717519760132,-6.4544677734375,-3.875732421875,13.6871337890625
14.1899999,2.4205379486083984,-9.105149269104004,-2.9759926795959473,-12.9852294921875,6.65283203125,9.185791015625
14.209999900000001,2.4181437492370605,-9.248801231384277,-3.1196448802948,-1.7547607421875,13.1072998046875,3.021240234375
14.229999900000001,2.427720546722412,-9.373299598693848,-3.045424461364746,-2.9754638671875,12.176513671875,-0.30517578125
14.2499999,2.4372973442077637,-9.430760383605957,-2.8395233154296875,2.0294189453125,7.843017578125,1.495361328125
14.2699999,2.427720546722412,-9.440337181091309,-2.5977089405059814,-0.3509521484375,-0.7781982421875,5.3558349609375
14.289999900000002,2.4013843536376953,-9.423578262329102,-2.451662540435791,-0.732421875,-2.8839111328125,5.0048828125
14.309999900000001,2.406172752380371,-9.41639518737793,-2.497152328491211,8.23974609375,1.77001953125,1.9683837890625
14.3299999,2.389413356781006,-9.421183586120605,-2.5737667083740234,-12.7716064453125,14.2822265625,0.244140625
14.3499999,2.3989901542663574,-9.418789863586426,-2.6886885166168213,-7.2479248046875,19.3328857421875,-0.3814697265625
14.3699999,2.4133553504943848,-9.41400146484375,-2.6862943172454834,-8.209228515625,11.199951171875,1.1444091796875
14.389999900000001,2.406172752380371,-9.418789863586426,-2.691082715988159,1.983642578125,5.31005859375,0.67138671875
14.4099999,2.387019157409668,-9.44991397857666,-2.7054479122161865,4.150390625,11.23046875,-2.01416015625
14.4299999,2.408566951751709,-9.469067573547363,-2.7916390895843506,-1.007080078125,22.186279296875,-6.4239501953125
14.4499999,2.382230758666992,-9.50498104095459,-2.9089550971984863,0.518798828125,24.5819091796875,-6.988525390625
14.469999900000001,2.406172752380371,-9.53849983215332,-2.964021682739258,-7.9345703125,28.7322998046875,-1.03759765625
14.4899999,2.4684219360351562,-9.627084732055664,-2.9328970909118652,-13.916015625,33.9813232421875,0.701904296875
14.5099999,2.535459518432617,-9.715670585632324,-2.827552318572998,-6.195068359375,33.3099365234375,-11.3677978515625
14.5299999,2.5905263423919678,-9.732429504394531,-2.626439332962036,-1.3885498046875,27.7099609375,-26.4739990234375
14.549999900000001,2.5929205417633057,-9.5408935546875,-2.4229321479797363,11.260986328125,21.6522216796875,-26.8096923828125
14.569999900000001,2.5737667083740234,-9.289502143859863,-2.2385785579681396,17.059326171875,17.669677734375,-9.1400146484375
14.5899999,2.557007312774658,-9.009381294250488,-2.1140801906585693,9.8876953125,17.120361328125,-4.1656494140625
14.6099999,2.6192567348480225,-8.856152534484863,-2.0039467811584473,9.124755859375,15.93017578125,-16.1895751953125
14.629999900000001,2.738966703414917,-8.83699893951416,-1.920149803161621,12.4969482421875,9.796142578125,-20.6146240234375
14.649999900000001,2.8634653091430664,-8.815450668334961,-1.8722656965255737,17.3492431640625,4.7760009765625,-18.3563232421875
14.6699999,2.9975404739379883,-8.803479194641113,-1.8818424940109253,9.70458984375,6.65283203125,-9.2010498046875
14.6899999,3.1028854846954346,-8.813055992126465,-1.9584569931030273,7.87353515625,10.162353515625,-3.936767578125
14.709999900000001,3.160346269607544,-8.834604263305664,-2.051830768585205,5.645751953125,11.9476318359375,-11.0321044921875
14.729999900000001,3.2082302570343018,-8.899248123168945,-2.0853497982025146,-5.615234375,13.73291015625,-9.7198486328125
14.7499999,3.2297780513763428,-8.935160636901855,-2.1116859912872314,-5.340576171875,10.2386474609375,-3.8299560546875
14.7699999,3.2178070545196533,-8.971074104309082,-2.1045033931732178,14.0380859375,13.5345458984375,-3.4942626953125
14.789999900000002,3.248931646347046,-8.999804496765137,-2.013523578643799,24.810791015625,23.2696533203125,-7.2021484375
14.809999900000001,3.265691041946411,-9.0859956741333,-1.941697597503662,52.1240234375,23.3612060546875,-10.711669921875
14.8299999,3.2752678394317627,-9.165003776550293,-1.778891921043396,61.1419677734375,18.00537109375,-15.3350830078125
14.8499999,3.3279404640197754,-9.287108421325684,-1.6615760326385498,88.0584716796875,26.1077880859375,-12.8631591796875
14.8699999,3.35667085647583,-9.344569206237793,-1.5921441316604614,106.62841796875,36.07177734375,-18.12744140625
14.889999900000001,3.404554843902588,-9.342175483703613,-1.5658079385757446,74.188232421875,43.487548828125,-22.3236083984375
14.9099999,3.450044631958008,-9.251194953918457,-1.381454348564148,46.2493896484375,53.64990234375,-18.9666748046875
14.9299999,3.4979286193847656,-9.117119789123535,-1.0965443849563599,51.513671875,54.534912109375,-13.4429931640625
14.9499999,3.5482068061828613,-9.014169692993164,-0.7924807667732239,33.7982177734375,42.205810546875,-10.3912353515625
14.969999900000001,3.6104562282562256,-8.980650901794434,-0.37828385829925537,-8.0108642578125,47.149658203125,-11.810302734375
14.9899999,3.6511576175689697,-8.968679428100586,-0.1173158809542656,12.6800537109375,56.182861328125,-13.8397216796875
15.0099999,3.627215623855591,-8.980650901794434,0.014365210197865963,9.2315673828125,44.4488525390625,-8.6212158203125
15.0299999,3.6104562282562256,-8.858546257019043,0.1412578970193863,-30.5633544921875,50.1556396484375,-2.8533935546875
15.049999900000001,3.5913026332855225,-8.803479194641113,0.5003881454467773,-52.42919921875,73.4100341796875,7.965087890625
15.069999900000001,3.627215623855591,-8.798690795898438,0.9911994934082031,6.2255859375,48.64501953125,10.80322265625
15.0899999,3.6942532062530518,-8.887276649475098,1.580173134803772,69.061279296875,-0.1068115234375,-1.495361328125
15.1099999,3.7493197917938232,-9.030928611755371,2.049436569213867,60.3485107421875,-15.1519775390625,-7.7056884765625
15.129999900000001,3.773261785507202,-9.10993766784668,2.0398597717285156,74.89013671875,-6.4239501953125,-7.110595703125
15.149999900000001,3.7900211811065674,-9.167398452758789,1.766920804977417,52.91748046875,-6.3323974609375,1.46484375
15.1699999,3.8163576126098633,-9.21288776397705,1.2832920551300049,50.0946044921875,0.4425048828125,1.8157958984375
15.1899999,3.840299606323242,-9.277531623840332,0.9409212470054626,28.74755859375,7.26318359375,-5.5694580078125
15.209999900000001,3.9001545906066895,-9.32302188873291,0.8020575642585754,23.8037109375,15.7623291015625,-8.5906982421875
15.229999900000001,3.9193081855773926,-9.334992408752441,0.9744400978088379,34.0576171875,14.70947265625,-6.04248046875
15.2499999,3.931279182434082,-9.208099365234375,1.501164436340332,70.9075927734375,7.965087890625,-9.765625
15.2699999,3.892971992492676,-9.033323287963867,2.1763293743133545,121.7803955078125,-1.5869140625,-10.6964111328125
15.289999900000002,3.847482204437256,-8.863334655761719,2.655169725418091,162.445068359375,-14.373779296875,-2.3956298828125
15.309999900000001,3.818751811981201,-8.729259490966797,2.9281086921691895,154.1900634765625,-4.2572021484375,1.4190673828125
15.3299999,3.823540210723877,-8.640673637390137,3.0119056701660156,109.619140625,11.749267578125,-4.7607421875
15.3499999,3.8307228088378906,-8.525752067565918,3.141192674636841,99.7161865234375,3.9520263671875,-9.9639892578125
15.3699999,3.823540210723877,-8.327033042907715,3.421314239501953,159.2254638671875,-3.72314453125,-2.9449462890625
15.389999900000001,3.823540210723877,-8.066065788269043,3.847482204437256,183.6700439453125,-6.04248046875,11.444091796875
15.4099999,3.8163576126098633,-7.800309181213379,4.20421838760376,162.29248046875,-3.2958984375,20.9808349609375
15.4299999,3.758896589279175,-7.433996200561523,4.522646903991699,106.8115234375,1.5869140625,17.8985595703125
15.4499999,3.6966474056243896,-7.132327079772949,4.881777286529541,98.724365234375,7.843017578125,49.49951171875
15.469999900000001,3.6104562282562256,-6.916848659515381,5.398924827575684,111.1297607421875,0.2288818359375,79.345703125
15.4899999,3.5170822143554688,-6.761225700378418,5.861005783081055,115.9820556640625,-31.8603515625,67.9473876953125
15.5099999,3.4739866256713867,-6.768408298492432,6.208165168762207,105.04150390625,-35.09521484375,55.0537109375
15.5299999,3.4332852363586426,-6.842628479003906,6.339846134185791,75.0885009765625,-14.251708984375,60.24169921875
15.549999900000001,3.3925838470458984,-6.926425457000732,6.3063273429870605,79.132080078125,5.218505859375,57.830810546875
15.569999900000001,3.3854012489318848,-7.026981830596924,6.378153324127197,84.930419921875,10.0250244140625,31.9671630859375
15.5899999,3.339911460876465,-6.9695210456848145,6.452373504638672,84.28955078125,-4.33349609375,5.157470703125
15.6099999,3.3446998596191406,-6.892906665802002,6.651092529296875,85.51025390625,6.500244140625,11.23046875
15.629999900000001,3.2609026432037354,-6.5696892738342285,6.780379295349121,80.169677734375,16.41845703125,13.397216796875
15.649999900000001,3.162740468978882,-6.18182897567749,6.955155849456787,66.89453125,20.965576171875,6.6680908203125
15.6699999,3.0789434909820557,-5.901707172393799,7.1706342697143555,58.16650390625,20.9197998046875,11.138916015625
15.6899999,2.999934673309326,-5.657498836517334,7.398083209991455,60.5926513671875,15.0604248046875,4.9896240234375
15.709999900000001,2.940079689025879,-5.477933406829834,7.601590633392334,58.135986328125,15.045166015625,-4.0435791015625
15.729999900000001,2.8993782997131348,-5.355829238891602,7.783549785614014,31.9366455078125,17.5933837890625,-0.0152587890625
15.7499999,2.8227639198303223,-5.147533416748047,7.884106159210205,24.2919921875,12.481689453125,0.6866455078125
15.7699999,2.738966703414917,-4.922478675842285,8.02536392211914,41.6717529296875,15.6402587890625,2.044677734375
15.789999900000002,2.6862943172454834,-4.795586109161377,8.152256965637207,57.098388671875,20.721435546875,11.9171142578125
15.809999900000001,2.63362193107605,-4.7189717292785645,8.279149055480957,50.872802734375,17.8985595703125,6.6070556640625
15.8299999,2.604891538619995,-4.692635536193848,8.382100105285645,47.8515625,16.0369873046875,-2.9296875
15.8499999,2.5785553455352783,-4.685452938079834,8.461109161376953,43.304443359375,16.0675048828125,-0.3814697265625
15.869999900000002,2.5067291259765625,-4.558559894561768,8.501810073852539,41.07666015625,14.1754150390625,1.4801025390625
15.889999900000001,2.4229321479797363,-4.32871675491333,8.516175270080566,59.7381591796875,22.6593017578125,-0.1220703125
15.9099999,2.3535003662109375,-4.129997730255127,8.580819129943848,65.8111572265625,32.8369140625,7.32421875
15.9299999,2.2888567447662354,-3.912125587463379,8.667010307312012,54.1839599609375,25.054931640625,4.913330078125
15.9499999,2.2457611560821533,-3.7158010005950928,8.798690795898438,44.9676513671875,16.448974609375,-0.6866455078125
15.969999900000001,2.209848165512085,-3.5673606395721436,8.923190116882324,38.818359375,16.7694091796875,1.6632080078125
15.9899999,2.142810583114624,-3.3734302520751953,9.006986618041992,32.470703125,17.08984375,3.6163330078125
16.0099999,2.0901381969451904,-3.2417490482330322,9.045293807983398,29.327392578125,15.899658203125,3.7841796875
16.0299999,2.030282974243164,-3.136404275894165,9.095572471618652,29.937744140625,16.2506103515625,2.0294189453125
16.0499999,1.9704279899597168,-3.0573954582214355,9.14345645904541,29.6630859375,14.5416259765625,-0.1983642578125
16.0699999,1.9249382019042969,-2.980781078338623,9.184157371520996,35.1104736328125,13.9923095703125,2.13623046875
16.089999900000002,1.8794482946395874,-2.8993782997131348,9.229647636413574,34.7747802734375,15.7012939453125,3.2196044921875
16.109999900000002,1.8339585065841675,-2.7700912952423096,9.248801231384277,27.618408203125,14.9993896484375,0.1068115234375
16.1299999,1.8124107122421265,-2.693476915359497,9.282320022583008,22.552490234375,13.9617919921875,1.800537109375
16.1499999,1.7812861204147339,-2.5953147411346436,9.342175483703613,17.059326171875,10.894775390625,0.1983642578125
16.1699999,1.7621324062347412,-2.5330653190612793,9.430760383605957,7.2174072265625,5.584716796875,-1.9073486328125
16.1899999,1.7334020137786865,-2.470816135406494,9.488221168518066,-0.8544921875,-0.579833984375,-2.5634765625
16.2099999,1.7190368175506592,-2.4444799423217773,9.50737476348877,-2.0599365234375,-1.6326904296875,-1.434326171875
16.2299999,1.7046716213226318,-2.432508945465088,9.473855972290039,-7.2174072265625,-0.518798828125,-2.2735595703125
16.249999900000002,1.7166426181793213,-2.4660277366638184,9.39245319366455,-6.65283203125,-0.2593994140625,-3.8909912109375
16.269999900000002,1.7190368175506592,-2.470816135406494,9.318233489990234,-11.9781494140625,0.42724609375,-6.591796875
16.2899999,1.7190368175506592,-2.4372973442077637,9.265560150146484,-10.0555419921875,2.6702880859375,-5.0506591796875
16.3099999,1.7166426181793213,-2.408566951751709,9.253589630126953,-10.467529296875,3.8604736328125,3.23486328125
16.3299999,1.6927006244659424,-2.3367409706115723,9.258378028869629,-11.53564453125,0.4119873046875,3.9825439453125
16.3499999,1.6974890232086182,-2.387019157409668,9.29189682006836,-1.678466796875,2.960205078125,7.2021484375
16.3699999,1.6903064250946045,-2.4588451385498047,9.30386734008789,4.3182373046875,4.1046142578125,6.2103271484375
16.3899999,1.6831238269805908,-2.535459518432617,9.337387084960938,6.9122314453125,5.462646484375,3.9215087890625
16.4099999,1.6735470294952393,-2.5929205417633057,9.334992408752441,7.62939453125,4.364013671875,6.378173828125
16.429999900000002,1.6615760326385498,-2.607285737991333,9.354146003723145,4.8980712890625,3.021240234375,8.8958740234375
16.4499999,1.644816517829895,-2.5953147411346436,9.402029991149902,-0.946044921875,5.06591796875,6.4849853515625
16.4699999,1.6424223184585571,-2.609679937362671,9.445125579833984,1.28173828125,2.5787353515625,5.7373046875
16.4899999,1.6400281190872192,-2.6455929279327393,9.500192642211914,0.54931640625,-0.8544921875,4.4708251953125
16.5099999,1.6208745241165161,-2.626439332962036,9.5408935546875,3.5552978515625,0.762939453125,1.2664794921875
16.5299999,1.6136919260025024,-2.63362193107605,9.57201862335205,4.0740966796875,3.204345703125,2.9754638671875
16.5499999,1.5969325304031372,-2.607285737991333,9.550470352172852,2.044677734375,-2.2430419921875,4.5928955078125
16.5699999,1.599326729774475,-2.607285737991333,9.552865028381348,-2.5177001953125,-2.7313232421875,1.8310546875
16.589999900000002,1.6136919260025024,-2.612074136734009,9.521739959716797,-6.103515625,-1.5869140625,-0.4119873046875
16.609999900000002,1.625662922859192,-2.5689783096313477,9.548076629638672,-6.866455078125,-1.800537109375,-1.0986328125
16.6299999,1.6927006244659424,-2.6024973392486572,9.567230224609375,-5.462646484375,-6.256103515625,4.7454833984375
16.6499999,1.7717092037200928,-2.6001031398773193,9.586383819580078,-20.08056640625,-16.815185546875,-1.52587890625
16.6699999,1.8698714971542358,-2.5905263423919678,9.564835548400879,-52.9022216796875,-24.8260498046875,-12.4664306640625
16.6899999,2.0015525817871094,-2.762908697128296,9.402029991149902,-77.57568359375,-34.4085693359375,-9.6588134765625
16.7099999,2.0685901641845703,-2.832340717315674,9.246406555175781,-90.423583984375,-41.0003662109375,-20.08056640625
16.7299999,2.0254945755004883,-2.873042106628418,9.17697525024414,-97.6715087890625,-45.4864501953125,-32.0281982421875
16.749999900000002,1.9560627937316895,-2.9520506858825684,9.210494041442871,-57.6019287109375,-60.6231689453125,-11.4593505859375
16.769999900000002,1.9129672050476074,-3.0382418632507324,9.533711433410645,-31.1431884765625,-96.3134765625,5.2032470703125
16.7899999,1.946485996246338,-3.2106244564056396,9.198522567749023,16.815185546875,-141.326904296875,0.79345703125
16.8099999,2.207453966140747,-3.737348794937134,8.81784439086914,25.7568359375,-48.6907958984375,17.88330078125
16.8299999,2.564189910888672,-4.278438568115234,8.149862289428711,-3.5552978515625,24.4293212890625,6.5155029296875
16.8499999,2.8874073028564453,-4.627991676330566,7.687781810760498,-8.1787109375,7.2021484375,-22.6287841796875
16.8699999,3.1483752727508545,-4.67827033996582,7.572859764099121,12.3748779296875,-18.218994140625,-16.326904296875
16.8899999,3.265691041946411,-4.395754337310791,7.759607791900635,15.5487060546875,4.8980712890625,7.9498291015625
16.9099999,3.265691041946411,-3.9695863723754883,7.982268333435059,0.762939453125,32.6080322265625,7.8582763671875
16.929999900000002,3.222595453262329,-3.706224203109741,8.075642585754395,10.894775390625,28.8543701171875,7.1258544921875
16.9499999,3.1531636714935303,-3.622427225112915,8.212111473083496,24.47509765625,32.04345703125,5.8135986328125
16.9699999,3.045424461364746,-3.6176388263702393,8.44195556640625,10.92529296875,47.9736328125,-0.1678466796875
16.9899999,2.940079689025879,-3.6727054119110107,8.549694061279297,14.6026611328125,35.3546142578125,2.8839111328125
17.0099999,2.8131868839263916,-3.6152446269989014,8.700529098510742,25.9552001953125,29.1595458984375,4.3182373046875
17.0299999,2.669534921646118,-3.5027170181274414,8.89445972442627,23.2391357421875,42.2821044921875,4.486083984375
17.0499999,2.5546131134033203,-3.3901896476745605,9.05247688293457,21.9268798828125,34.027099609375,11.7034912109375
17.0699999,2.4133553504943848,-3.2178070545196533,9.215282440185547,23.956298828125,13.3819580078125,11.199951171875
17.089999900000002,2.3343467712402344,-3.157952070236206,9.337387084960938,23.3306884765625,4.730224609375,14.0228271484375
17.109999900000002,2.27209734916687,-3.141192674636841,9.370905876159668,14.0533447265625,6.3018798828125,15.655517578125
17.1299999,2.2409727573394775,-3.155557870864868,9.277531623840332,7.9345703125,2.197265625,11.077880859375
17.1499999,2.248155355453491,-3.2417490482330322,9.14585018157959,4.180908203125,2.410888671875,9.918212890625
17.1699999,2.250549554824829,-3.2752678394317627,9.083600997924805,-3.4637451171875,8.3160400390625,7.6751708984375
17.1899999,2.252943754196167,-3.2776620388031006,9.030928611755371,-5.6610107421875,4.3487548828125,5.7373046875
17.2099999,2.2457611560821533,-3.268085241317749,9.026140213012695,-3.753662109375,-1.0223388671875,7.9345703125
17.2299999,2.2218191623687744,-3.24414324760437,9.016563415527344,-8.2244873046875,0.67138671875,6.439208984375
17.249999900000002,2.1978771686553955,-3.251325845718384,9.006986618041992,-13.8702392578125,4.39453125,4.6539306640625
17.269999900000002,2.1739351749420166,-3.268085241317749,9.002198219299316,-11.749267578125,3.2196044921875,3.662109375
17.2899999,2.1595699787139893,-3.315969467163086,9.047688484191895,-2.13623046875,1.1444091796875,5.3558349609375
17.3099999,2.1499931812286377,-3.3279404640197754,9.0859956741333,3.1585693359375,-0.18310546875,3.4942626953125
17.3299999,2.140416383743286,-3.3470940589904785,9.126696586608887,0.30517578125,0.732421875,4.1961669921875
17.3499999,2.1356279850006104,-3.3638534545898438,9.105149269104004,0.0152587890625,0.4730224609375,5.3863525390625
17.3699999,2.118868589401245,-3.35667085647583,9.081207275390625,0.6561279296875,0.518798828125,4.3792724609375
17.3899999,2.1164743900299072,-3.3901896476745605,9.05487060546875,0.6103515625,0.701904296875,4.974365234375
17.409999900000003,2.1164743900299072,-3.4332852363586426,9.042900085449219,-0.030517578125,0.1220703125,3.2196044921875
17.429999900000002,2.121262788772583,-3.4763808250427246,9.050082206726074,2.288818359375,-0.3509521484375,-0.579833984375
17.4499999,2.123656988143921,-3.4979286193847656,9.028534889221191,3.7994384765625,-1.89208984375,-2.349853515625
17.4699999,2.1140801906585693,-3.4620156288146973,9.026140213012695,3.23486328125,0.7171630859375,-1.0833740234375
17.4899999,2.10210919380188,-3.3901896476745605,8.983044624328613,6.9580078125,2.5177001953125,1.9378662109375
17.5099999,2.0829553604125977,-3.3039982318878174,8.927978515625,9.674072265625,0.579833984375,2.655029296875
17.5299999,2.075772762298584,-3.2417490482330322,8.916007041931152,8.819580078125,4.974365234375,2.0751953125
17.5499999,2.078166961669922,-3.224989652633667,8.892065048217773,6.6070556640625,3.7841796875,2.6702880859375
17.5699999,2.0877439975738525,-3.251325845718384,8.901641845703125,3.5552978515625,1.5869140625,1.5106201171875
17.589999900000002,2.097320795059204,-3.270479440689087,8.913613319396973,2.9144287109375,2.3040771484375,-2.3651123046875
17.609999900000002,2.1045033931732178,-3.292027235031128,8.949525833129883,2.3956298828125,4.2572021484375,-1.5106201171875
17.6299999,2.10210919380188,-3.2776620388031006,8.973467826843262,0.8392333984375,3.265380859375,-0.3814697265625
17.6499999,2.0925323963165283,-3.2585084438323975,9.045293807983398,-2.4871826171875,2.86865234375,-0.152587890625
17.6699999,2.0877439975738525,-3.2585084438323975,9.057265281677246,-2.5787353515625,0.274658203125,-0.4119873046875
17.6899999,2.075772762298584,-3.2561142444610596,9.114726066589355,-6.5460205078125,1.922607421875,-2.0294189453125
17.7099999,2.0661959648132324,-3.2632968425750732,9.141061782836914,-9.1552734375,2.044677734375,-1.251220703125
17.7299999,2.0614075660705566,-3.265691041946411,9.162610054016113,-0.18310546875,-0.396728515625,0.06103515625
17.749999900000002,2.056619167327881,-3.265691041946411,9.21288776397705,1.678466796875,0.6256103515625,0.1220703125
17.769999900000002,2.0638017654418945,-3.2824504375457764,9.17697525024414,-0.213623046875,-2.471923828125,0.54931640625
17.7899999,2.0685901641845703,-3.292027235031128,9.174580574035645,-0.48828125,1.9989013671875,0.244140625
17.8099999,2.0805611610412598,-3.315969467163086,9.133879661560059,-1.2969970703125,2.50244140625,0.274658203125
17.8299999,2.0829553604125977,-3.3063924312591553,9.117119789123535,0.213623046875,-0.79345703125,-0.1220703125
17.8499999,2.0877439975738525,-3.3039982318878174,9.138668060302734,0.18310546875,0.91552734375,0.9307861328125
17.8699999,2.0877439975738525,-3.2800562381744385,9.124302864074707,0.091552734375,-1.3427734375,1.5411376953125
17.8899999,2.094926595687866,-3.287238836288452,9.138668060302734,0,-0.0762939453125,1.40380859375
17.909999900000003,2.1045033931732178,-3.292027235031128,9.114726066589355,-0.9918212890625,-1.0986328125,-0.091552734375
17.929999900000002,2.1092917919158936,-3.292027235031128,9.08838939666748,-2.6092529296875,-2.1209716796875,-1.617431640625
17.9499999,2.1092917919158936,-3.2800562381744385,9.057265281677246,-1.739501953125,-0.0457763671875,-0.0762939453125
17.9699999,2.1068975925445557,-3.2752678394317627,9.011775016784668,-1.77001953125,-0.244140625,1.8768310546875
17.9899999,2.099714994430542,-3.272873640060425,8.983044624328613,-1.8310546875,-1.0833740234375,0.18310546875
18.0099999,2.097320795059204,-3.2752678394317627,8.937555313110352,0.06103515625,-0.946044921875,-2.6092529296875
18.0299999,2.0901381969451904,-3.2776620388031006,8.9064302444458,0.030517578125,1.3275146484375,-1.0833740234375
18.0499999,2.0877439975738525,-3.268085241317749,8.89685344696045,-0.1678466796875,3.3721923828125,0.8392333984375
18.0699999,2.0877439975738525,-3.2585084438323975,8.908824920654297,-0.579833984375,1.3275146484375,0.0152587890625
18.089999900000002,2.099714994430542,-3.270479440689087,8.956708908081055,-1.953125,0.213623046875,-0.3509521484375
18.109999900000002,2.1116859912872314,-3.2848446369171143,9.014169692993164,-3.570556640625,0.579833984375,-0.8087158203125
18.1299999,2.118868589401245,-3.2824504375457764,9.038111686706543,-1.4190673828125,0.244140625,-0.0457763671875
18.1499999,2.123656988143921,-3.28963303565979,9.081207275390625,-1.2054443359375,2.4566650390625,1.1138916015625
18.1699999,2.123656988143921,-3.2824504375457764,9.095572471618652,-1.46484375,1.190185546875,0.8392333984375
18.1899999,2.126051187515259,-3.292027235031128,9.114726066589355,-0.8087158203125,-0.091552734375,0.457763671875
18.2099999,2.123656988143921,-3.292027235031128,9.105149269104004,0.2288818359375,0.3662109375,0.823974609375
18.2299999,2.118868589401245,-3.2992098331451416,9.107542991638184,-2.471923828125,2.0294189453125,1.3580322265625
18.249999900000002,2.1068975925445557,-3.28963303565979,9.078812599182129,-1.7242431640625,0.9002685546875,0.885009765625
18.269999900000002,2.097320795059204,-3.3039982318878174,9.066842079162598,-0.5645751953125,-0.1220703125,1.678466796875
18.2899999,2.0925323963165283,-3.315969467163086,9.05487060546875,-0.2899169921875,1.068115234375,1.190185546875
18.3099999,2.099714994430542,-3.3518824577331543,9.069235801696777,-0.213623046875,2.685546875,0.8697509765625
18.3299999,2.1116859912872314,-3.383007049560547,9.07641887664795,-0.701904296875,0,0.152587890625
18.3499999,2.123656988143921,-3.397372245788574,9.078812599182129,-0.79345703125,-1.708984375,-0.7476806640625
18.3699999,2.1284453868865967,-3.3949780464172363,9.071630477905273,-0.823974609375,0.3814697265625,0.1220703125
18.3899999,2.1284453868865967,-3.3949780464172363,9.033323287963867,-3.7841796875,1.0223388671875,1.434326171875
18.409999900000003,2.121262788772583,-3.383007049560547,8.966285705566406,-1.8768310546875,-0.6561279296875,0.518798828125
18.429999900000002,2.1092917919158936,-3.383007049560547,8.956708908081055,-3.4942626953125,2.716064453125,-1.068115234375
18.4499999,2.099714994430542,-3.3949780464172363,8.925583839416504,-4.5166015625,0.701904296875,1.1444091796875
18.4699999,2.0925323963165283,-3.3901896476745605,8.927978515625,-1.190185546875,0.0457763671875,0.9613037109375
18.4899999,2.097320795059204,-3.421314239501953,8.980650901794434,-2.8076171875,3.3111572265625,1.129150390625
18.5099999,2.099714994430542,-3.4332852363586426,8.96389102935791,-0.42724609375,-1.3580322265625,-0.0762939453125
18.5299999,2.1116859912872314,-3.4524388313293457,8.999804496765137,-0.213623046875,1.6937255859375,-0.1983642578125
18.5499999,2.1164743900299072,-3.4572272300720215,8.992621421813965,-1.800537109375,3.1280517578125,1.5106201171875
18.5699999,2.121262788772583,-3.4572272300720215,8.987833023071289,0.701904296875,1.0528564453125,0.5035400390625
18.589999900000002,2.118868589401245,-3.4308910369873047,9.006986618041992,-0.0762939453125,2.0751953125,-0.7171630859375
18.609999900000002,2.1092917919158936,-3.3877954483032227,9.016563415527344,-1.2969970703125,0.7476806640625,0.5035400390625
18.6299999,2.1045033931732178,-3.3518824577331543,9.026140213012695,0.030517578125,0.9613037109375,3.6468505859375
18.6499999,2.10210919380188,-3.337517261505127,9.045293807983398,0.91552734375,2.6397705078125,3.5552978515625
18.6699999,2.10210919380188,-3.3494882583618164,9.069235801696777,-0.0457763671875,2.1209716796875,0.9307861328125
18.6899999,2.1068975925445557,-3.378218650817871,9.074024200439453,1.15966796875,-0.152587890625,1.129150390625
18.7099999,2.1045033931732178,-3.3662476539611816,9.107542991638184,0.3662109375,1.678466796875,1.800537109375
18.7299999,2.099714994430542,-3.361459255218506,9.105149269104004,-0.0457763671875,0.7476806640625,4.1046142578125
18.749999900000002,2.0925323963165283,-3.35667085647583,9.114726066589355,0.030517578125,-0.762939453125,3.753662109375
18.769999900000002,2.0877439975738525,-3.3925838470458984,9.10993766784668,1.3275146484375,0.244140625,2.3345947265625
18.7899999,2.0805611610412598,-3.4141316413879395,9.08838939666748,2.01416015625,-0.4730224609375,1.6632080078125
18.8099999,2.0638017654418945,-3.3949780464172363,9.074024200439453,0.0457763671875,0.1678466796875,3.692626953125
18.8299999,2.0422539710998535,-3.354276657104492,9.050082206726074,2.4871826171875,-0.5645751953125,8.575439453125
18.8499999,2.0422539710998535,-3.3877954483032227,9.040505409240723,2.777099609375,-1.7242431640625,13.214111328125
18.8699999,2.0470423698425293,-3.466804027557373,9.01895809173584,-1.8768310546875,-2.7008056640625,6.7901611328125
18.8899999,2.073378562927246,-3.5913026332855225,9.040505409240723,-4.486083984375,-0.6256103515625,0.2593994140625
18.909999900000003,2.1045033931732178,-3.706224203109741,9.081207275390625,-2.9296875,-2.1820068359375,0.42724609375
18.929999900000002,2.1523873805999756,-3.797203779220581,9.344569206237793,-3.2806396484375,-4.241943359375,1.3885498046875
18.9499999,2.2697031497955322,-3.9600095748901367,9.950302124023438,-6.28662109375,-13.0157470703125,-4.33349609375
18.9699999,2.3918075561523438,-4.098873138427734,10.548852920532227,1.2054443359375,-56.7474365234375,-18.9666748046875
18.9899999,2.557007312774658,-4.223371982574463,11.125855445861816,9.9334716796875,-89.874267578125,-28.8543701171875
19.0099999,2.7700912952423096,-4.484339714050293,11.853693008422852,1.46484375,-80.7342529296875,-29.205322265625
19.0299999,2.9305028915405273,-4.663905143737793,12.078747749328613,16.265869140625,-141.632080078125,-50.689697265625
19.0499999,3.134010076522827,-4.9152960777282715,12.30859088897705,27.2674560546875,-186.2640380859375,-78.4454345703125
19.0699999,3.3303346633911133,-5.207388877868652,12.167332649230957,26.2298583984375,-191.8182373046875,-90.8966064453125
19.089999900000002,3.533841609954834,-5.382165431976318,11.520898818969727,25.8026123046875,-207.427978515625,-107.8338623046875
19.109999900000002,3.754108190536499,-5.434837818145752,10.362105369567871,24.871826171875,-216.766357421875,-130.645751953125
19.1299999,4.067748546600342,-5.336675643920898,9.026140213012695,22.39990234375,-194.4427490234375,-147.8271484375
19.1499999,4.400542736053467,-4.929661273956299,7.580042362213135,15.68603515625,-159.454345703125,-157.073974609375
19.1699999,4.726154327392578,-4.055777549743652,5.772420406341553,23.468017578125,-175.7049560546875,-165.802001953125
19.1899999,5.169081687927246,-3.270479440689087,4.551377296447754,6.9732666015625,-106.5826416015625,-145.904541015625
19.2099999,5.614402770996094,-2.518700122833252,3.6535518169403076,-18.6920166015625,-52.886962890625,-148.6358642578125
19.2299999,6.01423454284668,-2.0039467811584473,2.7676970958709717,3.1585693359375,-84.564208984375,-180.511474609375
19.249999900000002,6.3973069190979,-1.9608511924743652,2.609679937362671,-1.1749267578125,-33.2794189453125,-182.861328125
19.269999900000002,6.605602264404297,-2.1787235736846924,2.4803929328918457,-27.40478515625,30.1055908203125,-200.86669921875
19.2899999,6.461950302124023,-2.0805611610412598,1.941697597503662,-24.169921875,16.3116455078125,-250.091552734375
19.3099999,6.009446144104004,-1.6903064250946045,1.644816517829895,-4.486083984375,73.5931396484375,-274.6429443359375
19.3299999,5.231330871582031,-0.6560112833976746,1.192312479019165,-2.74658203125,150.4669189453125,-249.20654296875
19.3499999,4.1874589920043945,0.9888052940368652,0.7757213711738586,5.0506591796875,173.6297607421875,-235.4736328125
19.3699999,3.1316158771514893,2.719813108444214,1.0127472877502441,-11.0321044921875,201.5380859375,-216.3238525390625
19.3899999,2.121262788772583,4.381389141082764,1.5873557329177856,-34.5001220703125,219.2840576171875,-190.7958984375
19.409999900000003,1.216254472732544,5.710171222686768,2.43011474609375,-44.5098876953125,228.0426025390625,-153.3660888671875
19.429999900000002,0.2968810200691223,6.6846113204956055,3.1292216777801514,-66.558837890625,256.591796875,-123.077392578125
19.4499999,-0.6943184733390808,7.127538681030273,3.4189200401306152,-91.6900634765625,284.8968505859375,-93.75
19.4699999,-1.7477672100067139,6.871358871459961,4.2951979637146,-118.5455322265625,363.1744384765625,-60.2874755859375
19.4899999,-2.875436305999756,6.466738700866699,5.66228723526001,-86.9140625,381.16455078125,-54.1534423828125
19.5099999,-3.9480385780334473,6.205770969390869,7.41484260559082,-45.1507568359375,284.0423583984375,-29.998779296875
19.5299999,-5.027823448181152,6.507440090179443,9.244012832641602,-37.109375,264.0838623046875,15.6402587890625
19.5499999,-6.007051944732666,7.129932880401611,10.630255699157715,-56.6558837890625,294.2657470703125,73.9898681640625
19.5699999,-6.7277069091796875,7.240066051483154,12.050017356872559,-73.3795166015625,274.7955322265625,122.3297119140625
19.589999900000002,-6.988674640655518,6.457161903381348,13.431471824645996,-70.6939697265625,163.482666015625,121.4599609375
19.609999900000002,-6.797138690948486,5.382165431976318,14.745888710021973,-50.201416015625,49.0875244140625,79.864501953125
19.6299999,-6.370970726013184,4.520252704620361,14.717158317565918,-28.9764404296875,2.9449462890625,100.7537841796875
19.6499999,-5.78678560256958,3.7014358043670654,13.225569725036621,-27.4505615234375,13.031005859375,158.26416015625
19.6699999,-5.348646640777588,3.4620156288146973,11.839327812194824,-61.553955078125,120.4376220703125,132.3089599609375
19.6899999,-5.106832027435303,3.4955344200134277,10.299856185913086,-51.4068603515625,45.1202392578125,94.1162109375
19.7099999,-5.118803024291992,4.0533833503723145,9.75397777557373,-39.4744873046875,-40.008544921875,128.7689208984375
19.7299999,-5.525817394256592,5.394136428833008,9.361329078674316,-33.355712890625,-14.801025390625,212.2955322265625
19.749999900000002,-5.872976779937744,6.057330131530762,8.583212852478027,-42.29736328125,23.92578125,266.265869140625
19.769999900000002,-6.0836663246154785,6.129156112670898,8.75080680847168,-66.1468505859375,78.9794921875,224.42626953125
19.7899999,-5.6455278396606445,4.438849925994873,8.729259490966797,-50.323486328125,-12.5885009765625,197.113037109375
19.8099999,-4.819528102874756,2.492363929748535,9.524134635925293,-27.7557373046875,-48.614501953125,167.9229736328125
19.8299999,-3.8067808151245117,0.9217676520347595,10.012551307678223,-13.153076171875,-3.387451171875,132.2174072265625
19.8499999,-2.8131868839263916,-0.038307227194309235,9.890447616577148,-14.4195556640625,-5.0506591796875,102.2796630859375
19.8699999,-2.1499931812286377,0.13407529890537262,9.952696800231934,-32.7911376953125,3.1890869140625,79.1168212890625
19.8899999,-1.7884687185287476,1.039083480834961,9.938331604003906,-28.1829833984375,-17.1661376953125,73.150634765625
19.909999900000003,-1.745373010635376,2.343923568725586,10.101137161254883,-5.8746337890625,-37.29248046875,100.067138671875
19.929999900000002,-1.7477672100067139,3.3016040325164795,9.988609313964844,10.0555419921875,-48.126220703125,121.4447021484375
19.9499999,-1.721431016921997,3.8810009956359863,10.201693534851074,-18.3868408203125,-24.3988037109375,91.094970703125
19.9699999,-1.5753847360610962,3.8498764038085938,10.213664054870605,-40.9393310546875,-59.173583984375,61.004638671875
19.9899999,-1.2689268589019775,3.406949043273926,10.041281700134277,-30.548095703125,-118.95751953125,67.9473876953125
20.0099999,-0.9600749015808105,3.0142998695373535,10.070012092590332,-54.1229248046875,-89.9658203125,60.36376953125
20.0299999,-0.524330198764801,2.27209734916687,9.461885452270508,-73.822021484375,-91.6748046875,41.8548583984375
20.0499999,-0.028730420395731926,1.4413094520568848,9.097966194152832,-90.8966064453125,-98.4039306640625,13.7176513671875
20.0699999,0.4692635238170624,0.5626373887062073,8.638279914855957,-97.808837890625,-109.7869873046875,-23.8800048828125
20.089999900000002,0.9481038451194763,-0.24181437492370605,8.274360656738281,-78.582763671875,-104.67529296875,-42.8314208984375
20.109999900000002,1.256955862045288,-0.6631938815116882,7.970297336578369,-88.897705078125,-71.9146728515625,-63.96484375
20.1299999,1.4437036514282227,-0.7350199222564697,7.60637903213501,-74.4781494140625,-60.028076171875,-79.1778564453125
20.1499999,1.45806884765625,-0.33039984107017517,7.491456985473633,-72.7691650390625,-42.90771484375,-80.5816650390625
20.1699999,1.3503297567367554,0.4381389021873474,7.515398979187012,-85.63232421875,-26.0772705078125,-66.1163330078125
20.1899999,1.194706678390503,1.316810965538025,7.805097579956055,-74.1119384765625,-5.126953125,-43.45703125
20.2099999,1.0845733880996704,2.0638017654418945,8.185775756835938,-30.2734375,7.0648193359375,-27.6947021484375
20.2299999,1.05105459690094,2.454056739807129,8.698134422302246,-19.3634033203125,9.4757080078125,-18.0206298828125
20.249999900000002,1.1228805780410767,2.456450939178467,9.107542991638184,-29.0069580078125,5.2490234375,-6.5155029296875
20.269999900000002,1.2473790645599365,2.1978771686553955,9.50737476348877,-41.7633056640625,7.6141357421875,1.6021728515625
20.2899999,1.381454348564148,1.7764976024627686,9.761159896850586,-35.1104736328125,2.9296875,5.06591796875
20.3099999,1.5131354331970215,1.2880805730819702,9.950302124023438,-21.5301513671875,-1.739501953125,7.62939453125
20.3299999,1.625662922859192,0.7733271718025208,10.02691650390625,-21.3623046875,-0.1068115234375,8.4686279296875
20.3499999,1.7070658206939697,0.33997663855552673,9.940725326538086,-17.08984375,-0.1220703125,3.7384033203125
20.3699999,1.7597382068634033,0.009576806798577309,9.837775230407715,-20.3704833984375,4.2877197265625,-1.0528564453125
20.3899999,1.766920804977417,-0.12689268589019775,9.75637149810791,-14.373779296875,7.3394775390625,-3.173828125
