# Time (seconds),Accel_X,Accel_Y,Accel_Z,Gyro_X,Gyro_Y,Gyro_Z
0.0099999,-0.17956513166427612,-0.3423708379268646,9.787496566772461,1.8157958984375,-0.3814697265625,1.89208984375
0.029999900000000003,-0.1604115068912506,-0.33039984107017517,9.794678688049316,-2.9296875,0.3814697265625,1.129150390625
0.0499999,-0.14365209639072418,-0.3280056416988373,9.773131370544434,-4.1046142578125,0.4425048828125,-0.457763671875
0.0699999,-0.11013327538967133,-0.35913026332855225,9.785101890563965,-2.8839111328125,1.251220703125,0.6103515625
0.08999990000000001,-0.08379705995321274,-0.3758896589279175,9.804255485534668,-1.2664794921875,1.678466796875,-0.7781982421875
0.10999990000000001,-0.06224924325942993,-0.3998316824436188,9.832986831665039,-0.2899169921875,0.274658203125,-2.6397705078125
0.1299999,-0.047884032130241394,-0.4165911078453064,9.871294021606445,0.18310546875,1.89208984375,-2.044677734375
0.14999990000000002,-0.0454898327589035,-0.4141969084739685,9.890447616577148,0.8392333984375,1.708984375,-2.1514892578125
0.1699999,-0.05267243832349777,-0.38067805767059326,9.916783332824707,0.3814697265625,1.8768310546875,-3.7384033203125
0.1899999,-0.05746084079146385,-0.35434186458587646,9.931148529052734,1.46484375,1.6021728515625,-2.1820068359375
0.20999990000000002,-0.06224924325942993,-0.3208230137825012,9.971850395202637,1.220703125,0.6866455078125,-0.91552734375
0.2299999,-0.06703764945268631,-0.3016694188117981,9.983820915222168,2.197265625,0.396728515625,-1.220703125
0.2499999,-0.05746084079146385,-0.31124621629714966,10.046070098876953,3.4027099609375,1.220703125,-2.2735595703125
0.2699999,-0.040701430290937424,-0.363918662071228,10.141838073730469,4.2724609375,0.640869140625,-3.570556640625
0.28999990000000003,-0.023942016065120697,-0.38546648621559143,10.335768699645996,4.547119140625,-4.33349609375,-8.636474609375
0.3099999,-0.035913024097681046,-0.2944868206977844,10.47942066192627,4.119873046875,-15.31982421875,-12.5885009765625
0.3299999,-0.05027823522686958,-0.15083470940589905,10.656591415405273,5.8441162109375,-17.608642578125,-5.828857421875
0.34999990000000003,-0.0933738648891449,0.06224924325942993,10.639832496643066,10.9405517578125,-18.3563232421875,-0.6866455078125
0.3699999,-0.10295066982507706,0.21787235140800476,10.498574256896973,11.65771484375,-19.0582275390625,-0.8697509765625
0.3899999,-0.090979665517807,0.3064578175544739,10.299856185913086,4.425048828125,-10.4522705078125,-0.518798828125
0.40999990000000003,-0.043095629662275314,0.28730419278144836,10.034099578857422,5.889892578125,-10.7269287109375,2.960205078125
0.4299999,0.021547814831137657,0.23702596127986908,9.761159896850586,9.0789794921875,-9.1400146484375,4.150390625
0.4499999,0.10055647045373917,0.13168109953403473,9.519346237182617,6.53076171875,-3.5858154296875,3.84521484375
0.4699999,0.18914192914962769,-0.016759412363171577,9.315838813781738,4.2877197265625,0.9307861328125,1.77001953125
0.4899999,0.2585737705230713,-0.1173158809542656,9.21288776397705,5.035400390625,5.2337646484375,0.1220703125
0.5099999,0.31364041566848755,-0.2082955539226532,9.188945770263672,5.6304931640625,2.1209716796875,0.274658203125
0.5299999,0.33997663855552673,-0.24420857429504395,9.239224433898926,1.6326904296875,3.0975341796875,-0.2899169921875
0.5499999,0.3423708379268646,-0.23942017555236816,9.344569206237793,-0.9918212890625,7.5531005859375,-2.8533935546875
0.5699999,0.3256114423274994,-0.20111294090747833,9.418789863586426,0.1983642578125,3.0975341796875,-4.8065185546875
0.5899998999999999,0.2825157940387726,-0.10773907601833344,9.509769439697266,-0.1373291015625,1.678466796875,-1.9989013671875
0.6099998999999999,0.2585737705230713,-0.11971008777618408,9.406818389892578,0.4730224609375,1.3427734375,2.0294189453125
0.6299999,0.22505496442317963,-0.0933738648891449,9.370905876159668,-3.4637451171875,14.7705078125,-2.74658203125
0.6499999,0.22505496442317963,-0.19871874153614044,9.23682975769043,-0.3814697265625,16.3421630859375,-6.8359375
0.6699999,0.22505496442317963,-0.26336219906806946,9.385271072387695,-1.617431640625,15.655517578125,-6.7596435546875
0.6899999,0.19153612852096558,-0.17238251864910126,9.72285270690918,-0.9765625,6.7291259765625,-10.5743408203125
0.7099999,0.12449848651885986,-0.047884032130241394,9.99100399017334,1.861572265625,-4.425048828125,-4.8675537109375
0.7299998999999999,0.08379705995321274,0.047884032130241394,10.314221382141113,-2.532958984375,2.2430419921875,2.0904541015625
0.7499998999999999,0.031124621629714966,0.1628057211637497,10.323798179626465,-2.685546875,5.3558349609375,-5.401611328125
0.7699999,0.033518824726343155,0.12210428714752197,10.146626472473145,0.06103515625,-0.3204345703125,-5.1727294921875
0.7899999,0.05027823522686958,0.0933738648891449,9.952696800231934,-2.288818359375,5.9967041015625,-2.2430419921875
0.8099999,0.05746084079146385,0.06703764945268631,9.72285270690918,-0.6256103515625,11.627197265625,-0.946044921875
0.8299999,0.0454898327589035,0.038307227194309235,9.514557838439941,0.48828125,9.4146728515625,0.5340576171875
0.8499998999999999,0.043095629662275314,-0.038307227194309235,9.457097053527832,-3.9825439453125,11.9171142578125,2.9449462890625
0.8699998999999999,0.011971008032560349,-0.07422025501728058,9.521739959716797,-7.2021484375,14.5721435546875,-0.1220703125
0.8899999,-0.014365210197865963,-0.10055647045373917,9.667786598205566,-6.89697265625,6.0272216796875,-1.2664794921875
0.9099999,-0.040701430290937424,-0.08619125932455063,9.890447616577148,-2.6702880859375,-0.946044921875,1.5869140625
0.9299999,-0.05985504388809204,-0.07422025501728058,9.943120002746582,0.274658203125,-4.180908203125,2.74658203125
0.9499999,-0.05746084079146385,-0.10534487664699554,9.914389610290527,-4.974365234375,0.3204345703125,3.1280517578125
0.9699998999999999,-0.038307227194309235,-0.20350714027881622,9.682151794433594,-7.1868896484375,3.11279296875,-0.5035400390625
0.9899998999999999,-0.011971008032560349,-0.31603461503982544,9.509769439697266,-6.4849853515625,5.218505859375,-1.434326171875
1.0099999,-0.011971008032560349,-0.38067805767059326,9.370905876159668,-3.9215087890625,5.859375,-2.3651123046875
1.0299999,-0.026336219161748886,-0.3926490843296051,9.406818389892578,-4.3487548828125,7.4310302734375,-0.701904296875
1.0499999,-0.06703764945268631,-0.3663128614425659,9.502586364746094,-3.753662109375,6.4697265625,0.54931640625
1.0699999,-0.09816227108240128,-0.33039984107017517,9.677363395690918,-1.8768310546875,4.1656494140625,-0.42724609375
1.0899999,-0.12210428714752197,-0.3064578175544739,9.813833236694336,-1.52587890625,3.2806396484375,-2.6092529296875
1.1099999,-0.13407529890537262,-0.2944868206977844,9.943120002746582,-2.25830078125,4.1961669921875,-1.739501953125
1.1299999,-0.14365209639072418,-0.2753331959247589,9.979032516479492,-2.0904541015625,2.44140625,-1.9683837890625
1.1499999,-0.15801730751991272,-0.26575639843940735,10.010157585144043,-2.716064453125,2.5787353515625,-1.77001953125
1.1699998999999999,-0.17477671802043915,-0.2537853717803955,10.029311180114746,-3.448486328125,3.814697265625,-1.46484375
1.1899998999999999,-0.1843535304069519,-0.2513911724090576,10.038887977600098,-2.3956298828125,2.86865234375,-0.8392333984375
1.2099999,-0.19871874153614044,-0.2298433631658554,10.067618370056152,-1.3427734375,2.6397705078125,-1.2664794921875
1.2299999,-0.2106897532939911,-0.2082955539226532,10.108319282531738,-1.0833740234375,1.15966796875,-0.7476806640625
1.2499999,-0.22505496442317963,-0.17717093229293823,10.113107681274414,-1.9989013671875,-0.152587890625,0.2899169921875
1.2699999,-0.2322375625371933,-0.1604115068912506,10.098742485046387,-1.8157958984375,-0.732421875,0.91552734375
1.2899999,-0.22744916379451752,-0.16519992053508759,10.06043529510498,-1.7242431640625,0.213623046875,0.54931640625
1.3099999,-0.21308395266532898,-0.19871874153614044,9.979032516479492,-0.79345703125,-0.823974609375,-0.0152587890625
1.3299999,-0.19871874153614044,-0.21787235140800476,9.931148529052734,-0.5950927734375,0.8087158203125,-0.6561279296875
1.3499999,-0.1843535304069519,-0.23942017555236816,9.864110946655273,-0.2593994140625,0.030517578125,0.2899169921875
1.3699999,-0.17956513166427612,-0.23942017555236816,9.830592155456543,-0.8544921875,-0.152587890625,1.434326171875
1.3899999,-0.16998831927776337,-0.23702596127986908,9.823410034179688,-1.03759765625,-0.2288818359375,0.946044921875
1.4099999,-0.16759411990642548,-0.2298433631658554,9.794678688049316,-0.1373291015625,-1.0986328125,0.946044921875
1.4299998999999999,-0.15801730751991272,-0.24181437492370605,9.818621635437012,-1.190185546875,-0.3509521484375,2.2430419921875
1.4499999,-0.14604631066322327,-0.26096799969673157,9.799467086791992,-1.15966796875,-1.15966796875,1.9989013671875
1.4699999,-0.1388636976480484,-0.2777273952960968,9.799467086791992,-0.6103515625,-1.1138916015625,0.48828125
1.4899999,-0.12449848651885986,-0.31364041566848755,9.746794700622559,-0.48828125,-1.9989013671875,0.91552734375
1.5099999,-0.1173158809542656,-0.33279404044151306,9.713275909423828,-1.3885498046875,0.8697509765625,1.1138916015625
1.5299999,-0.11971008777618408,-0.33518823981285095,9.679757118225098,-2.197265625,2.25830078125,0.5645751953125
1.5499999,-0.1173158809542656,-0.3471592366695404,9.68933391571045,-2.3040771484375,0.7781982421875,1.007080078125
1.5699999,-0.1149216815829277,-0.3471592366695404,9.739612579345703,-2.3040771484375,0.9002685546875,1.068115234375
1.5899999,-0.1149216815829277,-0.35434186458587646,9.78989028930664,-1.5869140625,0.091552734375,0.1678466796875
1.6099999,-0.11013327538967133,-0.35673606395721436,9.818621635437012,-1.495361328125,0.3814697265625,-0.2593994140625
1.6299999,-0.11252748221158981,-0.36152446269989014,9.818621635437012,-2.5787353515625,0.579833984375,0.3509521484375
1.6499999,-0.1149216815829277,-0.36152446269989014,9.81143856048584,-3.1890869140625,0.823974609375,1.0223388671875
1.6699999,-0.1149216815829277,-0.3687070608139038,9.765948295593262,-2.532958984375,-1.3580322265625,0.5950927734375
1.6899998999999999,-0.1149216815829277,-0.3758896589279175,9.710882186889648,-1.6021728515625,-0.1220703125,0.030517578125
1.7099999,-0.11252748221158981,-0.38546648621559143,9.674968719482422,-2.25830078125,1.9073486328125,0.030517578125
1.7299999,-0.10773907601833344,-0.3902548849582672,9.62947940826416,-2.5787353515625,1.5716552734375,0.0152587890625
1.7499999,-0.10295066982507706,-0.37828385829925537,9.677363395690918,-3.509521484375,2.0904541015625,-0.67138671875
1.7699999,-0.10055647045373917,-0.38307225704193115,9.75637149810791,-3.5247802734375,-0.3814697265625,-0.732421875
1.7899999,-0.09576806426048279,-0.3902548849582672,9.883264541625977,-3.0364990234375,-0.701904296875,-0.2288818359375
1.8099999,-0.10055647045373917,-0.38546648621559143,9.99100399017334,-2.8533935546875,-1.373291015625,-2.3040771484375
1.8299999,-0.10295066982507706,-0.38067805767059326,10.096348762512207,-2.6092529296875,-2.2735595703125,-1.9989013671875
1.8499999,-0.11013327538967133,-0.36152446269989014,10.132261276245117,-2.410888671875,-3.021240234375,-0.1068115234375
1.8699999,-0.10773907601833344,-0.36152446269989014,10.139444351196289,-2.62451171875,-2.9449462890625,1.7547607421875
1.8899999,-0.09576806426048279,-0.38067805767059326,10.11789608001709,-3.2958984375,-1.7852783203125,0.18310546875
1.9099999,-0.0694318488240242,-0.4141969084739685,10.067618370056152,-0.91552734375,-2.8076171875,-0.9613037109375
1.9299998999999999,-0.05267243832349777,-0.4141969084739685,9.988609313964844,-0.457763671875,-3.2958984375,-1.0833740234375
1.9499999,-0.033518824726343155,-0.4141969084739685,9.883264541625977,-1.52587890625,-1.953125,1.77001953125
1.9699999,-0.021547814831137657,-0.4213795065879822,9.77791976928711,-2.0294189453125,1.52587890625,4.2572021484375
1.9899999,-0.014365210197865963,-0.45010992884635925,9.68694019317627,-1.2054443359375,1.7242431640625,1.2664794921875
2.0099999,0.011971008032560349,-0.5291185975074768,9.648633003234863,-0.0762939453125,1.7852783203125,-0.4425048828125
2.0299999,0.016759412363171577,-0.5602431893348694,9.63187313079834,-0.6103515625,2.349853515625,-1.8310546875
2.0499999,0.016759412363171577,-0.569819986820221,9.651026725769043,-0.091552734375,2.8839111328125,-0.762939453125
2.0699999,0.002394201699644327,-0.545877993106842,9.684545516967773,0.1220703125,3.35693359375,0.7171630859375
2.0899999,-0.011971008032560349,-0.5219359993934631,9.746794700622559,-0.1983642578125,2.5634765625,-0.244140625
2.1099999,-0.028730420395731926,-0.4884171485900879,9.828198432922363,0.1220703125,1.89208984375,-1.8157958984375
2.1299999,-0.040701430290937424,-0.47165772318840027,9.897629737854004,0,1.7242431640625,-0.9002685546875
2.1499999,-0.047884032130241394,-0.4405331015586853,9.952696800231934,0.2288818359375,1.678466796875,0.6866455078125
2.1699999,-0.0454898327589035,-0.4429273009300232,9.981427192687988,0.9765625,0.91552734375,0.6256103515625
2.1899999,-0.040701430290937424,-0.45010992884635925,9.974244117736816,0.91552734375,0.3662109375,-1.28173828125
2.2099999,-0.031124621629714966,-0.4668693244457245,9.95748519897461,0.5645751953125,0.3204345703125,-1.922607421875
2.2299999,-0.031124621629714966,-0.4620809257030487,9.916783332824707,0.8392333984375,1.6326904296875,-0.823974609375
2.2499999,-0.028730420395731926,-0.4429273009300232,9.907206535339355,0.152587890625,1.739501953125,0.30517578125
2.2699999,-0.023942016065120697,-0.43335050344467163,9.890447616577148,1.40380859375,0.2593994140625,0.4119873046875
2.2899999,-0.016759412363171577,-0.42856210470199585,9.895236015319824,1.434326171875,-0.518798828125,-0.762939453125
2.3099999,-0.0071826050989329815,-0.43335050344467163,9.883264541625977,0.6866455078125,-0.3662109375,-0.9918212890625
2.3299999,0,-0.4381389021873474,9.840168952941895,1.3427734375,-0.1220703125,-0.3662109375
2.3499999,-0.002394201699644327,-0.42856210470199585,9.792284965515137,1.7242431640625,0.732421875,-0.1068115234375
2.3699999,0.002394201699644327,-0.43095630407333374,9.768342971801758,1.3275146484375,1.739501953125,-0.0457763671875
2.3899999,0,-0.42377370595932007,9.75637149810791,0.335693359375,1.4801025390625,-0.3509521484375
2.4099999,0,-0.4213795065879822,9.787496566772461,0.3204345703125,0.8392333984375,-0.48828125
2.4299999,-0.002394201699644327,-0.4118026793003082,9.806650161743164,0.762939453125,0.6561279296875,-0.1068115234375
2.4499999,0.002394201699644327,-0.40462008118629456,9.840168952941895,0.732421875,1.3885498046875,-0.0152587890625
2.4699999,0,-0.395043283700943,9.849745750427246,0.5645751953125,0.8544921875,-0.0152587890625
2.4899999,0,-0.3926490843296051,9.864110946655273,0.4730224609375,0.5035400390625,-0.42724609375
2.5099999,-0.002394201699644327,-0.395043283700943,9.854534149169922,1.129150390625,0.6103515625,-0.06103515625
2.5299999,-0.011971008032560349,-0.38067805767059326,9.859322547912598,1.1138916015625,1.739501953125,-0.9918212890625
2.5499999,-0.014365210197865963,-0.3711012601852417,9.847352027893066,0.79345703125,1.617431640625,-0.1678466796875
2.5699999,-0.021547814831137657,-0.3423708379268646,9.86889934539795,0.1220703125,1.556396484375,0.5340576171875
2.5899999,-0.021547814831137657,-0.3256114423274994,9.895236015319824,0.6561279296875,0.3204345703125,1.15966796875
2.6099999,-0.023942016065120697,-0.31364041566848755,9.892841339111328,1.129150390625,-0.732421875,0.8697509765625
2.6299999,-0.014365210197865963,-0.3280056416988373,9.897629737854004,0.5035400390625,0.244140625,0.5950927734375
2.6499999,-0.004788403399288654,-0.3447650372982025,9.861717224121094,0.4425048828125,0.8087158203125,0.0457763671875
2.6699999,0.002394201699644327,-0.363918662071228,9.825803756713867,0.5340576171875,0.640869140625,0.1220703125
2.6899999,0.011971008032560349,-0.37828385829925537,9.804255485534668,0.1678466796875,1.220703125,0.4119873046875
2.7099999,0.014365210197865963,-0.38307225704193115,9.78989028930664,-0.152587890625,1.8463134765625,0.6103515625
2.7299999,0.021547814831137657,-0.38307225704193115,9.785101890563965,0.67138671875,0.274658203125,0.335693359375
2.7499999,0.023942016065120697,-0.3878606855869293,9.761159896850586,0.6866455078125,-0.091552734375,1.0986328125
2.7699999,0.026336219161748886,-0.3926490843296051,9.758766174316406,-0.396728515625,1.953125,0.701904296875
2.7899999,0.026336219161748886,-0.40940847992897034,9.739612579345703,-0.579833984375,2.593994140625,-0.1220703125
2.8099999,0.021547814831137657,-0.4189853072166443,9.744400978088379,0.30517578125,2.1209716796875,-0.396728515625
2.8299999,0.019153613597154617,-0.42856210470199585,9.75637149810791,0.1983642578125,1.89208984375,-0.8697509765625
2.8499999,0.0071826050989329815,-0.40701428055763245,9.77791976928711,-0.30517578125,2.8076171875,-0.8697509765625
2.8699999,-0.002394201699644327,-0.395043283700943,9.799467086791992,0.3509521484375,3.0975341796875,0.3814697265625
2.8899999,-0.016759412363171577,-0.3711012601852417,9.823410034179688,0.1220703125,2.3040771484375,0.244140625
2.9099999,-0.016759412363171577,-0.38067805767059326,9.871294021606445,0.06103515625,2.227783203125,-0.244140625
2.9299999,-0.021547814831137657,-0.37828385829925537,9.892841339111328,0.640869140625,1.800537109375,-1.617431640625
2.9499999,-0.021547814831137657,-0.37828385829925537,9.916783332824707,-0.396728515625,1.3580322265625,-0.823974609375
2.9699999,-0.016759412363171577,-0.3878606855869293,9.93593692779541,-0.6866455078125,1.8463134765625,0.701904296875
2.9899999,-0.014365210197865963,-0.38067805767059326,9.952696800231934,0.3814697265625,1.9073486328125,-0.5645751953125
3.0099999,-0.011971008032560349,-0.38067805767059326,9.938331604003906,1.8310546875,-0.1678466796875,-1.9989013671875
3.0299999,-0.011971008032560349,-0.363918662071228,9.938331604003906,1.1138916015625,1.03759765625,-0.6866455078125
3.0499999,-0.014365210197865963,-0.3495534360408783,9.897629737854004,1.617431640625,1.068115234375,0.823974609375
3.0699999,-0.011971008032560349,-0.35673606395721436,9.873687744140625,1.3275146484375,0.701904296875,0.885009765625
3.0899999,-0.0071826050989329815,-0.3711012601852417,9.837775230407715,0.5035400390625,-0.1068115234375,-1.2359619140625
3.1099999,-0.004788403399288654,-0.3974374830722809,9.840168952941895,-0.2288818359375,1.434326171875,-1.922607421875
3.1299999,-0.011971008032560349,-0.395043283700943,9.84495735168457,0.762939453125,1.4801025390625,-1.129150390625
3.1499999,-0.033518824726343155,-0.35913026332855225,9.861717224121094,0.91552734375,0.18310546875,-0.6866455078125
3.1699999,-0.047884032130241394,-0.33279404044151306,9.871294021606445,0.8087158203125,-0.5645751953125,0.1068115234375
3.1899999,-0.06224924325942993,-0.31124621629714966,9.854534149169922,-0.2899169921875,-0.7171630859375,-0.0762939453125
3.2099999,-0.06703764945268631,-0.304063618183136,9.80904483795166,-0.06103515625,0.732421875,-1.0223388671875
3.2299999,-0.06224924325942993,-0.31603461503982544,9.785101890563965,-0.152587890625,2.6397705078125,0.1373291015625
3.2499999,-0.05027823522686958,-0.33279404044151306,9.782708168029785,-0.1678466796875,1.708984375,0.0762939453125
3.2699999,-0.038307227194309235,-0.3423708379268646,9.801861763000488,-0.2593994140625,0.3814697265625,-1.2359619140625
3.2899999,-0.026336219161748886,-0.3495534360408783,9.837775230407715,-0.1220703125,0.518798828125,-1.3427734375
3.3099999,-0.011971008032560349,-0.363918662071228,9.837775230407715,0.30517578125,0.5645751953125,0.2593994140625
3.3299999000000002,0.004788403399288654,-0.3711012601852417,9.854534149169922,-0.8087158203125,1.190185546875,-0.42724609375
3.3499999,0.011971008032560349,-0.3663128614425659,9.84495735168457,-1.0528564453125,0.9918212890625,-2.25830078125
3.3699999,0.026336219161748886,-0.3663128614425659,9.852140426635742,-0.091552734375,1.007080078125,-0.2899169921875
3.3899999,0.033518824726343155,-0.35434186458587646,9.86650562286377,-0.9307861328125,1.190185546875,1.1138916015625
3.4099999,0.0454898327589035,-0.3663128614425659,9.864110946655273,-0.701904296875,0.1220703125,0.9307861328125
3.4299999,0.05267243832349777,-0.38307225704193115,9.861717224121094,0.3662109375,0.0152587890625,-0.885009765625
3.4499999,0.05267243832349777,-0.4118026793003082,9.832986831665039,-0.091552734375,0.9002685546875,-1.1749267578125
3.4699999,0.040701430290937424,-0.4118026793003082,9.816226959228516,-1.2359619140625,2.2125244140625,-0.67138671875
3.4899999,0.019153613597154617,-0.3902548849582672,9.801861763000488,-1.739501953125,0.9613037109375,-0.6256103515625
3.5099999,0,-0.35434186458587646,9.818621635437012,-0.9765625,0.6561279296875,-0.3204345703125
3.5299999,-0.0071826050989329815,-0.3280056416988373,9.837775230407715,0.6866455078125,0.396728515625,0.3509521484375
3.5499999,-0.002394201699644327,-0.31603461503982544,9.847352027893066,0.8087158203125,0.6561279296875,-0.030517578125
3.5699999,0,-0.30885201692581177,9.847352027893066,-0.457763671875,2.288818359375,-1.373291015625
3.5899999,0.004788403399288654,-0.2992752194404602,9.837775230407715,-0.213623046875,1.2664794921875,-1.28173828125
3.6099999,0.002394201699644327,-0.2825157940387726,9.828198432922363,-0.0762939453125,1.007080078125,0.2288818359375
3.6299999,-0.002394201699644327,-0.26815059781074524,9.840168952941895,-0.18310546875,1.2969970703125,1.2969970703125
3.6499999,0.002394201699644327,-0.2753331959247589,9.849745750427246,0.030517578125,1.190185546875,0.4425048828125
3.6699999,0.0071826050989329815,-0.2968810200691223,9.854534149169922,0.3204345703125,1.3427734375,-0.5035400390625
3.6899999,0.009576806798577309,-0.3232172429561615,9.8784761428833,0.9002685546875,2.227783203125,-1.4190673828125
3.7099999,-0.0071826050989329815,-0.3064578175544739,9.8784761428833,0.457763671875,1.373291015625,-0.701904296875
3.7299999,-0.014365210197865963,-0.31842881441116333,9.897629737854004,0.1220703125,1.3275146484375,1.5716552734375
3.7499999,-0.028730420395731926,-0.30885201692581177,9.880870819091797,0.152587890625,1.28173828125,0.6103515625
3.7699999,-0.023942016065120697,-0.31842881441116333,9.876082420349121,0.8392333984375,1.6632080078125,-1.861572265625
3.7899999,-0.014365210197865963,-0.3208230137825012,9.861717224121094,0.6866455078125,2.349853515625,-0.701904296875
3.8099999,-0.002394201699644327,-0.3256114423274994,9.854534149169922,0.9613037109375,1.40380859375,1.4190673828125
3.8299999000000002,0,-0.31842881441116333,9.852140426635742,0.6561279296875,0.2899169921875,0.9307861328125
3.8499999,-0.004788403399288654,-0.2968810200691223,9.821015357971191,1.0986328125,-0.396728515625,-0.9613037109375
3.8699999,-0.009576806798577309,-0.2849099934101105,9.770736694335938,1.6021728515625,0.885009765625,1.800537109375
3.8899999,-0.009576806798577309,-0.28969839215278625,9.696516990661621,2.471923828125,1.5411376953125,3.8604736328125
3.9099999,-0.0071826050989329815,-0.304063618183136,9.636661529541016,1.1749267578125,2.13623046875,1.6937255859375
3.9299999,0.002394201699644327,-0.33279404044151306,9.619902610778809,0.2288818359375,2.3956298828125,-0.2288818359375
3.9499999,0.011971008032560349,-0.3758896589279175,9.624691009521484,0.946044921875,3.0670166015625,0.48828125
3.9699999,0.011971008032560349,-0.3758896589279175,9.696516990661621,-0.4425048828125,4.0130615234375,0.091552734375
3.9899999,0.009576806798577309,-0.37828385829925537,9.75397777557373,-0.732421875,3.35693359375,-1.434326171875
4.0099999,0.0071826050989329815,-0.395043283700943,9.830592155456543,-0.0762939453125,3.1890869140625,-0.5950927734375
4.029999900000001,0,-0.3974374830722809,9.9000244140625,-1.03759765625,4.5013427734375,-2.3651123046875
4.0499999,-0.014365210197865963,-0.37828385829925537,9.983820915222168,-1.4190673828125,5.340576171875,-3.0670166015625
4.069999900000001,-0.026336219161748886,-0.3495534360408783,10.086771965026855,0.5035400390625,3.7689208984375,-1.495361328125
4.0899999000000005,-0.047884032130241394,-0.2992752194404602,10.17296314239502,0.3662109375,0.1678466796875,-0.2593994140625
4.1099999,-0.047884032130241394,-0.27054479718208313,10.295066833496094,-0.1068115234375,-0.2899169921875,-0.518798828125
4.1299999000000005,-0.05027823522686958,-0.24899697303771973,10.323798179626465,1.953125,-2.471923828125,-2.50244140625
4.1499999,-0.026336219161748886,-0.272938996553421,10.38844108581543,2.105712890625,-3.448486328125,-2.3345947265625
4.1699999000000005,0.028730420395731926,-0.395043283700943,10.54406452178955,0.9002685546875,-4.4708251953125,-4.364013671875
4.1899999,0.06703764945268631,-0.40940847992897034,10.6709566116333,3.6163330078125,-16.17431640625,-16.143798828125
4.209999900000001,0.1173158809542656,-0.4118026793003082,10.864887237548828,10.528564453125,-21.4691162109375,-18.3868408203125
4.2299999,0.15083470940589905,-0.2777273952960968,11.1474027633667,11.322021484375,-25.4669189453125,-15.68603515625
4.249999900000001,0.15801730751991272,-0.040701430290937424,11.338939666748047,16.0675048828125,-41.8243408203125,-15.3961181640625
4.2699999,0.18914192914962769,0.16998831927776337,11.616666793823242,27.3284912109375,-55.4962158203125,-17.1966552734375
4.289999900000001,0.24420857429504395,0.33518823981285095,11.920730590820312,38.8946533203125,-62.19482421875,-18.9361572265625
4.3099999,0.304063618183136,0.49320554733276367,11.96861457824707,53.497314453125,-76.6143798828125,-19.34814453125
4.329999900000001,0.35434186458587646,0.8355764150619507,11.81059741973877,58.7615966796875,-88.2720947265625,-20.6756591796875
4.3499999,0.3974374830722809,1.357512354850769,11.57596492767334,48.9349365234375,-83.5113525390625,-4.2877197265625
4.369999900000001,0.37828385829925537,2.2002713680267334,11.111490249633789,45.83740234375,-99.639892578125,16.3116455078125
4.3899999,0.395043283700943,3.0573954582214355,11.183316230773926,40.4510498046875,-112.4725341796875,48.9044189453125
4.409999900000001,0.42377370595932007,3.706224203109741,11.1474027633667,66.253662109375,-141.082763671875,75.4852294921875
4.4299999,0.5578489899635315,3.861847400665283,10.757147789001465,89.7674560546875,-167.17529296875,91.2322998046875
4.449999900000001,0.8307880163192749,3.579331636428833,9.830592155456543,69.915771484375,-131.256103515625,94.78759765625
4.4699999,1.1875240802764893,3.203441858291626,8.607154846191406,37.9180908203125,-80.5511474609375,94.2840576171875
4.489999900000001,1.5849615335464478,2.9257144927978516,7.496245384216309,36.1480712890625,-74.5391845703125,115.5853271484375
4.5099999,1.8962076902389526,2.9712042808532715,6.6630635261535645,63.17138671875,-88.5009765625,143.951416015625
4.529999900000001,1.9991583824157715,3.3446998596191406,6.172252178192139,72.9522705078125,-55.8624267578125,166.2445068359375
4.5499999,1.8914192914962769,3.7205893993377686,5.628767967224121,69.51904296875,-5.584716796875,201.0650634765625
4.569999900000001,1.6352397203445435,3.9264907836914062,5.298368453979492,52.42919921875,21.636962890625,240.264892578125
4.5899999000000005,1.5634137392044067,3.157952070236206,5.07570743560791,27.0843505859375,15.5487060546875,266.9525146484375
4.609999900000001,1.4508862495422363,2.231395959854126,5.102043628692627,-3.1585693359375,23.86474609375,242.340087890625
4.6299999000000005,1.403002142906189,0.9600749015808105,5.219359874725342,0.91552734375,73.516845703125,225.250244140625
4.6499999,1.237802267074585,-0.047884032130241394,5.384559631347656,29.6478271484375,106.3385009765625,262.63427734375
4.6699999000000005,1.091755986213684,-1.158793568611145,5.6191911697387695,29.8919677734375,101.4251708984375,283.4014892578125
4.6899999,1.1037269830703735,-2.6815059185028076,5.681440830230713,-18.7530517578125,98.236083984375,246.856689453125
4.709999900000001,1.2832920551300049,-4.599261283874512,5.827486991882324,-69.976806640625,130.37109375,175.7965087890625
4.7299999,1.4460978507995605,-6.2201361656188965,6.119579315185547,-79.4677734375,155.670166015625,126.4495849609375
4.749999900000001,1.436521053314209,-7.1706342697143555,6.710947513580322,-41.107177734375,143.2342529296875,126.129150390625
4.7699999,1.1516109704971313,-7.189787864685059,7.503427982330322,2.777099609375,124.08447265625,112.3504638671875
4.789999900000001,0.7038952708244324,-6.6846113204956055,7.996633529663086,13.946533203125,132.568359375,80.841064453125
4.8099999,0.17477671802043915,-6.066906929016113,8.183381080627441,-3.41796875,158.935546875,65.7501220703125
4.829999900000001,-0.45010992884635925,-5.5545477867126465,7.783549785614014,0.18310546875,171.44775390625,59.4635009765625
4.8499999,-1.0869675874710083,-5.231330871582031,7.558494567871094,13.97705078125,201.873779296875,35.064697265625
4.869999900000001,-1.644816517829895,-5.477933406829834,7.589619159698486,-5.462646484375,220.4132080078125,4.974365234375
4.8899999,-2.22660756111145,-6.076483726501465,7.754819393157959,-25.8026123046875,202.5604248046875,-34.149169921875
4.909999900000001,-2.7988216876983643,-6.782773494720459,8.580819129943848,-32.379150390625,217.071533203125,-79.6661376953125
4.9299999,-3.4596214294433594,-7.4100542068481445,9.373299598693848,-26.275634765625,215.2557373046875,-107.3455810546875
4.949999900000001,-4.177882194519043,-7.745242595672607,9.967061996459961,8.8958740234375,191.3909912109375,-133.697509765625
4.9699999,-4.946420669555664,-7.6351094245910645,10.589553833007812,-14.0228271484375,196.0601806640625,-164.1387939453125
4.989999900000001,-5.655104637145996,-7.16584587097168,10.888829231262207,-71.4111328125,170.074462890625,-191.0247802734375
5.0099999,-6.150704383850098,-6.821080684661865,11.432312965393066,-80.6884765625,136.932373046875,-182.9071044921875
5.029999900000001,-6.6127848625183105,-5.944802761077881,12.083536148071289,-55.17578125,93.231201171875,-203.67431640625
5.0499999,-6.600813865661621,-5.609614372253418,12.653355598449707,-4.5013427734375,61.0198974609375,-191.7266845703125
5.069999900000001,-6.212953567504883,-6.081272125244141,13.211204528808594,33.69140625,35.2630615234375,-169.6929931640625
5.0899999000000005,-5.822698593139648,-6.787561893463135,12.715604782104492,68.17626953125,-11.2152099609375,-226.6998291015625
5.109999900000001,-5.506663799285889,-6.828263282775879,12.164938926696777,35.430908203125,-10.406494140625,-280.5023193359375
5.1299999000000005,-5.149928092956543,-6.9455790519714355,11.532869338989258,12.847900390625,-0.0457763671875,-208.740234375
5.1499999,-4.941632270812988,-6.311115741729736,10.927136421203613,67.68798828125,-48.33984375,-169.9676513671875
5.1699999000000005,-4.594472885131836,-5.525817394256592,10.579977035522461,121.09375,-85.5560302734375,-223.0224609375
5.1899999,-3.9624037742614746,-5.224148273468018,10.807426452636719,135.2691650390625,-58.3953857421875,-219.8028564453125
5.209999900000001,-3.426102638244629,-4.898536682128906,10.915165901184082,176.8951416015625,-77.5146484375,-172.119140625
5.2299999,-3.002328872680664,-4.062960147857666,10.690110206604004,212.310791015625,-133.4686279296875,-167.266845703125
5.249999900000001,-2.5905263423919678,-2.9472622871398926,10.747570991516113,193.2525634765625,-112.1826171875,-138.9617919921875
5.2699999,-2.1308395862579346,-2.10210919380188,10.323798179626465,186.126708984375,-98.419189453125,-80.535888671875
5.289999900000001,-1.742978811264038,-0.7924807667732239,9.47146224975586,229.3243408203125,-127.1820068359375,-52.3834228515625
5.3099999,-1.137245774269104,-0.004788403399288654,8.604761123657227,234.0087890625,-96.6796875,-13.3514404296875
5.329999900000001,-0.5363011956214905,0.6799532771110535,7.462726593017578,199.066162109375,-39.0472412109375,10.25390625
5.3499999,0.1388636976480484,0.9648633003234863,6.342240333557129,151.397705078125,-11.0626220703125,24.566650390625
5.369999900000001,0.7876923680305481,1.0773907899856567,5.925649166107178,110.9466552734375,14.9688720703125,26.85546875
5.3899999,1.3311761617660522,1.0247182846069336,5.995080947875977,94.42138671875,11.016845703125,27.6641845703125
5.409999900000001,1.7477672100067139,0.8044517636299133,6.282385349273682,75.714111328125,13.1072998046875,30.70068359375
5.4299999,2.0039467811584473,0.5291185975074768,6.6391215324401855,28.5186767578125,38.421630859375,18.73779296875
5.449999900000001,2.0398597717285156,0.49320554733276367,7.1490864753723145,-22.979736328125,68.5577392578125,-7.110595703125
5.4699999,1.987187385559082,0.524330198764801,8.008605003356934,-21.514892578125,45.4254150390625,1.678466796875
5.489999900000001,1.7956513166427612,0.828393816947937,8.901641845703125,0.4730224609375,0.5645751953125,16.0064697265625
5.5099999,1.5969325304031372,1.1324573755264282,9.713275909423828,2.8228759765625,-4.791259765625,15.411376953125
5.529999900000001,1.4532804489135742,1.237802267074585,9.837775230407715,-15.6707763671875,14.4195556640625,10.43701171875
5.5499999,1.3766659498214722,1.2114660739898682,9.691728591918945,-25.69580078125,26.580810546875,8.148193359375
5.569999900000001,1.400607943534851,0.9720458984375,9.500192642211914,-13.8397216796875,21.209716796875,9.2926025390625
5.5899999000000005,1.4652514457702637,0.7230489253997803,9.514557838439941,-0.42724609375,6.77490234375,2.7618408203125
5.609999900000001,1.4939818382263184,0.5482721924781799,9.50498104095459,-2.9754638671875,3.173828125,-7.6446533203125
5.6299999000000005,1.3934253454208374,0.6129156351089478,9.466673851013184,-13.275146484375,19.4091796875,2.0599365234375
5.6499999,1.3192051649093628,0.7493851184844971,9.636661529541016,-11.383056640625,15.3045654296875,8.8043212890625
5.6699999000000005,1.2545616626739502,0.8954314589500427,9.883264541625977,-6.500244140625,6.0272216796875,6.195068359375
5.6899999,1.2401964664459229,0.9097966551780701,10.139444351196289,0.18310546875,-4.3487548828125,3.0059814453125
5.709999900000001,1.235408067703247,0.8786720037460327,10.180145263671875,1.40380859375,-4.08935546875,3.6468505859375
5.7299999,1.2114660739898682,0.8667010068893433,10.072406768798828,-5.6304931640625,6.072998046875,3.570556640625
5.749999900000001,1.1899182796478271,0.828393816947937,9.816226959228516,-5.5389404296875,8.8043212890625,6.561279296875
5.7699999,1.192312479019165,0.7589619159698486,9.706093788146973,-6.2103271484375,9.002685546875,7.4310302734375
5.789999900000001,1.1994950771331787,0.6967126727104187,9.651026725769043,-2.4871826171875,2.0904541015625,0.823974609375
5.8099999,1.2066776752471924,0.646434485912323,9.727641105651855,-1.6021728515625,3.326416015625,-0.5340576171875
5.829999900000001,1.2018892765045166,0.6177040338516235,9.710882186889648,0.762939453125,2.86865234375,3.0517578125
5.8499999,1.1563993692398071,0.7086837291717529,9.742006301879883,-3.23486328125,7.8582763671875,2.8839111328125
5.869999900000001,1.1348515748977661,0.7493851184844971,9.78989028930664,-2.593994140625,7.32421875,4.486083984375
5.8899999,1.113303780555725,0.8092401623725891,9.876082420349121,-0.54931640625,1.0528564453125,4.69970703125
5.909999900000001,1.1061211824417114,0.811634361743927,9.923966407775879,2.25830078125,-3.35693359375,4.2266845703125
5.9299999,1.1109095811843872,0.7709329724311829,9.871294021606445,-1.40380859375,0.2288818359375,4.8065185546875
5.949999900000001,1.1037269830703735,0.7326257228851318,9.775525093078613,-6.103515625,5.8441162109375,3.23486328125
5.9699999,1.1109095811843872,0.6560112833976746,9.655815124511719,-3.326416015625,4.791259765625,4.2724609375
5.989999900000001,1.1109095811843872,0.608127236366272,9.617507934570312,1.0986328125,0.2899169921875,2.86865234375
6.0099999,1.1085153818130493,0.5746083855628967,9.610325813293457,0.6256103515625,0.244140625,1.007080078125
6.029999900000001,1.115697979927063,0.5267243981361389,9.615114212036133,-0.7476806640625,3.021240234375,1.678466796875
6.0499999,1.115697979927063,0.5315127968788147,9.643844604492188,-1.6937255859375,5.4168701171875,0.2288818359375
6.069999900000001,1.1061211824417114,0.5626373887062073,9.66539192199707,1.6937255859375,1.6632080078125,-0.4119873046875
6.0899999000000005,1.0965443849563599,0.6272808313369751,9.730035781860352,1.9989013671875,1.4801025390625,1.708984375
6.109999900000001,1.0654197931289673,0.7206547260284424,9.761159896850586,-1.1749267578125,1.1444091796875,3.9520263671875
6.1299999000000005,1.0606313943862915,0.7350199222564697,9.768342971801758,-2.227783203125,0.9613037109375,6.8817138671875
6.149999900000001,1.0749965906143188,0.6823474764823914,9.794678688049316,-3.0670166015625,1.0833740234375,4.33349609375
6.1699999000000005,1.115697979927063,0.5410895943641663,9.770736694335938,-2.899169921875,-0.274658203125,-0.1068115234375
6.1899999,1.1492167711257935,0.4429273009300232,9.801861763000488,-4.5623779296875,1.64794921875,-2.6397705078125
6.209999900000001,1.1492167711257935,0.42616790533065796,9.751583099365234,-2.105712890625,0.1068115234375,-2.3956298828125
6.2299999,1.1300631761550903,0.4884171485900879,9.737217903137207,-0.5645751953125,1.7852783203125,2.3040771484375
6.249999900000001,1.1109095811843872,0.5626373887062073,9.72285270690918,-1.220703125,2.960205078125,3.173828125
6.2699999,1.1061211824417114,0.5961562395095825,9.725247383117676,-2.288818359375,2.0294189453125,0.9918212890625
6.289999900000001,1.113303780555725,0.5961562395095825,9.727641105651855,-1.1138916015625,0.5340576171875,-1.8463134765625
6.3099999,1.1276689767837524,0.5770025849342346,9.725247383117676,-1.0986328125,2.197265625,0.0457763671875
6.329999900000001,1.1252747774124146,0.5746083855628967,9.703699111938477,-1.52587890625,4.913330078125,1.8310546875
6.3499999,1.1085153818130493,0.6057330369949341,9.679757118225098,-0.3509521484375,4.5318603515625,0.67138671875
6.369999900000001,1.1037269830703735,0.5961562395095825,9.703699111938477,-0.9002685546875,4.57763671875,1.312255859375
6.3899999,1.0869675874710083,0.6009446382522583,9.744400978088379,-1.8310546875,2.2735595703125,0.8392333984375
6.409999900000001,1.094150185585022,0.5578489899635315,9.804255485534668,-1.15966796875,2.1514892578125,0.0762939453125
6.4299999,1.1061211824417114,0.5171475410461426,9.90241813659668,-0.9002685546875,2.2430419921875,-3.3721923828125
6.449999900000001,1.1348515748977661,0.4620809257030487,10.034099578857422,-0.79345703125,0.30517578125,-5.889892578125
6.4699999,1.137245774269104,0.4908113479614258,10.141838073730469,-0.5340576171875,-6.866455078125,-9.21630859375
6.489999900000001,1.170764684677124,0.4884171485900879,10.402806282043457,-0.5950927734375,-6.439208984375,-6.805419921875
6.5099999,1.2258312702178955,0.5482721924781799,10.845733642578125,-3.7078857421875,-15.68603515625,-10.772705078125
6.529999900000001,1.2497732639312744,0.8020575642585754,11.425130844116211,-1.6326904296875,-49.1485595703125,-17.364501953125
6.5499999,1.3024457693099976,1.039083480834961,11.949460983276367,5.5389404296875,-87.158203125,-3.47900390625
6.569999900000001,1.3335703611373901,1.4676456451416016,12.282255172729492,6.1492919921875,-111.14501953125,5.6610107421875
6.5899999000000005,1.3646949529647827,1.9967641830444336,12.667720794677734,-13.6871337890625,-132.659912109375,13.3056640625
6.609999900000001,1.4413094520568848,2.2912509441375732,12.696451187133789,-5.2947998046875,-205.810546875,36.0565185546875
6.6299999000000005,1.534683346748352,2.5019407272338867,12.327744483947754,13.1378173828125,-262.298583984375,52.032470703125
6.649999900000001,1.7405846118927002,2.451662540435791,11.504138946533203,22.5830078125,-230.65185546875,57.830810546875
6.6699999000000005,2.0470423698425293,2.315192937850952,10.649409294128418,3.753662109375,-186.614990234375,66.436767578125
6.6899999,2.425326347351074,2.1308395862579346,9.86650562286377,29.0985107421875,-216.552734375,77.911376953125
6.709999900000001,2.868253707885742,1.8363527059555054,8.887276649475098,88.43994140625,-257.0648193359375,98.175048828125
6.7299999,3.292027235031128,1.5610195398330688,7.860164165496826,90.8203125,-190.4449462890625,102.2796630859375
6.749999900000001,3.7684733867645264,1.2018892765045166,6.430825710296631,49.01123046875,-112.030029296875,109.161376953125
6.7699999,4.20421838760376,0.9193734526634216,4.812345504760742,45.4254150390625,-97.5341796875,127.25830078125
6.789999900000001,4.616020679473877,0.8092401623725891,3.5865142345428467,70.6634521484375,-79.864501953125,140.655517578125
6.8099999,4.876988887786865,0.8690952062606812,3.2537200450897217,40.34423828125,-7.1258544921875,164.8712158203125
6.829999900000001,4.908113479614258,0.950498104095459,3.028665065765381,14.0380859375,-10.31494140625,196.4111328125
6.8499999,4.932055473327637,0.5626373887062073,3.3854012489318848,19.7906494140625,-10.345458984375,231.62841796875
6.869999900000001,4.891354084014893,-0.07900865375995636,3.892971992492676,11.71875,11.444091796875,229.248046875
6.8899999,4.924872875213623,-1.3718775510787964,4.015076160430908,-14.6026611328125,21.2554931640625,227.5543212890625
6.909999900000001,4.982333660125732,-2.786850690841675,4.256890773773193,-34.60693359375,45.83740234375,224.18212890625
6.9299999,5.008669853210449,-4.050989151000977,4.663905143737793,-42.6788330078125,66.0400390625,207.21435546875
6.949999900000001,4.884171485900879,-4.912901878356934,5.018246650695801,0.91552734375,42.3431396484375,188.3697509765625
6.9699999,4.6471452713012695,-5.3582234382629395,5.612008571624756,16.3726806640625,53.1158447265625,182.830810546875
6.989999900000001,4.230554580688477,-5.578489780426025,5.453991413116455,-13.702392578125,67.7947998046875,195.7855224609375
7.0099999,3.641580820083618,-5.743690013885498,4.8602294921875,-49.224853515625,92.864990234375,201.59912109375
7.029999900000001,3.0142998695373535,-6.045359134674072,4.553771495819092,-75.1800537109375,152.984619140625,199.4476318359375
7.0499999,2.451662540435791,-6.694188117980957,4.663905143737793,-52.5665283203125,155.487060546875,189.453125
7.069999900000001,1.8818424940109253,-7.364564418792725,5.102043628692627,15.655517578125,122.37548828125,152.9998779296875
7.0899999000000005,1.3694833517074585,-8.097189903259277,5.410895824432373,46.08154296875,158.172607421875,127.197265625
7.109999900000001,0.5339069962501526,-8.372523307800293,4.896142482757568,9.9945068359375,220.123291015625,119.903564453125
7.1299999000000005,-0.569819986820221,-8.317456245422363,4.216189384460449,-26.1688232421875,286.7889404296875,131.6680908203125
7.149999900000001,-1.764526605606079,-8.101978302001953,4.534617900848389,-7.0648193359375,353.1646728515625,138.1988525390625
7.1699999000000005,-2.892195701599121,-7.948749542236328,5.506663799285889,54.1229248046875,282.7301025390625,101.74560546875
7.1899999,-3.627215623855591,-8.432378768920898,6.878541469573975,100.3875732421875,233.0780029296875,61.248779296875
7.209999900000001,-3.9911341667175293,-9.349357604980469,8.058882713317871,97.137451171875,283.69140625,4.7149658203125
7.2299999,-4.369418144226074,-10.062829971313477,8.269572257995605,39.73388671875,283.0047607421875,-65.582275390625
7.249999900000001,-4.656722068786621,-10.687716484069824,8.38449478149414,-12.298583984375,239.837646484375,-82.5347900390625
7.2699999,-5.140350818634033,-10.307038307189941,8.765172004699707,-6.1187744140625,223.44970703125,-103.69873046875
7.289999900000001,-5.439626216888428,-9.81143856048584,9.23682975769043,65.7501220703125,168.212890625,-114.4256591796875
7.3099999,-5.655104637145996,-9.057265281677246,9.883264541625977,83.0841064453125,129.791259765625,-133.1634521484375
7.329999900000001,-5.779603004455566,-8.154650688171387,9.813833236694336,96.19140625,75.927734375,-166.3970947265625
7.3499999,-5.724536418914795,-7.436390399932861,9.703699111938477,79.4525146484375,73.2421875,-149.749755859375
7.369999900000001,-5.659893035888672,-6.797138690948486,9.097966194152832,57.0526123046875,53.6041259765625,-131.6375732421875
7.3899999,-5.430049419403076,-6.53377628326416,8.516175270080566,65.032958984375,18.85986328125,-142.974853515625
7.409999900000001,-5.137956619262695,-6.672640323638916,8.20492935180664,57.31201171875,11.077880859375,-162.4908447265625
7.4299999,-4.898536682128906,-6.521805286407471,7.860164165496826,56.6253662109375,1.1138916015625,-172.2259521484375
7.449999900000001,-4.642356872558594,-6.485892295837402,7.9415669441223145,46.6156005859375,-1.40380859375,-130.79833984375
7.4699999,-4.390965938568115,-6.1052141189575195,8.027758598327637,68.145751953125,-23.0560302734375,-114.044189453125
7.489999900000001,-3.971980571746826,-6.090848922729492,8.561665534973145,89.66064453125,-25.146484375,-118.7896728515625
7.5099999,-3.49314022064209,-6.447585105895996,9.093177795410156,124.359130859375,-49.163818359375,-130.43212890625
7.529999900000001,-3.1316158771514893,-6.347028732299805,9.059659004211426,158.721923828125,-69.9462890625,-146.6522216796875
7.5499999,-2.8658595085144043,-5.7987565994262695,9.100360870361328,152.099609375,-31.6925048828125,-114.471435546875
7.569999900000001,-2.5091233253479004,-5.166687488555908,8.899248123168945,146.4996337890625,-23.162841796875,-61.676025390625
7.5899999000000005,-2.097320795059204,-4.455609321594238,9.32541561126709,152.7862548828125,-50.1708984375,-68.84765625
7.609999900000001,-1.6711528301239014,-4.290409564971924,8.578424453735352,191.741943359375,-117.49267578125,-96.3287353515625
7.6299999000000005,-1.1468225717544556,-4.197035789489746,9.066842079162598,154.205322265625,-31.5399169921875,-82.7484130859375
7.649999900000001,-0.9433154463768005,-3.584120035171509,8.327033042907715,96.0845947265625,6.8817138671875,-69.6563720703125
7.6699999000000005,-0.7661445140838623,-2.4851813316345215,8.786720275878906,111.8621826171875,-67.32177734375,-36.0565185546875
7.6899999,-0.7326257228851318,-1.3982137441635132,8.877699851989746,134.063720703125,-95.672607421875,-1.007080078125
7.709999900000001,-0.43335050344467163,-1.1899182796478271,8.738836288452148,149.23095703125,-76.5228271484375,22.3846435546875
7.7299999,-0.18914192914962769,-1.2473790645599365,8.865729331970215,54.718017578125,23.7579345703125,-18.6767578125
7.749999900000001,0.2513911724090576,-1.824381709098816,8.159439086914062,65.3533935546875,-42.1905517578125,-42.6788330078125
7.7699999,0.586579442024231,-1.7980455160140991,8.552088737487793,71.8231201171875,-46.142578125,-24.2919921875
7.789999900000001,0.7565677165985107,-1.3694833517074585,8.468291282653809,76.9195556640625,-44.9676513671875,-0.4119873046875
7.8099999,0.8044517636299133,-0.8643068075180054,8.224082946777344,55.2825927734375,-26.824951171875,15.2435302734375
7.829999900000001,0.849941611289978,-0.5985504388809204,7.623138427734375,18.157958984375,1.953125,6.1492919921875
7.8499999,0.9265560507774353,-0.6320692300796509,7.400477409362793,-13.4124755859375,32.989501953125,-2.0599365234375
7.869999900000001,1.0414776802062988,-0.8259995579719543,7.201758861541748,-5.4931640625,16.7694091796875,-3.5400390625
7.8899999,1.1348515748977661,-0.9026140570640564,7.845798969268799,-7.8887939453125,26.458740234375,-2.01416015625
7.909999900000001,1.1659762859344482,-0.912190854549408,8.401253700256348,-0.762939453125,20.01953125,-3.5552978515625
7.9299999,1.161187767982483,-0.8954314589500427,9.071630477905273,1.0986328125,13.0767822265625,1.007080078125
7.949999900000001,1.1013327836990356,-0.8092401623725891,9.66299819946289,-5.9051513671875,19.805908203125,-0.5950927734375
7.9699999,1.0319008827209473,-0.7565677165985107,10.000580787658691,-3.6773681640625,12.0391845703125,-1.6632080078125
7.989999900000001,0.9672574996948242,-0.7326257228851318,10.292673110961914,-2.197265625,10.6658935546875,2.105712890625
8.0099999,0.9169792532920837,-0.7350199222564697,10.362105369567871,2.1209716796875,8.148193359375,1.9683837890625
8.0299999,0.9074024558067322,-0.7996633648872375,10.436325073242188,0.4425048828125,10.0860595703125,-0.8087158203125
8.049999900000001,0.8954314589500427,-0.8427590131759644,10.371682167053223,0.1678466796875,6.5155029296875,-5.645751953125
8.069999900000001,0.8786720037460327,-0.8259995579719543,10.316615104675293,4.486083984375,1.9073486328125,-5.706787109375
8.0899999,0.8547300100326538,-0.7589619159698486,10.24000072479248,2.777099609375,4.94384765625,-0.091552734375
8.1099999,0.8164227604866028,-0.6607996821403503,10.160991668701172,-0.4425048828125,5.3253173828125,1.922607421875
8.129999900000001,0.8020575642585754,-0.6248866319656372,10.110713958740234,-0.3662109375,2.4566650390625,-0.640869140625
8.149999900000001,0.7996633648872375,-0.6488286852836609,10.067618370056152,1.251220703125,-0.1983642578125,-3.875732421875
8.1699999,0.8188169598579407,-0.706289529800415,10.034099578857422,1.129150390625,0.457763671875,-5.1422119140625
8.1899999,0.8188169598579407,-0.7158663272857666,9.99339771270752,0.06103515625,3.4332275390625,-7.0343017578125
8.2099999,0.8092401623725891,-0.7038952708244324,9.859322547912598,5.5389404296875,1.40380859375,-6.16455078125
8.229999900000001,0.7805097699165344,-0.6200982332229614,9.782708168029785,8.6212158203125,7.9803466796875,-4.302978515625
8.2499999,0.751779317855835,-0.5722141861915588,9.684545516967773,10.1776123046875,9.9029541015625,-3.1280517578125
8.2699999,0.7565677165985107,-0.6272808313369751,9.634267807006836,10.5438232421875,8.270263671875,-3.5858154296875
8.2899999,0.7757213711738586,-0.7589619159698486,9.62947940826416,11.2762451171875,10.0860595703125,-11.199951171875
8.309999900000001,0.8140285611152649,-0.9097966551780701,9.718064308166504,13.3209228515625,12.939453125,-21.2554931640625
8.3299999,0.8044517636299133,-0.9193734526634216,9.672574996948242,16.082763671875,9.735107421875,-25.3143310546875
8.3499999,0.8188169598579407,-0.9050082564353943,9.890447616577148,11.077880859375,15.5792236328125,-17.2119140625
8.3699999,0.8188169598579407,-0.8619126081466675,10.065223693847656,7.8582763671875,6.805419921875,-21.8505859375
8.389999900000001,0.8954314589500427,-0.9768342971801758,10.675745010375977,5.2337646484375,-2.899169921875,-36.68212890625
8.4099999,0.9983820915222168,-1.2282254695892334,11.338939666748047,13.4124755859375,-22.8424072265625,-50.3082275390625
8.4299999,1.0534487962722778,-1.3072341680526733,12.193669319152832,19.622802734375,-47.4853515625,-69.580078125
8.4499999,1.039083480834961,-1.0438719987869263,12.878411293029785,29.510498046875,-72.1435546875,-75.6378173828125
8.469999900000001,0.8978256583213806,-0.2753331959247589,13.204022407531738,49.98779296875,-104.1717529296875,-63.29345703125
8.4899999,0.7254431247711182,0.8355764150619507,13.19205093383789,65.216064453125,-120.361328125,-36.8804931640625
8.5099999,0.6105214357376099,2.0590133666992188,12.99812126159668,67.7947998046875,-131.34765625,-6.4239501953125
8.5299999,0.5003881454467773,3.3039982318878174,13.050793647766113,61.5234375,-173.980712890625,22.27783203125
8.549999900000001,0.4189853072166443,4.141968727111816,12.251130104064941,102.203369140625,-263.9923095703125,62.31689453125
8.569999900000001,0.45010992884635925,4.620809078216553,11.30063247680664,110.321044921875,-245.819091796875,94.4061279296875
8.5899999,0.7015010714530945,4.438849925994873,9.835380554199219,64.02587890625,-181.21337890625,117.828369140625
8.6099999,1.2425906658172607,3.8786067962646484,8.719682693481445,37.3382568359375,-184.3719482421875,117.645263671875
8.629999900000001,1.8722656965255737,3.1507694721221924,7.824251174926758,78.460693359375,-236.480712890625,124.969482421875
8.649999900000001,2.647987127304077,2.145204782485962,6.658275127410889,129.9591064453125,-235.1531982421875,147.552490234375
8.6699999,3.3854012489318848,1.1468225717544556,5.288791656494141,84.5489501953125,-96.2371826171875,146.05712890625
8.6899999,4.2090067863464355,-0.014365210197865963,3.426102638244629,20.0958251953125,-10.1165771484375,123.10791015625
8.709999900000001,4.963180065155029,-0.6775590777397156,2.3965959548950195,10.92529296875,5.584716796875,98.1292724609375
8.729999900000001,5.430049419403076,-0.6727706789970398,2.166752576828003,43.5638427734375,13.1378173828125,105.8349609375
8.7499999,5.427655220031738,0.06464344263076782,2.3487119674682617,80.230712890625,40.9393310546875,142.608642578125
8.7699999,5.116408824920654,0.8307880163192749,2.911349296569824,43.1671142578125,111.541748046875,173.5382080078125
8.7899999,4.728548526763916,0.8786720037460327,2.846705913543701,-6.7901611328125,105.6976318359375,188.0035400390625
8.809999900000001,4.505887508392334,-0.002394201699644327,3.308786630630493,-34.48486328125,141.9525146484375,168.5638427734375
8.8299999,4.206612586975098,-0.9361328482627869,3.7493197917938232,-29.0679931640625,185.699462890625,123.138427734375
8.8499999,3.8067808151245117,-1.7118542194366455,4.4292731285095215,5.2337646484375,195.37353515625,130.3253173828125
8.8699999,3.227383852005005,-1.8698714971542358,5.805939197540283,0.6256103515625,226.0894775390625,168.39599609375
8.889999900000001,2.535459518432617,-1.9297266006469727,6.785167694091797,-1.9073486328125,177.1240234375,174.3011474609375
8.9099999,1.8962076902389526,-2.298433542251587,7.558494567871094,-4.69970703125,176.910400390625,157.4249267578125
8.9299999,1.2521674633026123,-2.873042106628418,8.31985092163086,-43.9453125,243.0572509765625,136.9171142578125
8.9499999,0.5051765441894531,-3.3949780464172363,8.259995460510254,-21.05712890625,216.888427734375,135.92529296875
8.969999900000001,-0.18914192914962769,-4.039018154144287,8.789113998413086,-15.655517578125,219.970703125,152.801513671875
8.9899999,-0.7541735172271729,-4.910507678985596,9.255983352661133,-9.674072265625,216.1865234375,131.53076171875
9.0099999,-1.0534487962722778,-6.232107162475586,9.93354320526123,9.063720703125,210.1593017578125,63.3697509765625
9.0299999,-1.2042834758758545,-7.654263019561768,10.436325073242188,20.5230712890625,198.028564453125,-3.90625
9.049999900000001,-1.3263877630233765,-8.71489429473877,11.013327598571777,2.86865234375,191.2078857421875,-46.539306640625
9.069999900000001,-1.721431016921997,-8.779537200927734,11.008539199829102,-13.214111328125,162.2467041015625,-80.2459716796875
9.0899999,-2.3080103397369385,-8.034940719604492,10.884040832519531,-30.76171875,155.7159423828125,-96.893310546875
9.1099999,-2.9735984802246094,-6.88332986831665,10.730812072753906,-46.600341796875,159.423828125,-89.2181396484375
9.129999900000001,-3.584120035171509,-5.762843608856201,10.615890502929688,-29.266357421875,131.9580078125,-98.388671875
9.149999900000001,-3.9887399673461914,-5.178658485412598,10.467450141906738,8.8653564453125,91.1712646484375,-120.0103759765625
9.1699999,-4.20421838760376,-5.149928092956543,10.47942066192627,-14.0228271484375,89.0655517578125,-144.775390625
9.1899999,-4.400542736053467,-5.070919036865234,10.400412559509277,-27.89306640625,86.1663818359375,-166.595458984375
9.209999900000001,-4.496310710906982,-5.0014872550964355,10.505757331848145,-1.953125,54.3060302734375,-158.172607421875
9.229999900000001,-4.632780075073242,-4.575319290161133,10.623072624206543,32.0892333984375,19.53125,-134.5367431640625
9.2499999,-4.587290287017822,-4.321534156799316,10.84094524383545,41.32080078125,7.2784423828125,-128.1280517578125
9.2699999,-4.417302131652832,-4.347870349884033,10.915165901184082,36.19384765625,2.3651123046875,-132.354736328125
9.2899999,-4.20421838760376,-4.417302131652832,10.769119262695312,61.279296875,-20.751953125,-147.979736328125
9.309999900000001,-3.952826976776123,-4.323928356170654,10.649409294128418,78.704833984375,-38.848876953125,-145.538330078125
9.3299999,-3.801992416381836,-3.804386615753174,10.345345497131348,89.4622802734375,-41.93115234375,-116.119384765625
9.3499999,-3.6104562282562256,-3.117250680923462,9.964667320251465,98.9532470703125,-43.0450439453125,-88.92822265625
9.3699999,-3.332728862762451,-2.537853717803955,9.75397777557373,98.08349609375,-28.228759765625,-73.30322265625
9.389999900000001,-2.935291290283203,-2.3535003662109375,9.490615844726562,119.62890625,-35.8428955078125,-68.42041015625
9.4099999,-2.4851813316345215,-2.365471363067627,9.706093788146973,132.3089599609375,-37.1551513671875,-72.265625
9.4299999,-2.0039467811584473,-2.655169725418091,9.437943458557129,139.0838623046875,-56.1370849609375,-65.5517578125
9.4499999,-1.5682021379470825,-2.875436305999756,10.017339706420898,112.640380859375,-32.40966796875,-70.73974609375
9.469999900000001,-1.2856862545013428,-2.715024709701538,10.17296314239502,119.1253662109375,-65.093994140625,-88.8519287109375
9.4899999,-1.1755530834197998,-2.1499931812286377,10.584765434265137,139.190673828125,-94.9249267578125,-79.7119140625
9.5099999,-1.137245774269104,-1.3718775510787964,10.412383079528809,143.463134765625,-98.7548828125,-37.689208984375
9.5299999,-1.161187767982483,-0.45250412821769714,10.007762908935547,86.0137939453125,-62.01171875,-25.5279541015625
9.549999900000001,-1.0271124839782715,0.05506663769483566,8.796297073364258,49.86572265625,-63.0035400390625,-26.763916015625
9.569999900000001,-0.7613561153411865,0.42377370595932007,8.202534675598145,23.37646484375,-29.6783447265625,-25.390625
9.5899999,-0.4644751250743866,0.7326257228851318,7.627926826477051,18.2647705078125,-19.622802734375,-15.106201171875
9.6099999,-0.14844051003456116,0.8858546018600464,7.481880187988281,31.3262939453125,-25.5126953125,8.9874267578125
9.629999900000001,0.1388636976480484,0.8882488012313843,7.625532627105713,20.20263671875,-4.39453125,11.71875
9.649999900000001,0.40222588181495667,0.6009446382522583,7.931990146636963,-2.86865234375,9.4451904296875,-0.6866455078125
9.6699999,0.5937620401382446,0.2537853717803955,8.209717750549316,-1.4190673828125,-5.31005859375,-4.94384765625
9.6899999,0.7254431247711182,-0.021547814831137657,8.604761123657227,-0.579833984375,-1.15966796875,-0.5340576171875
9.709999900000001,0.7565677165985107,-0.08619125932455063,8.927978515625,-3.0517578125,9.1552734375,4.5623779296875
9.729999900000001,0.7398083209991455,-0.035913024097681046,9.08838939666748,-2.6702880859375,6.744384765625,3.997802734375
9.7499999,0.7182605266571045,0.043095629662275314,9.361329078674316,-5.5694580078125,9.307861328125,5.8746337890625
9.7699999,0.6847416758537292,0.08619125932455063,9.490615844726562,0.6256103515625,5.2947998046875,7.6141357421875
9.7899999,0.6655880808830261,0.0933738648891449,9.62947940826416,8.4381103515625,8.3160400390625,6.561279296875
9.809999900000001,0.6488286852836609,0.06464344263076782,9.787496566772461,3.448486328125,17.5933837890625,2.9449462890625
9.8299999,0.6392518281936646,0.035913024097681046,9.876082420349121,0.8544921875,8.8043212890625,2.685546875
9.8499999,0.6344634294509888,0.023942016065120697,10.065223693847656,-2.4566650390625,3.814697265625,2.593994140625
9.8699999,0.6272808313369751,0.009576806798577309,10.122684478759766,-1.8157958984375,-1.4495849609375,1.7852783203125
9.889999900000001,0.6224924325942993,-0.023942016065120697,10.223240852355957,-4.425048828125,3.1890869140625,-1.0833740234375
9.9099999,0.608127236366272,-0.07182604819536209,10.125079154968262,-1.5106201171875,0.8544921875,-4.0130615234375
9.9299999,0.586579442024231,-0.07661445438861847,10.093954086303711,-3.814697265625,3.3111572265625,-4.7454833984375
9.9499999,0.5554547905921936,-0.031124621629714966,10.022128105163574,-3.021240234375,3.0975341796875,-3.7384033203125
9.969999900000001,0.524330198764801,0.07182604819536209,9.995792388916016,-2.5177001953125,2.1209716796875,-1.220703125
9.9899999,0.5123591423034668,0.14604631066322327,9.983820915222168,-1.4801025390625,-1.434326171875,1.77001953125
10.0099999,0.5219359993934631,0.14365209639072418,9.916783332824707,-1.4801025390625,-2.4566650390625,1.8157958984375
10.0299999,0.5482721924781799,0.0694318488240242,9.9000244140625,-3.8604736328125,1.434326171875,-1.6326904296875
10.049999900000001,0.5578489899635315,0.031124621629714966,9.77791976928711,-2.3193359375,1.2359619140625,-4.5166015625
10.069999900000001,0.5602431893348694,0.021547814831137657,9.775525093078613,-1.5869140625,3.387451171875,-0.701904296875
10.0899999,0.5434837937355042,0.06464344263076782,9.75397777557373,0.67138671875,1.708984375,4.21142578125
10.1099999,0.5386953949928284,0.07661445438861847,9.770736694335938,0.091552734375,0.1983642578125,3.11279296875
10.129999900000001,0.5530605912208557,0.016759412363171577,9.792284965515137,-1.52587890625,0.9307861328125,-1.251220703125
10.149999900000001,0.5674257874488831,-0.06464344263076782,9.797073364257812,-1.3885498046875,1.5716552734375,-3.7689208984375
10.1699999,0.5674257874488831,-0.08858546614646912,9.792284965515137,0.4425048828125,-0.091552734375,-3.509521484375
10.1899999,0.545877993106842,-0.038307227194309235,9.799467086791992,-1.3580322265625,1.129150390625,-1.2054443359375
10.209999900000001,0.5219359993934631,0.009576806798577309,9.782708168029785,-1.89208984375,1.495361328125,1.434326171875
10.229999900000001,0.5051765441894531,0.040701430290937424,9.761159896850586,-2.5482177734375,2.655029296875,1.0223388671875
10.2499999,0.5171475410461426,-0.0071826050989329815,9.780313491821289,-0.9002685546875,4.33349609375,-1.46484375
10.2699999,0.5171475410461426,-0.011971008032560349,9.816226959228516,-0.6866455078125,3.9215087890625,-4.3182373046875
10.2899999,0.5267243981361389,-0.019153613597154617,9.892841339111328,2.1209716796875,0.5035400390625,-1.03759765625
10.309999900000001,0.5195417404174805,0.019153613597154617,9.938331604003906,1.434326171875,-0.42724609375,2.1209716796875
10.3299999,0.524330198764801,0.023942016065120697,9.976638793945312,-0.0762939453125,-0.7476806640625,2.1209716796875
10.3499999,0.5315127968788147,-0.021547814831137657,9.904812812805176,0.4119873046875,0.1373291015625,-0.2899169921875
10.3699999,0.5482721924781799,-0.09576806426048279,9.890447616577148,-0.6866455078125,1.9378662109375,-1.52587890625
10.389999900000001,0.5554547905921936,-0.1412578970193863,9.847352027893066,-0.1068115234375,1.3427734375,-2.3345947265625
10.4099999,0.5482721924781799,-0.10534487664699554,9.892841339111328,0.0762939453125,0.1983642578125,-2.01416015625
10.4299999,0.5482721924781799,-0.06703764945268631,9.907206535339355,1.28173828125,-2.593994140625,1.0986328125
10.4499999,0.5410895943641663,-0.0071826050989329815,9.981427192687988,-0.9765625,-0.762939453125,1.739501953125
10.469999900000001,0.5506663918495178,-0.016759412363171577,9.921571731567383,0.0152587890625,-3.1585693359375,-0.3814697265625
10.4899999,0.5506663918495178,-0.016759412363171577,9.892841339111328,-1.4495849609375,-0.9613037109375,-1.8463134765625
10.5099999,0.5554547905921936,-0.0454898327589035,9.813833236694336,-1.0528564453125,0.2288818359375,-0.701904296875
10.5299999,0.5482721924781799,-0.040701430290937424,9.708487510681152,-0.152587890625,0.48828125,0.9918212890625
10.549999900000001,0.5554547905921936,-0.05506663769483566,9.674968719482422,0.4730224609375,1.2054443359375,0.30517578125
10.569999900000001,0.5554547905921936,-0.05267243832349777,9.634267807006836,-0.67138671875,1.1138916015625,-2.105712890625
10.5899999,0.5578489899635315,-0.05746084079146385,9.641449928283691,0.3662109375,-0.0152587890625,-1.739501953125
10.6099999,0.5530605912208557,-0.031124621629714966,9.658209800720215,0.5035400390625,1.373291015625,0.1678466796875
10.629999900000001,0.5506663918495178,-0.0071826050989329815,9.708487510681152,-0.48828125,1.6326904296875,1.007080078125
10.649999900000001,0.545877993106842,-0.009576806798577309,9.727641105651855,-0.9765625,1.251220703125,1.15966796875
10.6699999,0.5530605912208557,-0.035913024097681046,9.749189376831055,-1.5106201171875,0.946044921875,0.152587890625
10.6899999,0.5506663918495178,-0.05506663769483566,9.742006301879883,-2.2430419921875,3.9520263671875,-1.3275146484375
10.709999900000001,0.5578489899635315,-0.07661445438861847,9.768342971801758,-1.64794921875,3.7384033203125,0.457763671875
10.729999900000001,0.5650315880775452,-0.08858546614646912,9.813833236694336,-0.946044921875,2.471923828125,0.2899169921875
10.7499999,0.5602431893348694,-0.05985504388809204,9.873687744140625,1.2054443359375,-0.7171630859375,-1.7852783203125
10.7699999,0.5554547905921936,-0.040701430290937424,9.911994934082031,1.2359619140625,0.2288818359375,-0.762939453125
10.7899999,0.5482721924781799,-0.009576806798577309,9.911994934082031,-0.1068115234375,2.1209716796875,2.0904541015625
10.809999900000001,0.545877993106842,0.019153613597154617,9.890447616577148,-0.79345703125,2.105712890625,1.251220703125
10.8299999,0.5482721924781799,0.023942016065120697,9.832986831665039,0.6103515625,-0.030517578125,0
10.8499999,0.5506663918495178,0.004788403399288654,9.801861763000488,0.1678466796875,2.0904541015625,0.06103515625
10.8699999,0.5506663918495178,0,9.77791976928711,-1.2969970703125,3.692626953125,0.48828125
10.889999900000001,0.5482721924781799,-0.011971008032560349,9.792284965515137,-0.8392333984375,2.4871826171875,0.4119873046875
10.9099999,0.5506663918495178,-0.033518824726343155,9.84495735168457,0.5035400390625,0.54931640625,0.3662109375
10.9299999,0.545877993106842,-0.05267243832349777,9.871294021606445,0.213623046875,0.4119873046875,-0.701904296875
10.9499999,0.545877993106842,-0.07900865375995636,9.907206535339355,-0.8087158203125,1.8463134765625,-0.7781982421875
10.969999900000001,0.5315127968788147,-0.08379705995321274,9.864110946655273,0,1.9683837890625,-0.7171630859375
10.9899999,0.5195417404174805,-0.07422025501728058,9.849745750427246,0.640869140625,0.91552734375,0.54931640625
11.0099999,0.507570743560791,-0.05267243832349777,9.835380554199219,1.2359619140625,1.40380859375,0.8544921875
11.0299999,0.507570743560791,-0.06224924325942993,9.818621635437012,1.5716552734375,0.0762939453125,1.7242431640625
11.049999900000001,0.5291185975074768,-0.11971008777618408,9.828198432922363,-0.8697509765625,0.885009765625,1.5716552734375
11.069999900000001,0.5434837937355042,-0.16519992053508759,9.794678688049316,-1.3580322265625,0.640869140625,-2.655029296875
11.0899999,0.5554547905921936,-0.2106897532939911,9.763554573059082,-0.0152587890625,1.922607421875,-3.3416748046875
11.1099999,0.5482721924781799,-0.181959331035614,9.775525093078613,-0.701904296875,4.425048828125,-1.40380859375
11.129999900000001,0.5339069962501526,-0.1388636976480484,9.782708168029785,1.129150390625,1.6021728515625,0.3509521484375
11.149999900000001,0.5195417404174805,-0.08140286058187485,9.828198432922363,0.1983642578125,-0.2899169921875,-0.640869140625
11.1699999,0.5147533416748047,-0.0454898327589035,9.864110946655273,-0.762939453125,0.4730224609375,-2.471923828125
11.1899999,0.5195417404174805,-0.040701430290937424,9.861717224121094,0.2593994140625,1.28173828125,-0.9613037109375
11.209999900000001,0.5147533416748047,-0.016759412363171577,9.840168952941895,0.7781982421875,1.129150390625,-0.48828125
11.229999900000001,0.524330198764801,-0.031124621629714966,9.852140426635742,-0.2593994140625,1.922607421875,-0.091552734375
11.2499999,0.5195417404174805,-0.009576806798577309,9.825803756713867,-0.7171630859375,0.8087158203125,-2.4261474609375
11.2699999,0.5291185975074768,-0.021547814831137657,9.849745750427246,-0.762939453125,1.251220703125,-0.9765625
11.2899999,0.5291185975074768,0.002394201699644327,9.84495735168457,-1.0833740234375,2.716064453125,-0.1068115234375
11.309999900000001,0.5363011956214905,-0.009576806798577309,9.852140426635742,0.1068115234375,1.3427734375,0.54931640625
11.3299999,0.5339069962501526,0.016759412363171577,9.852140426635742,-0.1068115234375,1.251220703125,-1.3275146484375
11.3499999,0.5315127968788147,0.023942016065120697,9.837775230407715,0.42724609375,-0.1220703125,-0.42724609375
11.3699999,0.5291185975074768,0.040701430290937424,9.840168952941895,-0.2593994140625,0.9307861328125,1.434326171875
11.389999900000001,0.524330198764801,0.021547814831137657,9.763554573059082,-0.0762939453125,-0.5035400390625,1.7547607421875
11.4099999,0.5339069962501526,-0.011971008032560349,9.75637149810791,-1.6632080078125,2.2125244140625,-0.732421875
11.4299999,0.5315127968788147,-0.033518824726343155,9.674968719482422,-0.946044921875,2.2125244140625,-2.410888671875
11.4499999,0.5267243981361389,-0.004788403399288654,9.68933391571045,-1.4801025390625,2.7923583984375,0
11.469999900000001,0.5147533416748047,0.038307227194309235,9.710882186889648,-0.5340576171875,2.2430419921875,2.960205078125
11.4899999,0.507570743560791,0.047884032130241394,9.763554573059082,0.9613037109375,-0.2593994140625,3.3416748046875
11.5099999,0.5171475410461426,0.004788403399288654,9.818621635437012,-0.274658203125,0,-0.1373291015625
11.5299999,0.5195417404174805,-0.040701430290937424,9.840168952941895,-1.9073486328125,1.922607421875,-2.5177001953125
11.549999900000001,0.5219359993934631,-0.0694318488240242,9.823410034179688,-0.3814697265625,1.495361328125,0.06103515625
11.569999900000001,0.5123591423034668,-0.0454898327589035,9.80904483795166,-0.0457763671875,2.4261474609375,2.3040771484375
11.5899999,0.5027823448181152,-0.021547814831137657,9.780313491821289,-0.0762939453125,1.7547607421875,2.3956298828125
11.6099999,0.5147533416748047,-0.06464344263076782,9.782708168029785,0.457763671875,2.4566650390625,1.5716552734375
11.629999900000001,0.524330198764801,-0.10295066982507706,9.81143856048584,-0.244140625,3.5247802734375,-1.89208984375
11.649999900000001,0.5339069962501526,-0.11013327538967133,9.852140426635742,1.251220703125,1.3580322265625,-2.838134765625
11.6699999,0.5291185975074768,-0.07661445438861847,9.890447616577148,2.9296875,1.89208984375,0.1373291015625
11.6899999,0.5195417404174805,-0.016759412363171577,9.928754806518555,1.373291015625,1.6326904296875,3.0670166015625
11.709999900000001,0.5171475410461426,0.016759412363171577,9.931148529052734,0.2593994140625,1.373291015625,1.4495849609375
11.729999900000001,0.5291185975074768,-0.004788403399288654,9.947908401489258,0.9002685546875,0.885009765625,-0.762939453125
11.7499999,0.5267243981361389,-0.031124621629714966,9.931148529052734,1.8768310546875,0.5340576171875,-0.79345703125
11.7699999,0.5267243981361389,-0.05985504388809204,9.911994934082031,1.3275146484375,0.6866455078125,1.007080078125
11.7899999,0.5147533416748047,-0.05506663769483566,9.888052940368652,-0.5950927734375,1.6937255859375,0.4730224609375
11.809999900000001,0.5051765441894531,-0.0454898327589035,9.864110946655273,-0.6866455078125,1.52587890625,-0.4730224609375
11.8299999,0.5099649429321289,-0.06464344263076782,9.852140426635742,0.7171630859375,0.823974609375,0.4119873046875
11.8499999,0.5099649429321289,-0.05267243832349777,9.871294021606445,-0.1983642578125,1.4190673828125,-0.6561279296875
11.8699999,0.507570743560791,-0.05267243832349777,9.840168952941895,0.5340576171875,-0.274658203125,-0.9765625
11.889999900000001,0.507570743560791,-0.0694318488240242,9.837775230407715,-0.396728515625,1.46484375,1.2969970703125
11.9099999,0.5027823448181152,-0.08858546614646912,9.792284965515137,-0.6561279296875,1.77001953125,0.091552734375
11.9299999,0.5027823448181152,-0.08858546614646912,9.794678688049316,-0.579833984375,2.6702880859375,-2.5177001953125
11.9499999,0.5027823448181152,-0.090979665517807,9.770736694335938,0.8544921875,1.007080078125,-1.129150390625
11.969999900000001,0.5003881454467773,-0.0694318488240242,9.801861763000488,-0.30517578125,1.556396484375,1.1444091796875
11.9899999,0.5003881454467773,-0.05027823522686958,9.78989028930664,-0.274658203125,1.190185546875,-0.0152587890625
12.0099999,0.507570743560791,-0.05746084079146385,9.81143856048584,-0.2288818359375,1.5716552734375,-1.708984375
12.0299999,0.5099649429321289,-0.0694318488240242,9.801861763000488,-0.152587890625,1.251220703125,-2.2430419921875
12.049999900000001,0.5171475410461426,-0.08379705995321274,9.849745750427246,-1.251220703125,1.9378662109375,-1.9378662109375
12.069999900000001,0.5147533416748047,-0.08140286058187485,9.861717224121094,-0.518798828125,1.5411376953125,-2.7313232421875
12.0899999,0.5267243981361389,-0.1388636976480484,9.909601211547852,-0.1373291015625,1.5716552734375,-3.6773681640625
12.1099999,0.5650315880775452,-0.2513911724090576,10.072406768798828,-0.4730224609375,4.94384765625,-8.6517333984375
12.129999900000001,0.5913678407669067,-0.3256114423274994,10.235212326049805,0.42724609375,-2.471923828125,-18.37158203125
12.149999900000001,0.6153098344802856,-0.304063618183136,10.599130630493164,4.5623779296875,-10.1776123046875,-23.8189697265625
12.1699999,0.6224924325942993,-0.15562310814857483,10.986991882324219,6.561279296875,-19.0887451171875,-19.989013671875
12.1899999,0.6320692300796509,0.06703764945268631,11.343728065490723,7.110595703125,-38.3453369140625,-18.310546875
12.209999900000001,0.7230489253997803,0.1388636976480484,11.8441162109375,6.0882568359375,-51.26953125,-21.6217041015625
12.229999900000001,0.8762778043746948,0.043095629662275314,12.303802490234375,13.3819580078125,-79.833984375,-34.0118408203125
12.2499999,0.9864110946655273,0.3687070608139038,13.002909660339355,18.49365234375,-124.3438720703125,-52.520751953125
12.2699999,0.9145850539207458,1.4293384552001953,13.977349281311035,19.34814453125,-178.9398193359375,-29.449462890625
12.289999900000002,0.5363011956214905,3.0190882682800293,14.518439292907715,27.7557373046875,-280.09033203125,49.8046875
12.309999900000001,-0.014365210197865963,4.793191909790039,14.49210262298584,53.192138671875,-336.8682861328125,114.6392822265625
12.3299999,-0.4644751250743866,5.767632007598877,13.510479927062988,65.643310546875,-318.6798095703125,153.5797119140625
12.3499999,-0.6033388376235962,5.56173038482666,11.834539413452148,51.33056640625,-296.9970703125,176.666259765625
12.3699999,-0.3016694188117981,4.446032524108887,9.064447402954102,86.8988037109375,-304.779052734375,186.767578125
12.389999900000001,0.40940847992897034,3.0406360626220703,6.469132900238037,99.090576171875,-220.1690673828125,183.41064453125
12.4099999,1.2952631711959839,1.6855180263519287,4.3406877517700195,71.3653564453125,-105.5755615234375,202.8045654296875
12.4299999,2.1763293743133545,0.6607996821403503,2.252943754196167,92.0867919921875,-121.917724609375,225.067138671875
12.4499999,3.00711727142334,-0.24181437492370605,1.3670891523361206,94.1009521484375,-66.6046142578125,239.9444580078125
12.469999900000001,3.6296098232269287,-1.0127472877502441,1.3263877630233765,38.665771484375,29.632568359375,237.9608154296875
12.4899999,4.005499362945557,-1.7717092037200928,1.3958195447921753,25.45166015625,12.6495361328125,244.2779541015625
12.5099999,4.223371982574463,-2.5115175247192383,2.382230758666992,36.5447998046875,27.2216796875,253.5552978515625
12.5299999,4.113238334655762,-3.1004912853240967,3.141192674636841,35.2935791015625,59.02099609375,251.312255859375
12.549999900000001,3.7684733867645264,-3.691859006881714,3.708618402481079,33.99658203125,81.756591796875,251.4190673828125
12.569999900000001,3.24414324760437,-4.273650169372559,4.07014274597168,5.31005859375,126.129150390625,260.650634765625
12.5899999,2.470816135406494,-4.663905143737793,4.1611223220825195,-2.044677734375,137.4053955078125,256.8206787109375
12.6099999,1.644816517829895,-5.238513469696045,4.37420654296875,-4.1961669921875,167.29736328125,264.1143798828125
12.629999900000001,0.8355764150619507,-6.145915985107422,4.699818134307861,-13.1378173828125,193.7255859375,266.632080078125
12.649999900000001,0.06224924325942993,-7.534552574157715,4.60165548324585,-10.1470947265625,190.5670166015625,229.4464111328125
12.6699999,-0.7110779285430908,-9.253589630126953,4.503493309020996,2.3651123046875,247.9248046875,174.285888671875
12.6899999,-1.558625340461731,-10.776301383972168,4.266467571258545,11.7340087890625,326.1260986328125,123.6572265625
12.709999900000001,-2.609679937362671,-11.602301597595215,4.422090530395508,36.9720458984375,367.6910400390625,81.6192626953125
12.729999900000001,-3.804386615753174,-11.453861236572266,5.070919036865234,70.0531005859375,366.0888671875,35.430908203125
12.7499999,-4.790797710418701,-11.116278648376465,6.270414352416992,80.413818359375,355.316162109375,7.049560546875
12.7699999,-5.549759387969971,-10.74996566772461,7.687781810760498,70.3582763671875,341.1407470703125,-46.478271484375
12.789999900000002,-6.071695327758789,-10.096348762512207,9.363722801208496,17.8070068359375,298.27880859375,-140.9149169921875
12.809999900000001,-6.31829833984375,-9.296685218811035,10.826580047607422,26.580810546875,206.6650390625,-145.5078125
12.8299999,-6.471527099609375,-7.979874134063721,12.040440559387207,78.277587890625,143.035888671875,-117.98095703125
12.8499999,-6.50025749206543,-6.550535678863525,12.342109680175781,100.7232666015625,97.4578857421875,-104.4158935546875
12.8699999,-6.299144744873047,-5.947196960449219,11.769895553588867,96.8170166015625,75.0885009765625,-112.823486328125
12.889999900000001,-6.028599739074707,-6.157886981964111,10.503362655639648,93.505859375,71.075439453125,-139.556884765625
12.9099999,-5.801150798797607,-6.519411087036133,9.030928611755371,87.3260498046875,72.052001953125,-180.7098388671875
12.9299999,-5.552153587341309,-6.962338447570801,8.248024940490723,66.314697265625,71.2127685546875,-175.872802734375
12.9499999,-5.303156852722168,-7.271190643310547,8.075642585754395,88.6993408203125,26.06201171875,-158.14208984375
12.969999900000001,-5.035006046295166,-7.572859764099121,8.808267593383789,142.4713134765625,-18.3868408203125,-188.873291015625
12.9899999,-4.795586109161377,-7.654263019561768,9.607931137084961,203.67431640625,-60.394287109375,-233.21533203125
13.0099999,-4.733336925506592,-7.137115478515625,10.376470565795898,202.178955078125,-79.2236328125,-233.6578369140625
13.0299999,-4.8051629066467285,-5.566518783569336,9.916783332824707,216.0797119140625,-103.3935546875,-184.051513671875
13.049999900000001,-4.668693542480469,-3.7205893993377686,9.792284965515137,181.15234375,-45.5474853515625,-113.0523681640625
13.069999900000001,-4.211400985717773,-2.322375535964966,9.117119789123535,166.44287109375,-48.2177734375,-90.6219482421875
13.0899999,-3.4165258407592773,-1.6663644313812256,9.222464561462402,182.3272705078125,-73.577880859375,-110.9466552734375
13.1099999,-2.5282769203186035,-1.577778935432434,9.421183586120605,183.319091796875,-93.0023193359375,-116.9281005859375
13.129999900000001,-1.8339585065841675,-1.357512354850769,9.593565940856934,164.61181640625,-99.79248046875,-92.95654296875
13.149999900000001,-1.3670891523361206,-0.8523358106613159,9.327810287475586,132.26318359375,-84.6710205078125,-64.6820068359375
13.1699999,-0.9648633003234863,-0.3974374830722809,9.167398452758789,92.83447265625,-55.8319091796875,-41.2445068359375
13.1899999,-0.5674257874488831,-0.181959331035614,9.026140213012695,76.0040283203125,-58.0291748046875,-43.1365966796875
13.209999900000001,-0.1628057211637497,-0.090979665517807,9.0859956741333,96.466064453125,-77.20947265625,-55.755615234375
13.229999900000001,0.181959331035614,-0.035913024097681046,9.191340446472168,87.799072265625,-65.0634765625,-48.2635498046875
13.2499999,0.3734954595565796,0.35673606395721436,8.937555313110352,74.27978515625,-51.4984130859375,-31.524658203125
13.2699999,0.48602294921875,0.8331822156906128,8.583212852478027,52.520751953125,-29.2816162109375,-18.646240234375
13.289999900000002,0.5985504388809204,1.2258312702178955,8.142680168151855,42.6177978515625,-20.4010009765625,-6.683349609375
13.309999900000001,0.7326257228851318,1.4293384552001953,7.982268333435059,33.599853515625,-8.5601806640625,-10.1470947265625
13.3299999,0.8786720037460327,1.4891934394836426,7.948749542236328,33.599853515625,-2.62451171875,-11.5966796875
13.3499999,1.0055646896362305,1.4724340438842773,8.068459510803223,29.1595458984375,-1.6326904296875,-2.9144287109375
13.3699999,1.0965443849563599,1.4508862495422363,8.221688270568848,16.143798828125,3.0059814453125,5.1727294921875
13.389999900000001,1.1827356815338135,1.3192051649093628,8.468291282653809,0.6103515625,9.0484619140625,6.1492919921875
13.4099999,1.2521674633026123,1.139639973640442,8.734047889709473,-8.758544921875,5.1727294921875,1.2054443359375
13.4299999,1.3120225667953491,0.9433154463768005,8.973467826843262,-1.6326904296875,-1.7547607421875,-3.662109375
13.4499999,1.3311761617660522,0.8379706144332886,9.165003776550293,-1.3427734375,5.3253173828125,-1.64794921875
13.469999900000001,1.290474772453308,0.8762778043746948,9.20091724395752,-7.0343017578125,11.3677978515625,-0.54931640625
13.4899999,1.2425906658172607,0.9696516990661621,9.181763648986816,-7.7972412109375,15.9149169921875,4.180908203125
13.5099999,1.213860273361206,1.015141487121582,9.363722801208496,-12.0697021484375,20.9197998046875,7.5225830078125
13.5299999,1.235408067703247,0.9457096457481384,9.617507934570312,-10.5133056640625,8.819580078125,6.6070556640625
13.549999900000001,1.2689268589019775,0.8331822156906128,9.871294021606445,-4.913330078125,-6.2255859375,-1.190185546875
13.569999900000001,1.3072341680526733,0.706289529800415,10.091560363769531,-7.049560546875,0.1373291015625,-3.387451171875
13.5899999,1.292868971824646,0.7374141216278076,10.067618370056152,-3.90625,4.638671875,-1.9378662109375
13.6099999,1.259350061416626,0.8236053586006165,10.000580787658691,0.457763671875,5.3558349609375,5.4779052734375
13.629999900000001,1.237802267074585,0.8882488012313843,9.962273597717285,-1.3275146484375,4.7454833984375,8.7127685546875
13.649999900000001,1.2330138683319092,0.8762778043746948,9.93593692779541,-1.8768310546875,0.2899169921875,2.5634765625
13.6699999,1.2665326595306396,0.7565677165985107,9.95748519897461,-1.129150390625,-0.1983642578125,-1.8310546875
13.6899999,1.2761094570159912,0.689530074596405,9.945513725280762,-2.5482177734375,-0.0762939453125,-5.31005859375
13.709999900000001,1.259350061416626,0.706289529800415,9.892841339111328,-1.617431640625,-0.3204345703125,-3.3111572265625
13.729999900000001,1.2282254695892334,0.7948749661445618,9.861717224121094,-2.86865234375,1.8463134765625,0.9002685546875
13.7499999,1.194706678390503,0.8882488012313843,9.821015357971191,-2.8839111328125,0.91552734375,2.8228759765625
13.7699999,1.1779472827911377,0.9313444495201111,9.806650161743164,-3.0517578125,-1.8157958984375,1.068115234375
13.789999900000002,1.1851298809051514,0.8810662031173706,9.799467086791992,-3.4942626953125,-2.1514892578125,0.1983642578125
13.809999900000001,1.1803414821624756,0.8451532125473022,9.739612579345703,-2.0904541015625,-2.5482177734375,-1.15966796875
13.8299999,1.1755530834197998,0.8188169598579407,9.674968719482422,-1.2054443359375,0.030517578125,-0.54931640625
13.8499999,1.170764684677124,0.8068459630012512,9.619902610778809,-3.021240234375,2.838134765625,2.6397705078125
13.8699999,1.1659762859344482,0.8188169598579407,9.569623947143555,-3.1890869140625,0.79345703125,3.082275390625
13.889999900000001,1.1755530834197998,0.7948749661445618,9.579200744628906,-2.471923828125,0.3814697265625,2.50244140625
13.9099999,1.1803414821624756,0.7661445140838623,9.591172218322754,-1.2664794921875,1.495361328125,1.8768310546875
13.9299999,1.194706678390503,0.7110779285430908,9.641449928283691,-1.5869140625,2.349853515625,1.4801025390625
13.9499999,1.2042834758758545,0.6631938815116882,9.646238327026367,-0.8392333984375,-0.0457763671875,-0.244140625
13.969999900000001,1.213860273361206,0.6153098344802856,9.694122314453125,-2.5177001953125,-0.1220703125,-1.3275146484375
13.9899999,1.2306196689605713,0.5650315880775452,9.670180320739746,-3.2958984375,-0.3204345703125,-1.7852783203125
14.0099999,1.237802267074585,0.5626373887062073,9.68933391571045,-3.997802734375,0.2899169921875,-2.9144287109375
14.0299999,1.235408067703247,0.6129156351089478,9.62947940826416,-2.044677734375,0.0762939453125,-3.3721923828125
14.049999900000001,1.2282254695892334,0.689530074596405,9.667786598205566,-1.89208984375,4.5623779296875,0.8544921875
14.069999900000001,1.2258312702178955,0.7254431247711182,9.66539192199707,-1.28173828125,3.4637451171875,3.814697265625
14.0899999,1.2306196689605713,0.727837324142456,9.710882186889648,0.030517578125,0.18310546875,0.213623046875
14.1099999,1.2545616626739502,0.6512228846549988,9.758766174316406,-1.40380859375,1.068115234375,-3.875732421875
14.129999900000001,1.259350061416626,0.6392518281936646,9.75637149810791,-0.4119873046875,0.1373291015625,-4.33349609375
14.149999900000001,1.256955862045288,0.6607996821403503,9.746794700622559,0.8697509765625,1.8768310546875,-0.396728515625
14.1699999,1.235408067703247,0.7445967197418213,9.732429504394531,0.213623046875,2.9449462890625,2.593994140625
14.1899999,1.216254472732544,0.8092401623725891,9.742006301879883,-0.9002685546875,2.593994140625,1.9073486328125
14.209999900000001,1.2090718746185303,0.8164227604866028,9.768342971801758,-0.091552734375,0.5035400390625,1.495361328125
14.229999900000001,1.2066776752471924,0.8307880163192749,9.835380554199219,-0.701904296875,0.823974609375,-0.1068115234375
14.2499999,1.2090718746185303,0.8307880163192749,9.849745750427246,2.0599365234375,-1.8310546875,1.2054443359375
14.2699999,1.2018892765045166,0.871489405632019,9.852140426635742,1.4801025390625,-1.3580322265625,3.5247802734375
14.289999900000002,1.2018892765045166,0.9002198576927185,9.806650161743164,0.91552734375,-0.579833984375,4.7760009765625
14.309999900000001,1.213860273361206,0.8786720037460327,9.761159896850586,0.48828125,0.335693359375,6.4849853515625
14.3299999,1.2449848651885986,0.8044517636299133,9.730035781860352,-0.6866455078125,-0.823974609375,4.08935546875
14.3499999,1.2761094570159912,0.7038952708244324,9.713275909423828,-2.01416015625,-1.6021728515625,0.91552734375
14.3699999,1.3024457693099976,0.6631938815116882,9.691728591918945,-0.6561279296875,-2.3040771484375,-1.3885498046875
14.389999900000001,1.3072341680526733,0.6775590777397156,9.674968719482422,-2.532958984375,0.9002685546875,1.434326171875
14.4099999,1.3024457693099976,0.7326257228851318,9.636661529541016,-0.396728515625,-0.335693359375,5.767822265625
14.4299999,1.3096283674240112,0.7445967197418213,9.653421401977539,-1.0223388671875,1.800537109375,4.82177734375
14.4499999,1.3192051649093628,0.7206547260284424,9.660603523254395,0.67138671875,-0.30517578125,0.8392333984375
14.469999900000001,1.3335703611373901,0.6560112833976746,9.68694019317627,0.030517578125,-0.701904296875,-1.0986328125
14.4899999,1.3311761617660522,0.6320692300796509,9.701305389404297,-0.9765625,0.152587890625,-0.152587890625
14.5099999,1.3215993642807007,0.6344634294509888,9.694122314453125,-1.5106201171875,0.335693359375,1.2664794921875
14.5299999,1.2976573705673218,0.6847416758537292,9.677363395690918,-0.0762939453125,-0.4119873046875,0.823974609375
14.549999900000001,1.2880805730819702,0.6847416758537292,9.651026725769043,-0.0152587890625,0.0762939453125,2.50244140625
14.569999900000001,1.2832920551300049,0.6655880808830261,9.612719535827637,-0.885009765625,0.1220703125,1.9989013671875
14.5899999,1.2880805730819702,0.6105214357376099,9.586383819580078,-1.6937255859375,1.251220703125,-0.579833984375
14.6099999,1.2880805730819702,0.5674257874488831,9.564835548400879,-0.213623046875,1.52587890625,-1.8157958984375
14.629999900000001,1.2976573705673218,0.5339069962501526,9.610325813293457,0.1373291015625,2.5634765625,-1.251220703125
14.649999900000001,1.2832920551300049,0.569819986820221,9.655815124511719,-0.885009765625,1.220703125,-1.4190673828125
14.6699999,1.2761094570159912,0.6177040338516235,9.710882186889648,-0.2593994140625,-0.5035400390625,-0.7476806640625
14.6899999,1.2641384601593018,0.6536170840263367,9.742006301879883,0.1678466796875,1.007080078125,2.25830078125
14.709999900000001,1.2665326595306396,0.6416460275650024,9.713275909423828,0.3509521484375,1.556396484375,2.1820068359375
14.729999900000001,1.280897855758667,0.6057330369949341,9.708487510681152,-1.3275146484375,3.8299560546875,-1.251220703125
14.7499999,1.3048399686813354,0.5554547905921936,9.703699111938477,-1.3580322265625,3.35693359375,-3.3416748046875
14.7699999,1.3192051649093628,0.5482721924781799,9.737217903137207,-0.48828125,1.40380859375,-2.166748046875
14.789999900000002,1.3335703611373901,0.5602431893348694,9.794678688049316,0.42724609375,1.4801025390625,0.5645751953125
14.809999900000001,1.3239935636520386,0.5913678407669067,9.801861763000488,1.28173828125,0,0.1983642578125
14.8299999,1.3192051649093628,0.5985504388809204,9.782708168029785,1.983642578125,0.457763671875,-1.2054443359375
14.8499999,1.3096283674240112,0.5913678407669067,9.706093788146973,3.11279296875,2.1514892578125,-2.227783203125
14.8699999,1.3072341680526733,0.5841852426528931,9.672574996948242,1.64794921875,3.6468505859375,-1.983642578125
14.889999900000001,1.3024457693099976,0.6153098344802856,9.658209800720215,0.9002685546875,2.471923828125,-3.1280517578125
14.9099999,1.2952631711959839,0.6631938815116882,9.68694019317627,3.4942626953125,1.007080078125,-1.9989013671875
14.9299999,1.2856862545013428,0.7254431247711182,9.746794700622559,2.1209716796875,2.50244140625,0.1373291015625
14.9499999,1.2761094570159912,0.7757213711738586,9.785101890563965,1.220703125,2.2430419921875,-0.091552734375
14.969999900000001,1.2689268589019775,0.8020575642585754,9.821015357971191,-0.152587890625,1.6632080078125,-0.91552734375
14.9899999,1.2617442607879639,0.8092401623725891,9.816226959228516,1.8768310546875,-0.1983642578125,-0.9002685546875
15.0099999,1.2713210582733154,0.7781155705451965,9.813833236694336,1.0833740234375,1.9073486328125,0.0152587890625
15.0299999,1.2689268589019775,0.7805097699165344,9.787496566772461,0.0457763671875,1.9683837890625,-1.3580322265625
15.049999900000001,1.2761094570159912,0.7637503147125244,9.773131370544434,-0.0762939453125,1.5869140625,-1.678466796875
15.069999900000001,1.2761094570159912,0.7709329724311829,9.782708168029785,0.1220703125,1.220703125,-0.5645751953125
15.0899999,1.2737152576446533,0.7852981686592102,9.768342971801758,0.885009765625,0,-0.396728515625
15.1099999,1.2713210582733154,0.7948749661445618,9.775525093078613,-0.1068115234375,1.2359619140625,-0.30517578125
15.129999900000001,1.2737152576446533,0.7661445140838623,9.746794700622559,0.5035400390625,0.48828125,0.1983642578125
15.149999900000001,1.278503656387329,0.7326257228851318,9.739612579345703,-0.48828125,0.5340576171875,-0.762939453125
15.1699999,1.2737152576446533,0.7254431247711182,9.706093788146973,-0.6866455078125,0.3814697265625,-3.4637451171875
15.1899999,1.2665326595306396,0.7350199222564697,9.667786598205566,-0.244140625,0.4425048828125,-1.46484375
15.209999900000001,1.2761094570159912,0.7230489253997803,9.667786598205566,-1.678466796875,2.532958984375,1.8768310546875
15.229999900000001,1.3072341680526733,0.6703764796257019,9.72285270690918,-3.84521484375,1.2664794921875,-1.983642578125
15.2499999,1.357512354850769,0.6057330369949341,9.81143856048584,-3.265380859375,-4.3792724609375,-9.3841552734375
15.2699999,1.4413094520568848,0.4812345504760742,10.046070098876953,-13.1683349609375,-6.8206787109375,-9.9945068359375
15.289999900000002,1.460463047027588,0.5746083855628967,10.256759643554688,-47.7294921875,-24.4140625,-11.4898681640625
15.309999900000001,1.50355863571167,0.6488286852836609,10.532093048095703,-73.79150390625,-41.015625,-3.265380859375
15.3299999,1.5897499322891235,0.7086837291717529,10.94150161743164,-63.0340576171875,-46.600341796875,0.579833984375
15.3499999,1.766920804977417,0.5626373887062073,11.54244613647461,-46.9512939453125,-63.4002685546875,-8.4228515625
15.3699999,1.9632453918457031,0.3663128614425659,11.963826179504395,-15.5181884765625,-104.6295166015625,-25.0701904296875
15.389999900000001,2.231395959854126,0.36152446269989014,12.72757625579834,0.9002685546875,-110.0006103515625,-28.3355712890625
15.4099999,2.2697031497955322,1.0055646896362305,13.663708686828613,-6.7901611328125,-142.7154541015625,-14.0533447265625
15.4299999,2.1140801906585693,2.0254945755004883,14.15212631225586,38.4521484375,-246.8109130859375,33.4625244140625
15.4499999,1.7477672100067139,3.490746021270752,14.808137893676758,49.74365234375,-294.0521240234375,77.4078369140625
15.469999900000001,1.0893617868423462,4.862623691558838,14.987702369689941,66.253662109375,-300.4150390625,118.5455322265625
15.4899999,0.27054479718208313,5.710171222686768,13.802573204040527,122.74169921875,-367.9046630859375,184.38720703125
15.5099999,-0.2585737705230713,5.485116004943848,11.382035255432129,165.191650390625,-363.5406494140625,249.114990234375
15.5299999,-0.3974374830722809,4.4939165115356445,7.8960771560668945,162.872314453125,-207.183837890625,246.9329833984375
15.549999900000001,0.06464344263076782,2.698265314102173,4.216189384460449,126.953125,-79.4219970703125,229.156494140625
15.569999900000001,0.8954314589500427,1.0558429956436157,1.0558429956436157,131.256103515625,-61.1114501953125,252.1209716796875
15.5899999,1.7717092037200928,-0.22266076505184174,0.2825157940387726,114.166259765625,24.84130859375,281.5704345703125
15.6099999,2.3798365592956543,-1.1300631761550903,0.3256114423274994,107.757568359375,40.8172607421875,309.1278076171875
15.629999900000001,2.559401512145996,-1.941697597503662,0.9792284965515137,88.8519287109375,21.1029052734375,314.5599365234375
15.649999900000001,2.4181437492370605,-2.8419175148010254,1.8626888990402222,39.7186279296875,93.81103515625,330.38330078125
15.6699999,1.886630892753601,-3.7612907886505127,2.274491548538208,4.33349609375,145.1873779296875,341.6900634765625
15.6899999,1.1324573755264282,-4.702212333679199,2.9233202934265137,11.0931396484375,163.2232666015625,340.728759765625
15.709999900000001,0.23942017555236816,-5.518634796142578,3.713406801223755,31.3262939453125,177.30712890625,322.8759765625
15.729999900000001,-0.7158663272857666,-6.485892295837402,4.2951979637146,36.285400390625,183.9447021484375,313.323974609375
15.7499999,-1.7501614093780518,-7.390900611877441,4.618414878845215,24.5361328125,230.621337890625,297.637939453125
15.7699999,-2.8347349166870117,-8.252813339233398,4.867412090301514,6.7291259765625,293.701171875,274.4293212890625
15.789999900000002,-3.9408559799194336,-9.090784072875977,4.867412090301514,48.5992431640625,308.7158203125,244.3695068359375
15.809999900000001,-5.020640850067139,-9.95748519897461,5.085284233093262,96.3287353515625,341.7510986328125,200.98876953125
15.8299999,-6.102819919586182,-10.24239444732666,5.566518783569336,109.283447265625,393.4478759765625,127.349853515625
15.8499999,-7.189787864685059,-9.746794700622559,6.258443355560303,80.7647705078125,399.3377685546875,67.108154296875
15.869999900000002,-8.097189903259277,-9.035717010498047,6.821080684661865,87.6922607421875,345.7489013671875,76.263427734375
15.889999900000001,-8.734047889709473,-8.78432559967041,7.2113356590271,55.4351806640625,321.3348388671875,63.873291015625
15.9099999,-9.131484985351562,-9.550470352172852,7.201758861541748,0.79345703125,332.51953125,-43.5791015625
15.9299999,-9.41639518737793,-11.0300874710083,7.206547260284424,-1.2359619140625,342.559814453125,-179.9163818359375
15.9499999,-9.746794700622559,-12.107478141784668,7.738059997558594,49.6063232421875,282.989501953125,-243.59130859375
15.969999900000001,-10.280701637268066,-11.650185585021973,8.537723541259766,107.696533203125,175.262451171875,-250.8544921875
15.9899999,-10.6709566116333,-10.067618370056152,9.21288776397705,110.77880859375,102.386474609375,-240.3411865234375
16.0099999,-10.797849655151367,-8.406042098999023,9.078812599182129,93.8720703125,84.2437744140625,-217.3919677734375
16.0299999,-10.649409294128418,-6.694188117980957,8.135497093200684,85.2508544921875,71.6400146484375,-241.912841796875
16.0499999,-10.007762908935547,-6.270414352416992,7.462726593017578,48.4619140625,75.68359375,-218.8568115234375
16.0699999,-9.150638580322266,-6.598419666290283,7.010222434997559,76.5533447265625,13.4124755859375,-206.6497802734375
16.089999900000002,-8.221688270568848,-7.47230339050293,7.180211067199707,123.626708984375,-40.34423828125,-247.74169921875
16.109999900000002,-7.347805023193359,-8.401253700256348,7.682993412017822,167.66357421875,-61.1572265625,-276.1993408203125
16.1299999,-6.655880928039551,-8.927978515625,8.197746276855469,193.9239501953125,-72.235107421875,-251.1138916015625
16.1499999,-6.090848922729492,-8.762778282165527,8.446743965148926,238.677978515625,-106.231689453125,-224.0753173828125
16.1699999,-5.501875400543213,-8.034940719604492,8.4108304977417,288.055419921875,-114.5172119140625,-220.39794921875
16.1899999,-4.8267107009887695,-7.022193431854248,7.979874134063721,314.4683837890625,-84.8846435546875,-201.2786865234375
16.2099999,-4.017470359802246,-5.65031623840332,7.1251444816589355,312.31689453125,-70.9381103515625,-159.332275390625
16.2299999,-3.0861260890960693,-4.019864559173584,7.043741226196289,217.8497314453125,-43.670654296875,-112.6556396484375
16.249999900000002,-2.1571757793426514,-2.4875755310058594,7.4316020011901855,191.375732421875,-79.437255859375,-75.9124755859375
16.269999900000002,-1.3048399686813354,-1.357512354850769,8.087613105773926,259.857177734375,-130.279541015625,-51.055908203125
16.2899999,-0.6153098344802856,-0.9409212470054626,8.60236644744873,281.4483642578125,-96.832275390625,-28.7017822265625
16.3099999,-0.090979665517807,-1.0103530883789062,8.382100105285645,238.70849609375,-41.3665771484375,-23.3612060546875
16.3299999,0.363918662071228,-1.2449848651885986,7.850587368011475,156.6314697265625,-29.8919677734375,-26.30615234375
16.3499999,0.7781155705451965,-1.316810965538025,7.4555439949035645,112.701416015625,-40.008544921875,-22.1405029296875
16.3699999,1.0414776802062988,-0.9528923034667969,7.216124057769775,112.091064453125,-44.6319580078125,-15.533447265625
16.3899999,1.192312479019165,-0.3256114423274994,7.003039836883545,107.5592041015625,-22.9339599609375,-0.732421875
16.4099999,1.1899182796478271,0.43335050344467163,6.689399719238281,66.89453125,12.3291015625,7.38525390625
16.429999900000002,1.192312479019165,0.9720458984375,6.411672115325928,35.308837890625,30.792236328125,16.876220703125
16.4499999,1.2330138683319092,1.1779472827911377,6.574477672576904,6.77490234375,46.630859375,18.73779296875
16.4699999,1.3646949529647827,0.9840168952941895,7.072471618652344,1.6021728515625,34.60693359375,11.2457275390625
16.4899999,1.4867992401123047,0.6536170840263367,7.826645374298096,-7.8277587890625,21.392822265625,-6.6375732421875
16.5099999,1.5825673341751099,0.33758243918418884,8.540117263793945,-16.8609619140625,24.444580078125,-13.2598876953125
16.5299999,1.5705963373184204,0.28730419278144836,9.172186851501465,-20.355224609375,33.905029296875,-9.6893310546875
16.5499999,1.5155296325683594,0.3926490843296051,9.576807022094727,-10.2996826171875,25.8636474609375,-4.364013671875
16.5699999,1.4245500564575195,0.6153098344802856,9.99100399017334,-5.67626953125,17.6849365234375,-5.2032470703125
16.589999900000002,1.359906554222107,0.706289529800415,10.14902114868164,-6.683349609375,11.9476318359375,-4.425048828125
16.609999900000002,1.3048399686813354,0.7876923680305481,10.302249908447266,-10.9405517578125,16.1285400390625,-6.439208984375
16.6299999,1.2497732639312744,0.8140285611152649,10.433931350708008,-18.37158203125,19.4091796875,-7.8887939453125
16.6499999,1.2114660739898682,0.8595184087753296,10.529699325561523,-3.7078857421875,3.509521484375,-4.7760009765625
16.6699999,1.1635819673538208,0.9481038451194763,10.773907661437988,-2.3040771484375,0.18310546875,-4.5318603515625
16.6899999,1.1300631761550903,1.0271124839782715,10.778696060180664,0.823974609375,-4.058837890625,-1.15966796875
16.7099999,1.0989385843276978,1.0965443849563599,10.778696060180664,-0.91552734375,-1.1444091796875,1.2359619140625
16.7299999,1.0773907899856567,1.1013327836990356,10.532093048095703,1.6021728515625,-3.6468505859375,3.11279296875
16.749999900000002,1.072602391242981,1.0821791887283325,10.393229484558105,1.8768310546875,-1.312255859375,3.173828125
16.769999900000002,1.0749965906143188,0.9816226959228516,10.163386344909668,0.396728515625,-3.4027099609375,2.9144287109375
16.7899999,1.0869675874710083,0.8858546018600464,9.986215591430664,2.86865234375,-7.7667236328125,1.739501953125
16.8099999,1.0845733880996704,0.7948749661445618,9.8784761428833,-2.960205078125,-1.6632080078125,-1.4801025390625
16.8299999,1.094150185585022,0.6847416758537292,9.658209800720215,3.662109375,-6.927490234375,0.732421875
16.8499999,1.072602391242981,0.6607996821403503,9.550470352172852,-0.9307861328125,-1.9989013671875,-2.74658203125
16.8699999,1.0606313943862915,0.6105214357376099,9.354146003723145,0,-0.213623046875,-2.3040771484375
16.8899999,1.0462661981582642,0.6009446382522583,9.272743225097656,-1.4495849609375,3.4332275390625,-1.77001953125
16.9099999,1.0438719987869263,0.5746083855628967,9.23443603515625,-2.0904541015625,3.204345703125,-3.6163330078125
16.929999900000002,1.0534487962722778,0.5626373887062073,9.294290542602539,-3.60107421875,0.9002685546875,-6.7901611328125
16.9499999,1.0654197931289673,0.5793967843055725,9.38048267364502,-1.8768310546875,-0.2593994140625,-7.7362060546875
16.9699999,1.072602391242981,0.6344634294509888,9.502586364746094,-3.4637451171875,2.5177001953125,-5.6915283203125
16.9899999,1.0773907899856567,0.7134721279144287,9.586383819580078,-2.1209716796875,1.220703125,-3.8604736328125
17.0099999,1.0821791887283325,0.7589619159698486,9.682151794433594,-2.13623046875,0.946044921875,-2.9754638671875
17.0299999,1.0821791887283325,0.7733271718025208,9.679757118225098,0.79345703125,-1.28173828125,-4.180908203125
17.0499999,1.0821791887283325,0.7469909191131592,9.710882186889648,-1.983642578125,4.150390625,-3.8604736328125
17.0699999,1.0797849893569946,0.7158663272857666,9.68694019317627,-1.6632080078125,4.547119140625,-3.84521484375
17.089999900000002,1.0773907899856567,0.7015010714530945,9.715670585632324,-1.190185546875,2.6702880859375,-3.8909912109375
17.109999900000002,1.072602391242981,0.7086837291717529,9.744400978088379,-0.5340576171875,1.495361328125,-3.997802734375
17.1299999,1.0654197931289673,0.7374141216278076,9.787496566772461,-1.129150390625,3.9825439453125,-2.3193359375
17.1499999,1.0558429956436157,0.768538773059845,9.801861763000488,-0.9307861328125,5.5999755859375,-0.6561279296875
17.1699999,1.0582371950149536,0.7613561153411865,9.847352027893066,-0.9918212890625,5.462646484375,0.6103515625
17.1899999,1.0749965906143188,0.7110779285430908,9.890447616577148,0.2593994140625,2.3345947265625,-1.6326904296875
17.2099999,1.091755986213684,0.6272808313369751,9.90241813659668,1.007080078125,-0.213623046875,-5.06591796875
17.2299999,1.1109095811843872,0.5434837937355042,9.86650562286377,0.42724609375,1.6021728515625,-6.683349609375
17.249999900000002,1.0989385843276978,0.5434837937355042,9.804255485534668,-1.5106201171875,5.462646484375,-8.3465576171875
17.269999900000002,1.0893617868423462,0.5841852426528931,9.746794700622559,0.335693359375,3.631591796875,-5.92041015625
17.2899999,1.0654197931289673,0.6416460275650024,9.68694019317627,-0.5645751953125,1.1444091796875,-4.4403076171875
17.3099999,1.0797849893569946,0.586579442024231,9.66299819946289,-0.946044921875,2.349853515625,-5.6610107421875
17.3299999,1.091755986213684,0.49559974670410156,9.672574996948242,-5.950927734375,7.8887939453125,-15.899658203125
17.3499999,1.1228805780410767,0.3471592366695404,9.655815124511719,-0.54931640625,4.119873046875,-21.6217041015625
17.3699999,1.139639973640442,0.26096799969673157,9.847352027893066,-3.11279296875,6.622314453125,-22.7813720703125
17.3899999,1.161187767982483,0.1412578970193863,9.967061996459961,1.52587890625,-1.9073486328125,-28.0914306640625
17.409999900000003,1.2306196689605713,-0.06703764945268631,10.465055465698242,-2.9144287109375,-1.1749267578125,-41.1376953125
17.429999900000002,1.2976573705673218,-0.2298433631658554,10.891223907470703,-1.0833740234375,-20.660400390625,-67.9168701171875
17.4499999,1.3311761617660522,-0.19632454216480255,11.343728065490723,12.8936767578125,-45.7000732421875,-80.6732177734375
17.4699999,1.280897855758667,0.2777273952960968,11.54244613647461,18.6614990234375,-53.2379150390625,-73.394775390625
17.4899999,1.1635819673538208,1.2617442607879639,11.686098098754883,11.8408203125,-56.09130859375,-53.1158447265625
17.5099999,1.0630255937576294,2.27209734916687,11.707646369934082,12.4359130859375,-83.3587646484375,-23.3306884765625
17.5299999,1.0223240852355957,3.3494882583618164,11.793837547302246,18.24951171875,-128.7841796875,-4.0435791015625
17.5499999,1.0845733880996704,4.168305397033691,11.987768173217773,0.91552734375,-158.905029296875,22.705078125
17.5699999,1.1037269830703735,4.752490520477295,11.959037780761719,-20.0958251953125,-197.5250244140625,67.0318603515625
17.589999900000002,1.1324573755264282,5.128379821777344,11.355698585510254,-17.1051025390625,-246.15478515625,110.5499267578125
17.609999900000002,1.1276689767837524,5.03021764755249,10.20887565612793,-25.6195068359375,-232.97119140625,140.8538818359375
17.6299999,1.2641384601593018,4.455609321594238,8.489839553833008,-9.674072265625,-174.8809814453125,160.9954833984375
17.6499999,1.5059528350830078,3.550601005554199,6.3973069190979,-7.4920654296875,-124.0234375,164.1845703125
17.6699999,1.9345149993896484,2.5067291259765625,4.6734819412231445,1.678466796875,-58.6395263671875,180.6488037109375
17.6899999,2.3127987384796143,1.8171991109848022,3.869029998779297,-33.14208984375,-1.1749267578125,202.0416259765625
17.7099999,2.6431987285614014,1.1827356815338135,3.971980571746826,-31.0516357421875,-14.4195556640625,234.100341796875
17.7299999,2.832340717315674,0.5674257874488831,4.912901878356934,2.99072265625,-33.14208984375,256.16455078125
17.749999900000002,2.873042106628418,-0.2322375625371933,5.817910194396973,27.4658203125,-31.1431884765625,245.4071044921875
17.769999900000002,2.868253707885742,-1.4269442558288574,6.471527099609375,16.7999267578125,9.124755859375,242.12646484375
17.7899999,2.7509377002716064,-2.5977089405059814,6.6127848625183105,-0.0152587890625,32.928466796875,237.060546875
17.8099999,2.6001031398773193,-3.6822822093963623,6.399701118469238,4.45556640625,32.77587890625,231.048583984375
17.8299999,2.451662540435791,-4.599261283874512,6.495469093322754,5.9051513671875,59.906005859375,219.512939453125
17.8499999,2.205059766769409,-5.233725070953369,6.256049156188965,18.6767578125,62.9119873046875,199.8443603515625
17.8699999,1.9057846069335938,-5.693411827087402,6.100425720214844,44.37255859375,91.1712646484375,182.525634765625
17.8899999,1.4676456451416016,-6.00226354598999,5.896918773651123,39.6881103515625,151.641845703125,177.3681640625
17.909999900000003,0.9050082564353943,-6.2201361656188965,5.377377033233643,71.2738037109375,173.76708984375,160.1409912109375
17.929999900000002,0.31364041566848755,-6.562506675720215,5.410895824432373,75.7293701171875,233.856201171875,136.962890625
17.9499999,-0.395043283700943,-6.912060260772705,5.25527286529541,81.8634033203125,252.50244140625,93.3685302734375
17.9699999,-1.1085153818130493,-7.2137298583984375,5.676652431488037,87.9364013671875,280.7769775390625,44.4183349609375
17.9899999,-1.9369091987609863,-7.094019412994385,6.643909931182861,23.681640625,301.2237548828125,10.2996826171875
18.0099999,-2.8227639198303223,-6.631938934326172,7.390900611877441,5.7373046875,233.734130859375,6.134033203125
18.0299999,-3.73016619682312,-5.949591159820557,8.267178535461426,-1.77001953125,223.358154296875,10.711669921875
18.0499999,-4.611232280731201,-5.5545477867126465,8.389283180236816,-21.1639404296875,250.9613037109375,2.9449462890625
18.0699999,-5.494692802429199,-5.758055210113525,8.075642585754395,-33.0352783203125,269.6075439453125,-21.4385986328125
18.089999900000002,-6.1530985832214355,-6.665457725524902,8.47786808013916,-63.0645751953125,298.9044189453125,-60.577392578125
18.109999900000002,-6.789956092834473,-7.371747016906738,9.160215377807617,-45.806884765625,229.1107177734375,-117.767333984375
18.1299999,-7.273584842681885,-7.450755596160889,10.481815338134766,0.42724609375,148.8037109375,-136.993408203125
18.1499999,-7.546523571014404,-6.955155849456787,11.432312965393066,4.3182373046875,113.0523681640625,-95.0164794921875
18.1699999,-7.587224960327148,-6.222530364990234,12.033257484436035,-14.007568359375,93.26171875,-73.699951171875
18.1899999,-7.218518257141113,-6.466738700866699,12.030863761901855,16.6015625,47.4395751953125,-99.79248046875
18.2099999,-6.636727333068848,-7.714118003845215,11.824962615966797,77.5909423828125,-12.8173828125,-165.8935546875
18.2299999,-6.110002517700195,-9.296685218811035,11.645397186279297,106.0333251953125,-40.1153564453125,-239.8529052734375
18.249999900000002,-5.9304375648498535,-9.983820915222168,11.080365180969238,124.0081787109375,-72.4029541015625,-270.0347900390625
18.269999900000002,-6.026205539703369,-9.607931137084961,10.654197692871094,120.66650390625,-88.6077880859375,-238.7847900390625
18.2899999,-6.253654956817627,-8.17380428314209,10.086771965026855,145.93505859375,-105.28564453125,-208.55712890625
18.3099999,-6.251260757446289,-6.471527099609375,9.440337181091309,181.4117431640625,-106.201171875,-200.8514404296875
18.3299999,-5.995080947875977,-4.733336925506592,8.78193187713623,177.91748046875,-85.6475830078125,-193.2525634765625
18.3499999,-5.372588634490967,-3.3303346633911133,7.922413349151611,158.26416015625,-76.2939453125,-150.7415771484375
18.3699999,-4.5154643058776855,-2.0638017654418945,7.682993412017822,103.1646728515625,-53.89404296875,-107.84912109375
18.3899999,-3.4811692237854004,-1.2018892765045166,8.063671112060547,80.8258056640625,-59.7076416015625,-91.2017822265625
18.409999900000003,-2.473210334777832,-1.070208191871643,8.904036521911621,133.1787109375,-94.818115234375,-75.6683349609375
18.429999900000002,-1.6424223184585571,-1.290474772453308,9.306262016296387,205.413818359375,-115.1885986328125,-72.08251953125
18.4499999,-0.9481038451194763,-1.8626888990402222,9.579200744628906,173.4466552734375,-55.4962158203125,-65.0177001953125
18.4699999,-0.5123591423034668,-2.121262788772583,9.327810287475586,108.856201171875,-31.18896484375,-69.244384765625
18.4899999,-0.15322890877723694,-1.946485996246338,9.059659004211426,128.814697265625,-73.883056640625,-63.5528564453125
18.5099999,0.043095629662275314,-1.2090718746185303,9.29189682006836,123.931884765625,-78.094482421875,-37.8570556640625
18.5299999,0.10055647045373917,-0.20111294090747833,9.167398452758789,133.4381103515625,-82.489013671875,-4.3182373046875
18.5499999,0.14365209639072418,0.6129156351089478,8.978256225585938,112.3809814453125,-69.2138671875,22.1405029296875
18.5699999,0.2513911724090576,1.0295066833496094,8.571242332458496,75.8209228515625,-55.633544921875,26.397705078125
18.589999900000002,0.47165772318840027,1.0558429956436157,8.118738174438477,62.7593994140625,-58.65478515625,20.294189453125
18.609999900000002,0.7757213711738586,0.7972691655158997,7.769184589385986,47.30224609375,-49.7283935546875,24.90234375
18.6299999,1.0534487962722778,0.5506663918495178,7.307103633880615,39.3218994140625,-31.524658203125,27.801513671875
18.6499999,1.290474772453308,0.395043283700943,6.947973251342773,27.099609375,1.0223388671875,23.651123046875
18.6699999,1.4652514457702637,0.33279404044151306,6.809109687805176,5.4473876953125,24.1851806640625,23.6968994140625
18.6899999,1.6328455209732056,0.23702596127986908,6.995857238769531,-2.3345947265625,19.3939208984375,27.9541015625
18.7099999,1.7860745191574097,0.043095629662275314,7.493851184844971,-9.4451904296875,12.9241943359375,21.8048095703125
18.7299999,1.941697597503662,-0.22744916379451752,8.078036308288574,-8.7432861328125,15.6402587890625,0.91552734375
18.749999900000002,2.006340980529785,-0.35913026332855225,8.667010307312012,-14.2364501953125,28.01513671875,-15.19775390625
18.769999900000002,1.9847931861877441,-0.19153612852096558,8.899248123168945,-1.46484375,22.186279296875,-9.765625
18.7899999,1.8722656965255737,0.2513911724090576,9.265560150146484,-8.8653564453125,33.966064453125,6.2103271484375
18.8099999,1.7477672100067139,0.6967126727104187,9.50737476348877,-13.73291015625,33.4625244140625,14.9993896484375
18.8299999,1.6639702320098877,0.9385270476341248,9.799467086791992,-3.997802734375,17.2882080078125,11.9781494140625
18.8499999,1.647210717201233,0.8978256583213806,10.204087257385254,-5.7220458984375,14.678955078125,4.364013671875
18.8699999,1.6711528301239014,0.6823474764823914,10.448296546936035,-1.434326171875,7.6751708984375,1.4801025390625
18.8899999,1.702277421951294,0.4429273009300232,10.594342231750488,0.48828125,3.96728515625,-1.6937255859375
18.909999900000003,1.7046716213226318,0.3064578175544739,10.575188636779785,-0.5340576171875,1.8310546875,-7.110595703125
18.929999900000002,1.6687586307525635,0.28730419278144836,10.431536674499512,-1.617431640625,2.5787353515625,-7.537841796875
18.9499999,1.5969325304031372,0.4118026793003082,10.261548042297363,-0.2899169921875,3.84521484375,-5.2032470703125
18.9699999,1.5059528350830078,0.6057330369949341,10.141838073730469,-2.3193359375,4.852294921875,-1.953125
18.9899999,1.4293384552001953,0.7757213711738586,10.070012092590332,-0.7476806640625,0.18310546875,0.7171630859375
19.0099999,1.3742717504501343,0.8595184087753296,10.04846477508545,-0.0152587890625,-3.0517578125,2.716064453125
19.0299999,1.3527239561080933,0.8403648138046265,10.002974510192871,-0.6103515625,-3.692626953125,1.9989013671875
19.0499999,1.3455413579940796,0.7254431247711182,9.892841339111328,-2.227783203125,-2.01416015625,1.89208984375
19.0699999,1.3694833517074585,0.569819986820221,9.782708168029785,-2.5482177734375,0.274658203125,0.3814697265625
19.089999900000002,1.3862427473068237,0.4668693244457245,9.6989107131958,-3.265380859375,0.1983642578125,-4.1046142578125
19.109999900000002,1.414973258972168,0.4165911078453064,9.622296333312988,2.777099609375,-2.8839111328125,-2.6397705078125
19.1299999,1.434126853942871,0.4213795065879822,9.603142738342285,1.77001953125,0.3204345703125,0.2593994140625
19.1499999,1.4437036514282227,0.47644615173339844,9.555258750915527,0.06103515625,1.15966796875,-1.739501953125
19.1699999,1.4628572463989258,0.4908113479614258,9.557653427124023,-0.579833984375,1.922607421875,-2.166748046875
19.1899999,1.4891934394836426,0.4572925269603729,9.57441234588623,1.15966796875,0.030517578125,-2.2125244140625
19.2099999,1.5059528350830078,0.43335050344467163,9.600749015808105,0.6561279296875,-2.13623046875,-5.9814453125
19.2299999,1.4987702369689941,0.4405331015586853,9.605537414550781,-1.617431640625,-0.4119873046875,-7.9193115234375
19.249999900000002,1.4676456451416016,0.4908113479614258,9.5624418258667,-2.2430419921875,1.007080078125,-4.058837890625
19.269999900000002,1.4173674583435059,0.5841852426528931,9.50737476348877,-2.777099609375,3.1890869140625,0.8544921875
19.2899999,1.381454348564148,0.6320692300796509,9.481039047241211,-3.021240234375,3.9520263671875,1.5716552734375
19.3099999,1.3694833517074585,0.5961562395095825,9.493009567260742,-2.3345947265625,3.9520263671875,0.7171630859375
19.3299999,1.3862427473068237,0.5171475410461426,9.524134635925293,-1.190185546875,2.9754638671875,-2.3040771484375
19.3499999,1.4317326545715332,0.3926490843296051,9.653421401977539,-4.0435791015625,6.103515625,-3.4942626953125
19.3699999,1.460463047027588,0.35434186458587646,9.708487510681152,-1.2359619140625,1.5869140625,-6.378173828125
19.3899999,1.482010841369629,0.395043283700943,9.825803756713867,0.396728515625,1.7547607421875,-6.0272216796875
19.409999900000003,1.4772224426269531,0.49559974670410156,9.86889934539795,0.701904296875,2.5177001953125,-1.8463134765625
19.429999900000002,1.460463047027588,0.6272808313369751,9.86650562286377,2.3345947265625,0.6866455078125,0.7476806640625
19.4499999,1.4508862495422363,0.6991068720817566,9.856928825378418,-1.251220703125,1.89208984375,0.823974609375
19.4699999,1.4437036514282227,0.7038952708244324,9.77791976928711,-0.79345703125,0.5950927734375,-0.8544921875
19.4899999,1.4484920501708984,0.646434485912323,9.72285270690918,0.1983642578125,2.105712890625,-1.312255859375
19.5099999,1.4413094520568848,0.5889736413955688,9.667786598205566,-1.220703125,4.180908203125,-2.0904541015625
19.5299999,1.434126853942871,0.5363011956214905,9.634267807006836,-0.030517578125,3.570556640625,-2.6397705078125
19.5499999,1.4077905416488647,0.5291185975074768,9.617507934570312,-0.0152587890625,3.35693359375,-2.7008056640625
19.5699999,1.4053963422775269,0.47884035110473633,9.605537414550781,1.1444091796875,4.1046142578125,-1.2969970703125
19.589999900000002,1.3838485479354858,0.47644615173339844,9.639056205749512,-1.9378662109375,7.904052734375,-4.5013427734375
19.609999900000002,1.400607943534851,0.3878606855869293,9.648633003234863,2.166748046875,5.401611328125,-6.0882568359375
19.6299999,1.4053963422775269,0.3232172429561615,9.703699111938477,1.617431640625,7.3089599609375,-8.60595703125
19.6499999,1.414973258972168,0.2968810200691223,9.773131370544434,3.72314453125,7.7362060546875,-13.427734375
19.6699999,1.403002142906189,0.3447650372982025,9.909601211547852,0.91552734375,8.1024169921875,-14.6026611328125
19.6899999,1.3766659498214722,0.4692635238170624,10.022128105163574,7.0953369140625,-1.4801025390625,-10.43701171875
19.7099999,1.3479355573654175,0.6344634294509888,10.15141487121582,5.950927734375,-5.3863525390625,-8.60595703125
19.7299999,1.335964560508728,0.7350199222564697,10.225635528564453,-1.28173828125,-6.0882568359375,-8.8043212890625
19.749999900000002,1.357512354850769,0.7733271718025208,10.244789123535156,-1.8310546875,-9.735107421875,-11.444091796875
19.769999900000002,1.403002142906189,0.7469909191131592,10.29746150970459,-0.5035400390625,-11.627197265625,-14.0380859375
19.7899999,1.4460978507995605,0.7565677165985107,10.311826705932617,3.6163330078125,-18.6309814453125,-14.46533203125
19.8099999,1.4891934394836426,0.7996633648872375,10.342951774597168,5.523681640625,-22.64404296875,-13.0615234375
19.8299999,1.5155296325683594,0.9193734526634216,10.319009780883789,5.6915283203125,-25.81787109375,-9.735107421875
19.8499999,1.5394717454910278,1.0797849893569946,10.251971244812012,3.631591796875,-32.958984375,-5.584716796875
19.8699999,1.580173134803772,1.2880805730819702,10.247182846069336,-0.91552734375,-37.017822265625,1.3275146484375
19.8899999,1.6519991159439087,1.434126853942871,10.24239444732666,1.739501953125,-46.478271484375,10.6201171875
19.909999900000003,1.7310078144073486,1.7310078144073486,10.426748275756836,-0.30517578125,-59.0972900390625,14.1754150390625
19.929999900000002,1.7836803197860718,2.0614075660705566,10.553641319274902,-4.486083984375,-81.6192626953125,30.2886962890625
19.9499999,1.8291701078414917,2.5234885215759277,10.81700325012207,-10.101318359375,-102.264404296875,59.26513671875
19.9699999,1.800439715385437,3.028665065765381,10.934319496154785,-27.1148681640625,-130.096435546875,86.669921875
19.9899999,1.7525556087493896,3.28963303565979,10.283096313476562,-9.8114013671875,-165.4815673828125,151.824951171875
20.0099999,1.7980455160140991,3.162740468978882,9.943120002746582,-30.1361083984375,-132.4005126953125,150.604248046875
20.0299999,1.9129672050476074,2.631227731704712,9.160215377807617,-31.67724609375,-158.4014892578125,168.9910888671875
20.0499999,2.0901381969451904,1.965639591217041,8.197746276855469,4.5928955078125,-184.5703125,206.5582275390625
20.0699999,2.2649147510528564,1.3335703611373901,7.084442615509033,-9.1552734375,-121.4599609375,211.090087890625
20.089999900000002,2.387019157409668,0.6607996821403503,6.016628742218018,-62.255859375,-62.01171875,213.5009765625
20.109999900000002,2.4875755310058594,-0.1364694982767105,4.881777286529541,-43.3197021484375,-77.7435302734375,244.354248046875
20.1299999,2.5713725090026855,-1.048660397529602,4.4292731285095215,-24.200439453125,-45.83740234375,265.2435302734375
20.1499999,2.5474305152893066,-1.9943699836730957,4.345476150512695,-43.365478515625,5.7830810546875,250.396728515625
20.1699999,2.5450363159179688,-3.2537200450897217,4.32871675491333,-42.05322265625,1.708984375,245.1934814453125
20.1899999,2.4875755310058594,-4.469974517822266,4.508281707763672,-23.3001708984375,14.495849609375,244.3084716796875
20.2099999,2.3750481605529785,-5.6191911697387695,4.764461517333984,-25.32958984375,44.6624755859375,235.321044921875
20.2299999,2.1308395862579346,-6.574477672576904,4.620809078216553,-37.4603271484375,52.9327392578125,221.923828125
20.249999900000002,1.7980455160140991,-7.3885064125061035,4.716577529907227,-53.03955078125,87.9974365234375,213.31787109375
20.269999900000002,1.3215993642807007,-7.8960771560668945,4.630385875701904,-43.670654296875,107.2540283203125,202.392578125
20.2899999,0.7206547260284424,-8.178592681884766,4.750096321105957,-13.9007568359375,123.3978271484375,183.3038330078125
