# Time (seconds),Accel_X,Accel_Y,Accel_Z,Gyro_X,Gyro_Y,Gyro_Z
0.0099999,0.5339069962501526,8.746018409729004,-5.935225963592529,-17.08984375,-3.7384033203125,10.5743408203125
0.029999900000000003,0.569819986820221,8.803479194641113,-5.506663799285889,-14.892578125,-24.8260498046875,-4.6234130859375
0.0499999,0.5506663918495178,8.561665534973145,-5.384559631347656,18.6920166015625,-22.15576171875,2.471923828125
0.0699999,0.49799394607543945,8.29590892791748,-5.456385612487793,28.045654296875,6.2255859375,-1.495361328125
0.08999990000000001,0.42856210470199585,8.032546997070312,-5.542576789855957,29.6478271484375,28.9154052734375,-27.5115966796875
0.10999990000000001,0.33279404044151306,7.891288757324219,-5.57370138168335,35.70556640625,-3.692626953125,-38.360595703125
0.1299999,0.2082955539226532,7.888894557952881,-5.5329999923706055,51.3916015625,-34.698486328125,-26.6571044921875
0.14999990000000002,0.10773907601833344,7.94635534286499,-5.647922039031982,47.9278564453125,-36.163330078125,-2.655029296875
0.1699999,0.004788403399288654,8.01339340209961,-5.96874475479126,34.2864990234375,-13.24462890625,-3.2958984375
0.1899999,-0.026336219161748886,7.936778545379639,-6.282385349273682,3.0364990234375,26.1077880859375,5.1727294921875
0.20999990000000002,-0.014365210197865963,7.752425193786621,-6.447585105895996,-13.946533203125,29.7698974609375,17.6849365234375
0.2299999,0.033518824726343155,7.529764175415039,-6.361393928527832,-14.2059326171875,18.00537109375,8.7738037109375
0.2499999,0.1173158809542656,7.398083209991455,-6.09324312210083,-0.42724609375,11.3525390625,-6.011962890625
0.2699999,0.21547815203666687,7.441178798675537,-5.822698593139648,3.7689208984375,7.4920654296875,-2.349853515625
0.28999990000000003,0.3256114423274994,7.5632829666137695,-5.652710437774658,-10.6353759765625,9.9029541015625,22.6593017578125
0.3099999,0.40222588181495667,7.630321025848389,-5.578489780426025,1.3275146484375,13.36669921875,34.0576171875
0.3299999,0.4812345504760742,7.474697589874268,-5.66228723526001,32.196044921875,-2.227783203125,23.193359375
0.34999990000000003,0.5123591423034668,7.113173484802246,-5.904101371765137,31.158447265625,-26.519775390625,2.3345947265625
0.3699999,0.5506663918495178,6.813898086547852,-6.1770405769348145,16.2506103515625,-11.6424560546875,-15.7623291015625
0.3899999,0.5961562395095825,6.7923502922058105,-6.411672115325928,2.6092529296875,15.6097412109375,-19.012451171875
0.40999990000000003,0.667982280254364,7.058106422424316,-6.466738700866699,-11.8560791015625,30.70068359375,-6.7901611328125
0.4299999,0.689530074596405,7.405265808105469,-6.385335922241211,-7.3699951171875,31.280517578125,10.3759765625
0.4499999,0.6655880808830261,7.659051418304443,-6.279991149902344,-1.068115234375,4.4097900390625,8.544921875
0.4699999,0.5410895943641663,7.704541206359863,-6.167463779449463,11.566162109375,2.1209716796875,-9.9639892578125
0.4899999,0.4189853072166443,7.773972988128662,-6.088454723358154,15.2130126953125,-3.082275390625,-23.162841796875
0.5099999,0.28730419278144836,8.066065788269043,-5.963956356048584,-14.068603515625,-39.031982421875,-18.1732177734375
0.5299999,0.22505496442317963,8.38688850402832,-5.971138954162598,16.6168212890625,-56.915283203125,17.7459716796875
0.5499999,0.14844051003456116,8.62630844116211,-6.038176536560059,51.6204833984375,-14.9078369140625,44.37255859375
0.5699999,0.09816227108240128,8.549694061279297,-6.215347766876221,39.154052734375,27.5115966796875,37.3077392578125
0.5899998999999999,0.0454898327589035,8.135497093200684,-6.291962146759033,-4.82177734375,31.890869140625,32.8521728515625
0.6099998999999999,0.08619125932455063,7.69735860824585,-6.141127586364746,-37.0635986328125,17.5018310546875,33.4625244140625
0.6299999,0.1604115068912506,7.510610580444336,-5.932831764221191,-54.8553466796875,-13.946533203125,24.871826171875
0.6499999,0.3064578175544739,7.608773231506348,-5.8873419761657715,-52.0782470703125,-42.3583984375,27.6641845703125
0.6699999,0.45010992884635925,7.967903137207031,-6.074089527130127,-23.8800048828125,-24.9176025390625,45.5169677734375
0.6899999,0.5961562395095825,8.214506149291992,-6.399701118469238,0.9307861328125,5.9967041015625,75.8209228515625
0.7099999,0.7541735172271729,8.164227485656738,-6.6391215324401855,-0.7171630859375,10.5438232421875,81.085205078125
0.7299998999999999,0.8810662031173706,7.8314337730407715,-6.7061591148376465,26.1993408203125,-8.2550048828125,40.4510498046875
0.7499998999999999,1.01753568649292,7.311892032623291,-6.584054470062256,62.6220703125,-13.3819580078125,8.8958740234375
0.7699999,1.091755986213684,6.84981107711792,-6.421248912811279,34.6832275390625,-6.3018798828125,6.8511962890625
0.7899999,1.1516109704971313,6.560112476348877,-6.347028732299805,20.5535888671875,-16.510009765625,-6.65283203125
0.8099999,1.1659762859344482,6.435614109039307,-6.380547523498535,14.7705078125,-22.796630859375,-13.1072998046875
0.8299999,1.1635819673538208,6.512228488922119,-6.514622688293457,13.1072998046875,-6.3629150390625,-9.0484619140625
0.8499998999999999,1.1420341730117798,6.84981107711792,-6.517016887664795,3.1890869140625,26.153564453125,9.0484619140625
0.8699998999999999,1.1540051698684692,7.436390399932861,-6.179434776306152,1.8463134765625,37.9486083984375,34.423828125
0.8899999,1.113303780555725,7.716512203216553,-5.521028995513916,1.15966796875,-29.3731689453125,102.4932861328125
0.9099999,1.173158884048462,7.445967197418213,-4.98472785949707,-0.6256103515625,-112.4267578125,132.4462890625
0.9299999,1.1085153818130493,6.703764915466309,-5.099649429321289,29.6630859375,-110.931396484375,48.2330322265625
0.9499999,1.1516109704971313,5.894524574279785,-5.8442463874816895,15.3045654296875,-9.7503662109375,-36.19384765625
0.9699998999999999,1.2210428714752197,5.430049419403076,-6.835445880889893,5.584716796875,72.6776123046875,-18.4326171875
0.9899998999999999,1.3623007535934448,5.458779811859131,-7.38132381439209,-26.79443359375,62.286376953125,29.510498046875
1.0099999,1.6352397203445435,5.738901615142822,-7.314286231994629,-27.2674560546875,-7.843017578125,18.402099609375
1.0299999,1.8842366933822632,5.899312973022461,-6.842628479003906,-29.1900634765625,-38.8031005859375,-13.2904052734375
1.0499999,2.054224967956543,5.851428985595703,-6.447585105895996,-16.17431640625,-32.6995849609375,-20.8740234375
1.0699999,2.075772762298584,5.638344764709473,-6.299144744873047,8.5906982421875,-17.059326171875,-48.248291015625
1.0899999,1.9632453918457031,5.2911858558654785,-6.287173748016357,20.8587646484375,-0.823974609375,-103.515625
1.1099999,1.656787633895874,5.0469770431518555,-6.066906929016113,7.4462890625,6.0272216796875,-169.342041015625
1.1299999,1.2258312702178955,5.1595048904418945,-5.5114521980285645,8.0718994140625,-27.069091796875,-211.4105224609375
1.1499999,0.6655880808830261,5.801150798797607,-4.738125324249268,38.2537841796875,-87.9669189453125,-215.6219482421875
1.1699998999999999,-0.019153613597154617,6.754043102264404,-4.398148536682129,31.1431884765625,-174.1943359375,-180.9234619140625
1.1899998999999999,-0.7757213711738586,7.723694801330566,-5.17626428604126,-3.814697265625,-203.765869140625,-117.3553466796875
1.2099999,-1.5610195398330688,8.829815864562988,-6.5265936851501465,-31.0516357421875,-49.774169921875,-100.1129150390625
1.2299999,-2.164358377456665,9.653421401977539,-7.960720539093018,1.220703125,77.69775390625,-60.028076171875
1.2499999,-2.5450363159179688,10.079588890075684,-8.954314231872559,10.07080078125,35.186767578125,24.59716796875
1.2699999,-2.6431987285614014,9.806650161743164,-9.301473617553711,0.946044921875,-1.739501953125,34.2864990234375
1.2899999,-2.5905263423919678,8.769960403442383,-9.411606788635254,37.17041015625,94.482421875,-18.280029296875
1.3099999,-2.542642116546631,7.668628215789795,-9.35893440246582,68.115234375,214.8590087890625,-75.653076171875
1.3299999,-2.4229321479797363,7.007828235626221,-9.124302864074707,59.2041015625,226.3336181640625,-69.183349609375
1.3499999,-2.2361843585968018,6.959944248199463,-8.38688850402832,73.42529296875,186.1419677734375,-7.965087890625
1.3699999,-1.8722656965255737,7.383718013763428,-7.184999465942383,73.7762451171875,151.7791748046875,35.369873046875
1.3899999,-1.4173674583435059,7.706935405731201,-5.949591159820557,58.074951171875,62.1337890625,68.8323974609375
1.4099999,-0.9433154463768005,7.462726593017578,-5.044582843780518,8.575439453125,-43.4722900390625,111.0076904296875
1.4299998999999999,-0.6153098344802856,6.900089263916016,-4.745307922363281,-48.2635498046875,-80.078125,88.043212890625
1.4499999,-0.35434186458587646,6.0190229415893555,-5.264849662780762,-66.375732421875,-52.2308349609375,32.77587890625
1.4699999,-0.24660277366638184,5.243301868438721,-6.179434776306152,-67.7642822265625,-19.256591796875,-6.134033203125
1.4899999,-0.19632454216480255,5.03021764755249,-7.0126166343688965,-57.3577880859375,-20.3094482421875,-19.71435546875
1.5099999,-0.26336219906806946,5.434837818145752,-7.448361396789551,-42.694091796875,-43.4722900390625,-14.2974853515625
1.5299999,-0.36152446269989014,6.2847795486450195,-7.352593421936035,-75.2716064453125,-16.3726806640625,4.4097900390625
1.5499999,-0.42856210470199585,7.218518257141113,-6.979097843170166,-111.419677734375,9.552001953125,24.444580078125
1.5699999,-0.47644615173339844,7.869740962982178,-6.540958881378174,-135.2081298828125,5.4473876953125,57.06787109375
1.5899999,-0.4213795065879822,8.135497093200684,-6.296750545501709,-126.251220703125,-7.3699951171875,70.8465576171875
1.6099999,-0.43095630407333374,8.269572257995605,-6.09324312210083,-85.2203369140625,48.1109619140625,55.6640625
1.6299999,-0.2322375625371933,8.24084186553955,-5.966350555419922,-30.853271484375,103.912353515625,72.2808837890625
1.6499999,-0.0454898327589035,8.468291282653809,-5.600037574768066,-67.6422119140625,70.0836181640625,88.07373046875
1.6699999,0.26815059781074524,8.83699893951416,-5.027823448181152,-148.681640625,6.53076171875,100.738525390625
1.6899998999999999,0.5123591423034668,9.220070838928223,-4.702212333679199,-101.98974609375,-30.6549072265625,122.100830078125
1.7099999,0.6919242739677429,9.404424667358398,-4.443638324737549,-68.267822265625,32.0892333984375,146.3470458984375
1.7299999,0.8786720037460327,9.150638580322266,-4.288015365600586,-88.68408203125,105.95703125,141.78466796875
1.7499999,1.0821791887283325,8.523358345031738,-3.823540210723877,-56.15234375,97.564697265625,69.4122314453125
1.7699999,1.4053963422775269,7.752425193786621,-2.9233202934265137,-7.1868896484375,55.23681640625,-3.5858154296875
1.7899999,1.6831238269805908,7.321468830108643,-1.9345149993896484,73.577880859375,7.904052734375,-55.816650390625
1.8099999,1.8722656965255737,7.5968017578125,-1.4269442558288574,60.48583984375,-24.169921875,-63.78173828125
1.8299999,1.9919757843017578,8.255207061767578,-1.4221558570861816,37.567138671875,7.4920654296875,3.509521484375
1.8499999,2.051830768585205,8.779537200927734,-1.742978811264038,57.0831298828125,43.6859130859375,83.2366943359375
1.8699999,2.10210919380188,9.01895809173584,-1.9776105880737305,40.252685546875,5.79833984375,53.0548095703125
1.8899999,2.1499931812286377,8.942343711853027,-2.078166961669922,19.6990966796875,-63.323974609375,-25.2685546875
1.9099999,2.2577321529388428,8.688557624816895,-2.3247697353363037,46.356201171875,-94.1009521484375,-3.5400390625
1.9299998999999999,2.3295583724975586,8.554482460021973,-2.8395233154296875,109.1461181640625,-49.25537109375,35.6903076171875
1.9499999,2.454056739807129,8.279149055480957,-3.3662476539611816,101.9744873046875,1.8768310546875,33.4014892578125
1.9699999,2.5498247146606445,8.022970199584961,-3.84269380569458,36.773681640625,-23.834228515625,-4.5928955078125
1.9899999,2.63362193107605,7.709329605102539,-4.307168960571289,13.97705078125,-51.1932373046875,-29.2816162109375
2.0099999,2.760514497756958,7.501033782958984,-4.55616569519043,56.243896484375,-6.7291259765625,-1.800537109375
2.0299999,2.8395233154296875,7.29034423828125,-5.0876784324646,103.515625,18.829345703125,28.167724609375
2.0499999,2.9041666984558105,6.854599475860596,-5.439626216888428,66.5740966796875,2.5482177734375,28.167724609375
2.0699999,2.937685489654541,6.4164605140686035,-5.571307182312012,26.6571044921875,-8.087158203125,-8.4686279296875
2.0899999,2.9089550971984863,5.719748020172119,-5.394136428833008,102.203369140625,-43.8385009765625,-16.5557861328125
2.1099999,2.6384103298187256,5.250484466552734,-5.6670756340026855,230.4840087890625,-129.2572021484375,-68.7713623046875
2.1299999,2.2385785579681396,4.709394931793213,-5.906495571136475,73.8983154296875,-126.8157958984375,-93.0023193359375
2.1499999,1.525106430053711,3.976768970489502,-6.785167694091797,74.0814208984375,-107.421875,-71.0906982421875
2.1699999,0.706289529800415,3.7158010005950928,-7.299921035766602,139.892578125,-79.8187255859375,-125.9613037109375
2.1899999,-0.07182604819536209,3.6104562282562256,-7.623138427734375,96.98486328125,-122.3602294921875,-132.965087890625
2.2099999,-0.7757213711738586,3.9647979736328125,-8.142680168151855,5.523681640625,-242.7215576171875,-92.254638671875
2.2299999,-1.335964560508728,4.663905143737793,-9.105149269104004,-66.436767578125,-225.5859375,-85.8306884765625
2.2499999,-1.6687586307525635,5.1810526847839355,-10.259154319763184,1.1138916015625,-40.0848388671875,-63.41552734375
2.2699999,-1.8914192914962769,5.310339450836182,-11.168951034545898,52.9327392578125,42.8619384765625,-32.745361328125
2.2899999,-1.922544002532959,5.128379821777344,-11.159374237060547,8.85009765625,2.7923583984375,-33.26416015625
2.3099999,-1.8746598958969116,4.742913722991943,-10.321403503417969,-2.4566650390625,-23.8189697265625,-47.2869873046875
2.3299999,-1.8938134908676147,4.414907932281494,-9.622296333312988,-17.9901123046875,-8.056640625,-41.4886474609375
2.3499999,-1.889025092124939,4.206612586975098,-9.821015357971191,-107.452392578125,63.5833740234375,-26.7791748046875
2.3699999,-1.941697597503662,4.608838081359863,-10.359710693359375,-116.485595703125,194.3817138671875,-32.7301025390625
2.3899999,-1.7262194156646729,5.114014625549316,-10.158597946166992,-105.438232421875,265.5029296875,25.9246826171875
2.4099999,-1.400607943534851,5.736507415771484,-9.105149269104004,-75.653076171875,67.6422119140625,106.1859130859375
2.4299999,-1.0438719987869263,6.256049156188965,-7.508216381072998,-105.9417724609375,-218.170166015625,111.0382080078125
2.4499999,-0.7733271718025208,6.428431510925293,-6.14831018447876,-130.859375,-242.645263671875,118.927001953125
2.4699999,-0.7613561153411865,6.53377628326416,-5.875370979309082,-129.0435791015625,-160.1715087890625,135.5133056640625
2.4899999,-0.7996633648872375,6.94079065322876,-6.651092529296875,-153.106689453125,-136.474609375,116.4703369140625
2.5099999,-0.7924807667732239,7.436390399932861,-7.594407558441162,-93.597412109375,-105.77392578125,133.8958740234375
2.5299999,-0.5746083855628967,7.513004779815674,-8.238448143005371,-26.2603759765625,-33.538818359375,178.466796875
2.5499999,-0.27054479718208313,7.2113356590271,-8.470685958862305,-0.3204345703125,-3.1890869140625,118.072509765625
2.5699999,0.11013327538967133,6.730101108551025,-8.056488990783691,-73.0438232421875,-1.4801025390625,-3.2958984375
2.5899999,0.42856210470199585,6.354211330413818,-7.33583402633667,-45.4559326171875,-24.1546630859375,-1.64794921875
2.6099999,0.6320692300796509,6.560112476348877,-6.689399719238281,-9.8114013671875,-30.76171875,45.8984375
2.6299999,0.8164227604866028,7.266402244567871,-6.279991149902344,-38.2537841796875,-31.18896484375,40.618896484375
2.6499999,0.8834604024887085,8.015787124633789,-6.196194171905518,-40.95458984375,-27.28271484375,27.7099609375
2.6699999,0.9313444495201111,8.530540466308594,-6.210559368133545,-36.865234375,-40.618896484375,61.58447265625
2.6899999,0.9026140570640564,8.669404029846191,-6.411672115325928,-48.88916015625,-45.1507568359375,70.9991455078125
2.7099999,0.7972691655158997,8.348581314086914,-6.445190906524658,-4.94384765625,-8.544921875,43.182373046875
2.7299999,0.6488286852836609,7.754819393157959,-6.289567947387695,-40.6494140625,24.0020751953125,7.6446533203125
2.7499999,0.47165772318840027,7.438784599304199,-6.090848922729492,-62.774658203125,-8.209228515625,-24.444580078125
2.7699999,0.26815059781074524,7.556100368499756,-5.748478412628174,-50.4913330078125,-18.585205078125,-25.848388671875
2.7899999,0.033518824726343155,8.128314971923828,-5.434837818145752,-56.640625,1.4190673828125,-6.8359375
2.8099999,-0.12928688526153564,8.901641845703125,-5.193023681640625,-59.5703125,7.9803466796875,-2.74658203125
2.8299999,-0.22505496442317963,9.57441234588623,-4.929661273956299,-23.6358642578125,5.8441162109375,-17.8070068359375
2.8499999,-0.30885201692581177,9.8784761428833,-4.644751071929932,27.923583984375,-0.244140625,-30.670166015625
2.8699999,-0.22505496442317963,9.928754806518555,-4.5825018882751465,21.4080810546875,-16.6015625,-21.575927734375
2.8899999,-0.18914192914962769,9.792284965515137,-4.72376012802124,-2.5482177734375,-5.92041015625,-15.0604248046875
2.9099999,-0.09816227108240128,9.490615844726562,-4.9583916664123535,34.3475341796875,40.496826171875,3.143310546875
2.9299999,-0.26096799969673157,9.119514465332031,-5.125985622406006,82.5042724609375,77.178955078125,23.7274169921875
2.9499999,-0.4572925269603729,8.762778282165527,-5.351040840148926,60.2264404296875,52.459716796875,9.307861328125
2.9699999,-0.5530605912208557,8.525752067565918,-5.310339450836182,29.3121337890625,59.722900390625,-17.39501953125
2.9899999,-0.6440402865409851,8.578424453735352,-5.157110691070557,105.5145263671875,110.4736328125,-34.11865234375
3.0099999,-0.19632454216480255,8.638279914855957,-4.484339714050293,10.284423828125,10.3912353515625,14.4195556640625
3.0299999,-0.0694318488240242,8.362946510314941,-4.659116744995117,-20.0958251953125,-6.04248046875,-17.88330078125
3.0499999,-0.07182604819536209,7.965508937835693,-5.1810526847839355,22.88818359375,72.967529296875,-58.9752197265625
3.0699999,-0.12449848651885986,7.615955829620361,-5.779603004455566,26.2603759765625,161.31591796875,-78.887939453125
3.0899999,-0.181959331035614,7.544129371643066,-5.8203043937683105,11.2457275390625,154.9224853515625,-94.7723388671875
3.1099999,-0.2082955539226532,7.91283655166626,-5.339069843292236,18.6004638671875,82.7178955078125,-99.884033203125
3.1299999,-0.14365209639072418,8.501810073852539,-4.6734819412231445,57.7239990234375,45.71533203125,-53.64990234375
3.1499999,-0.05027823522686958,8.78432559967041,-4.311957359313965,41.4886474609375,49.163818359375,35.9344482421875
3.1699999,0.10534487664699554,8.683769226074219,-4.558559894561768,33.782958984375,45.4559326171875,30.09033203125
3.1899999,0.2561795711517334,8.169015884399414,-5.0685248374938965,4.7149658203125,58.8226318359375,-32.318115234375
3.2099999,0.4381389021873474,7.570465564727783,-5.418078422546387,-18.61572265625,71.9146728515625,-36.19384765625
3.2299999,0.5506663918495178,7.374141216278076,-5.664681434631348,-46.1578369140625,30.09033203125,-7.32421875
3.2499999,0.6536170840263367,7.570465564727783,-5.822698593139648,-57.037353515625,7.50732421875,6.7138671875
3.2699999,0.6655880808830261,8.020575523376465,-5.817910194396973,-30.5328369140625,63.1103515625,-1.40380859375
3.2899999,0.6871358752250671,8.396465301513672,-5.805939197540283,29.083251953125,109.7259521484375,2.349853515625
3.3099999,0.7541735172271729,8.698134422302246,-5.643133640289307,33.99658203125,87.890625,18.585205078125
3.3299999000000002,0.8068459630012512,8.810662269592285,-5.233725070953369,16.54052734375,62.591552734375,25.665283203125
3.3499999,1.0079588890075684,8.671798706054688,-4.869806289672852,8.392333984375,63.2781982421875,50.84228515625
3.3699999,1.2210428714752197,8.525752067565918,-4.587290287017822,-21.759033203125,69.305419921875,44.708251953125
3.3899999,1.558625340461731,8.360552787780762,-4.469974517822266,1.1444091796875,52.459716796875,19.1497802734375
3.4099999,1.8339585065841675,8.195352554321289,-4.302380561828613,-8.270263671875,47.4700927734375,12.542724609375
3.4299999,2.1140801906585693,8.006210327148438,-4.110844135284424,-11.29150390625,44.952392578125,18.1121826171875
3.4499999,2.1787235736846924,7.7428483963012695,-3.892971992492676,-15.289306640625,27.191162109375,13.7786865234375
3.4699999,2.2409727573394775,7.4316020011901855,-3.6607344150543213,-45.22705078125,20.3857421875,19.04296875
3.4899999,2.2864625453948975,7.347805023193359,-3.40216064453125,-64.422607421875,39.0167236328125,30.8074951171875
3.5099999,2.4133553504943848,7.297526836395264,-3.0358476638793945,-84.3048095703125,37.3687744140625,53.1463623046875
3.5299999,2.5665841102600098,7.316680431365967,-2.655169725418091,-71.685791015625,-7.080078125,53.8787841796875
3.5499999,2.7772738933563232,7.220912456512451,-2.2888567447662354,-47.8363037109375,-18.768310546875,22.6898193359375
3.5699999,2.940079689025879,6.9455790519714355,-2.1739351749420166,-1.708984375,-15.0299072265625,-12.1002197265625
3.5899999,3.0837318897247314,6.873753070831299,-2.190694570541382,-20.9197998046875,-20.1263427734375,-55.450439453125
3.6099999,3.2417490482330322,6.813898086547852,-2.1978771686553955,-64.453125,-36.0260009765625,-53.8787841796875
3.6299999,3.1866824626922607,6.823474884033203,-2.365471363067627,-67.8253173828125,-91.6748046875,-62.744140625
3.6499999,2.9927520751953125,7.01979923248291,-3.0526070594787598,35.7208251953125,-90.5303955078125,-119.354248046875
3.6699999,2.5929205417633057,7.264008045196533,-3.993528366088867,61.187744140625,47.9736328125,-130.9967041015625
3.6899999,2.0614075660705566,7.6997528076171875,-5.008669853210449,93.1549072265625,184.7991943359375,-100.9979248046875
3.7099999,1.6160861253738403,8.5903959274292,-5.384559631347656,76.4923095703125,205.535888671875,-86.12060546875
3.7299999,1.4293384552001953,9.404424667358398,-5.080495834350586,71.96044921875,145.294189453125,-36.651611328125
3.7499999,1.4221558570861816,9.90241813659668,-4.278438568115234,121.9329833984375,94.2230224609375,25.4364013671875
3.7699999,1.678335428237915,10.08437728881836,-3.49314022064209,154.510498046875,93.07861328125,-3.448486328125
3.7899999,2.0470423698425293,9.818621635437012,-3.0382418632507324,188.6138916015625,58.6700439453125,-41.3055419921875
3.8099999,2.3726539611816406,9.205705642700195,-2.9041666984558105,137.1002197265625,1.2969970703125,-12.63427734375
3.8299999000000002,2.652775526046753,8.468291282653809,-3.1531636714935303,112.274169921875,-35.7513427734375,2.777099609375
3.8499999,2.784456491470337,7.63989782333374,-3.7205893993377686,118.6065673828125,-55.7861328125,-8.8653564453125
3.8699999,2.8227639198303223,6.979097843170166,-4.4292731285095215,108.3831787109375,-68.0084228515625,-23.7274169921875
3.8899999,2.7437551021575928,6.737283706665039,-5.231330871582031,105.6365966796875,-89.5233154296875,-30.1513671875
3.9099999,2.655169725418091,6.682217121124268,-6.050147533416748,119.537353515625,-87.066650390625,9.521484375
3.9299999,2.518700122833252,6.466738700866699,-6.823474884033203,79.1168212890625,-45.6695556640625,34.3170166015625
3.9499999,2.346317768096924,6.00226354598999,-7.457938194274902,8.9111328125,-8.8958740234375,-19.8822021484375
3.9699999,2.126051187515259,5.4013190269470215,-7.879317760467529,-4.45556640625,-15.655517578125,-72.0062255859375
3.9899999,1.7908629179000854,5.114014625549316,-8.197746276855469,9.490966796875,-33.935546875,-79.6661376953125
4.0099999,1.4053963422775269,5.456385612487793,-8.312667846679688,0.152587890625,-12.8936767578125,-72.32666015625
4.029999900000001,0.9983820915222168,6.155492782592773,-8.60236644744873,-24.84130859375,-10.68115234375,-38.7725830078125
4.0499999,0.5961562395095825,6.687005519866943,-9.07641887664795,-16.387939453125,-10.68115234375,-5.8746337890625
4.069999900000001,0.1843535304069519,6.744466304779053,-9.263166427612305,-25.81787109375,65.460205078125,-2.8228759765625
4.0899999000000005,-0.11013327538967133,6.3733649253845215,-9.162610054016113,-37.65869140625,101.0589599609375,-28.4423828125
4.1099999,-0.29209262132644653,6.088454723358154,-8.767566680908203,-39.12353515625,35.5072021484375,-61.798095703125
4.1299999000000005,-0.23942017555236816,6.162675380706787,-8.133103370666504,-35.2783203125,1.5106201171875,-39.215087890625
4.1499999,-0.0454898327589035,6.564900875091553,-7.4770917892456055,-44.9066162109375,28.289794921875,26.9622802734375
4.1699999000000005,0.2777273952960968,6.88332986831665,-7.029376029968262,-84.41162109375,26.1077880859375,74.3865966796875
4.1899999,0.5506663918495178,6.811503887176514,-6.651092529296875,-104.8126220703125,-17.181396484375,62.5457763671875
4.209999900000001,0.7445967197418213,6.323086738586426,-6.378153324127197,-123.9166259765625,-36.5753173828125,37.0330810546875
4.2299999,0.8140285611152649,5.894524574279785,-6.347028732299805,-143.463134765625,-29.47998046875,7.62939453125
4.249999900000001,0.8307880163192749,5.702988624572754,-6.447585105895996,-104.400634765625,12.14599609375,-17.15087890625
4.2699999,0.8068459630012512,5.913678169250488,-6.418854713439941,-23.162841796875,33.8134765625,-37.9486083984375
4.289999900000001,0.7805097699165344,6.507440090179443,-6.296750545501709,-59.0972900390625,-11.8255615234375,-45.6390380859375
4.3099999,0.7589619159698486,7.254431247711182,-6.030993938446045,-58.7310791015625,-34.881591796875,-33.782958984375
4.329999900000001,0.7086837291717529,7.953537940979004,-5.66228723526001,-16.845703125,-5.5999755859375,-27.2369384765625
4.3499999,0.6943184733390808,8.571242332458496,-5.461174011230469,-21.1181640625,-10.43701171875,-38.5894775390625
4.369999900000001,0.6799532771110535,8.987833023071289,-5.353435039520264,-41.107177734375,-29.60205078125,-40.4815673828125
4.3899999,0.7852981686592102,9.184157371520996,-5.458779811859131,53.16162109375,-0.091552734375,-23.0712890625
4.409999900000001,0.9074024558067322,9.239224433898926,-5.477933406829834,83.465576171875,29.3426513671875,-11.8560791015625
4.4299999,1.070208191871643,9.172186851501465,-5.566518783569336,46.0357666015625,-5.0506591796875,-12.0697021484375
4.449999900000001,1.1971008777618408,8.83699893951416,-5.506663799285889,0.8087158203125,-41.2139892578125,4.9285888671875
4.4699999,1.2282254695892334,8.40843677520752,-5.509057998657227,-6.8511962890625,-41.19873046875,19.287109375
4.489999900000001,1.158793568611145,8.022970199584961,-5.7341132164001465,-1.190185546875,-18.6309814453125,3.47900390625
4.5099999,1.0055646896362305,7.661445617675781,-5.983109951019287,31.1431884765625,3.2958984375,-12.115478515625
4.529999900000001,0.8044517636299133,7.630321025848389,-6.296750545501709,45.928955078125,-11.4593505859375,-21.8048095703125
4.5499999,0.6177040338516235,7.841010570526123,-6.574477672576904,11.8865966796875,-25.909423828125,-17.120361328125
4.569999900000001,0.4692635238170624,8.180987358093262,-6.811503887176514,20.81298828125,-14.9383544921875,-2.8076171875
4.5899999000000005,0.37828385829925537,8.463502883911133,-7.050923824310303,38.8336181640625,5.859375,8.7738037109375
4.609999900000001,0.3711012601852417,8.544905662536621,-7.362170219421387,32.40966796875,1.9073486328125,11.9781494140625
4.6299999000000005,0.3974374830722809,8.372523307800293,-7.544129371643066,43.9910888671875,18.9361572265625,12.6953125
4.6499999,0.4644751250743866,7.996633529663086,-7.536946773529053,73.73046875,54.5196533203125,8.0413818359375
4.6699999000000005,0.5051765441894531,7.565677165985107,-7.4770917892456055,50.750732421875,46.5087890625,5.4473876953125
4.6899999,0.5219359993934631,7.01979923248291,-7.127538681030273,32.806396484375,39.5965576171875,11.1846923828125
4.709999900000001,0.569819986820221,6.557718276977539,-6.907271862030029,60.6842041015625,41.8548583984375,-2.4261474609375
4.7299999,0.5722141861915588,6.258443355560303,-6.825869083404541,20.2178955078125,54.0618896484375,-21.1181640625
4.749999900000001,0.6177040338516235,6.13633918762207,-6.852205276489258,65.6280517578125,86.2274169921875,-28.2135009765625
4.7699999,0.7254431247711182,6.236895561218262,-6.868964672088623,116.3787841796875,105.3314208984375,-27.1759033203125
4.789999900000001,0.912190854549408,6.3302693367004395,-6.768408298492432,68.7408447265625,78.30810546875,-17.88330078125
4.8099999,1.2425906658172607,6.423643112182617,-6.449979305267334,31.158447265625,40.83251953125,-22.4609375
4.829999900000001,1.601720929145813,6.385335922241211,-6.2416839599609375,2.0751953125,-2.8533935546875,-19.195556640625
4.8499999,1.900996208190918,6.22731876373291,-6.1985883712768555,-24.8870849609375,-22.491455078125,-1.251220703125
4.869999900000001,2.006340980529785,5.978321552276611,-6.294356346130371,-25.0396728515625,-13.916015625,-3.0059814453125
4.8899999,1.9129672050476074,5.906495571136475,-6.63433313369751,-18.218994140625,-15.6402587890625,-24.9176025390625
4.909999900000001,1.6879122257232666,5.966350555419922,-7.0772600173950195,-23.2086181640625,-14.4805908203125,-20.8740234375
4.9299999,1.3742717504501343,6.167463779449463,-7.393294811248779,-29.449462890625,16.3726806640625,10.589599609375
4.949999900000001,1.0869675874710083,6.538564682006836,-7.529764175415039,-35.33935546875,28.6712646484375,2.6702880859375
4.9699999,0.8212111592292786,6.88332986831665,-7.38132381439209,-39.9169921875,4.180908203125,-10.7574462890625
4.989999900000001,0.6344634294509888,7.240066051483154,-7.007828235626221,-54.7637939453125,-10.8489990234375,4.8675537109375
5.0099999,0.5363011956214905,7.496245384216309,-6.636727333068848,-54.8095703125,-16.6168212890625,30.8837890625
5.029999900000001,0.5434837937355042,7.50582218170166,-6.3302693367004395,-34.7442626953125,-20.4315185546875,41.290283203125
5.0499999,0.5889736413955688,7.189787864685059,-6.114790916442871,-25.1312255859375,-42.96875,19.1497802734375
5.069999900000001,0.6488286852836609,6.687005519866943,-6.033388137817383,-40.252685546875,-68.90869140625,-4.0283203125
5.0899999000000005,0.6727706789970398,6.349422931671143,-6.0190229415893555,-54.2144775390625,-56.7169189453125,-14.9688720703125
5.109999900000001,0.6823474764823914,6.461950302124023,-5.985504150390625,-53.863525390625,-24.810791015625,-27.5421142578125
5.1299999000000005,0.6775590777397156,6.861782073974609,-5.904101371765137,-54.26025390625,-32.4859619140625,-13.9923095703125
5.1499999,0.6655880808830261,7.376535415649414,-5.822698593139648,-62.652587890625,-64.178466796875,5.1422119140625
5.1699999000000005,0.629675030708313,7.757213592529297,-5.746084213256836,-34.210205078125,-51.361083984375,-2.532958984375
5.1899999,0.5746083855628967,7.934384346008301,-5.7341132164001465,-18.12744140625,-15.13671875,-18.829345703125
5.209999900000001,0.4668693244457245,7.893682956695557,-5.681440830230713,-32.501220703125,-14.0533447265625,-23.895263671875
5.2299999,0.3519476354122162,8.001421928405762,-5.686229228973389,-32.7606201171875,-46.142578125,-34.515380859375
5.249999900000001,0.21308395266532898,8.121131896972656,-5.698200225830078,-24.1851806640625,-36.0870361328125,-23.3001708984375
5.2699999,0.07900865375995636,8.305485725402832,-5.705382823944092,-17.1966552734375,9.246826171875,1.678466796875
5.289999900000001,-0.0071826050989329815,8.518569946289062,-5.688623428344727,-23.284912109375,14.1448974609375,9.3841552734375
5.3099999,-0.09576806426048279,8.724471092224121,-5.609614372253418,-31.829833984375,-12.1002197265625,7.6446533203125
5.329999900000001,-0.14844051003456116,8.549694061279297,-5.434837818145752,-11.3677978515625,0.946044921875,23.92578125
5.3499999,-0.21308395266532898,8.372523307800293,-5.257667064666748,-21.270751953125,30.5023193359375,7.568359375
5.369999900000001,-0.2322375625371933,8.121131896972656,-5.2696380615234375,-42.0684814453125,17.4713134765625,-28.594970703125
5.3899999,-0.22026655077934265,8.063671112060547,-5.193023681640625,-12.2222900390625,11.993408203125,-37.2314453125
5.409999900000001,-0.14844051003456116,8.281543731689453,-5.118803024291992,-9.0179443359375,25.787353515625,-15.2587890625
5.4299999,-0.08619125932455063,8.592789649963379,-5.123591423034668,-1.9073486328125,16.845703125,6.4239501953125
5.449999900000001,-0.05267243832349777,8.707711219787598,-4.944026470184326,-9.3536376953125,22.674560546875,12.87841796875
5.4699999,-0.05267243832349777,8.607154846191406,-4.819528102874756,-8.11767578125,16.2353515625,6.011962890625
5.489999900000001,-0.07900865375995636,8.279149055480957,-4.666299343109131,-3.143310546875,-1.1749267578125,8.3160400390625
5.5099999,-0.10055647045373917,8.078036308288574,-4.639962673187256,-6.4544677734375,-0.152587890625,1.312255859375
5.529999900000001,-0.0933738648891449,8.010998725891113,-4.687847137451172,7.4920654296875,12.6800537109375,0.8697509765625
5.5499999,-0.07661445438861847,8.094796180725098,-4.800374507904053,24.47509765625,18.6614990234375,11.7034912109375
5.569999900000001,-0.0454898327589035,8.157045364379883,-4.841075897216797,10.528564453125,17.15087890625,24.90234375
5.5899999000000005,0.021547814831137657,8.169015884399414,-4.800374507904053,-8.7890625,6.500244140625,11.3677978515625
5.609999900000001,0.09816227108240128,8.106766700744629,-4.747702121734619,-12.26806640625,-12.298583984375,-3.0670166015625
5.6299999000000005,0.16759411990642548,8.125920295715332,-4.704606533050537,-20.660400390625,-14.801025390625,-0.6103515625
5.6499999,0.2346317619085312,8.286332130432129,-4.750096321105957,-27.3590087890625,-8.0108642578125,11.23046875
5.6699999000000005,0.24181437492370605,8.44434928894043,-4.831499099731445,-11.8865966796875,-10.7269287109375,17.1051025390625
5.6899999,0.21308395266532898,8.544905662536621,-4.965574264526367,11.04736328125,-6.28662109375,8.056640625
5.709999900000001,0.17238251864910126,8.573636054992676,-5.051765441894531,-0.8087158203125,4.730224609375,-3.5858154296875
5.7299999,0.15083470940589905,8.604761123657227,-5.054159641265869,-8.6517333984375,14.801025390625,1.983642578125
5.749999900000001,0.1628057211637497,8.65982723236084,-4.917690277099609,-3.8299560546875,12.5885009765625,14.801025390625
5.7699999,0.20350714027881622,8.633491516113281,-4.790797710418701,-4.5623779296875,-8.8348388671875,30.120849609375
5.789999900000001,0.2322375625371933,8.406042098999023,-4.697423934936523,-12.6800537109375,-19.2718505859375,25.9552001953125
5.8099999,0.26575639843940735,8.051700592041016,-4.776432514190674,-7.3089599609375,-7.6141357421875,-1.1749267578125
5.829999900000001,0.3232172429561615,7.826645374298096,-4.994304656982422,-14.5721435546875,5.79833984375,-23.529052734375
5.8499999,0.40462008118629456,7.94635534286499,-5.109226226806641,-39.276123046875,28.228759765625,-15.19775390625
5.869999900000001,0.49320554733276367,8.276755332946777,-5.037400245666504,-38.330078125,30.5633544921875,14.5416259765625
5.8899999,0.5602431893348694,8.631096839904785,-4.8722004890441895,-10.6048583984375,-1.9378662109375,22.003173828125
5.909999900000001,0.5482721924781799,8.87051773071289,-4.716577529907227,-2.9449462890625,-7.4920654296875,-5.340576171875
5.9299999,0.48602294921875,8.841787338256836,-4.671087741851807,9.490966796875,31.829833984375,-11.1846923828125
5.949999900000001,0.3974374830722809,8.724471092224121,-4.675876140594482,12.9547119140625,61.126708984375,-4.1351318359375
5.9699999,0.3687070608139038,8.652645111083984,-4.584896087646484,-6.28662109375,48.370361328125,-12.786865234375
5.989999900000001,0.35673606395721436,8.571242332458496,-4.357447147369385,-11.2152099609375,14.007568359375,-16.2811279296875
6.0099999,0.3974374830722809,8.497021675109863,-4.144362926483154,-2.7923583984375,-3.387451171875,-2.288818359375
6.029999900000001,0.4213795065879822,8.508993148803711,-4.019864559173584,-3.387451171875,6.8511962890625,-4.5013427734375
6.0499999,0.43335050344467163,8.449137687683105,-4.003105163574219,7.6446533203125,18.1121826171875,-5.5389404296875
6.069999900000001,0.4572925269603729,8.38449478149414,-4.055777549743652,21.2249755859375,14.3280029296875,-3.96728515625
6.0899999000000005,0.4812345504760742,8.300697326660156,-4.14915132522583,18.8446044921875,0.1068115234375,-8.7890625
6.109999900000001,0.5315127968788147,8.315062522888184,-4.264073371887207,16.632080078125,-3.4942626953125,-17.63916015625
6.1299999000000005,0.5770025849342346,8.401253700256348,-4.412513732910156,13.4429931640625,-4.7454833984375,-13.6260986328125
6.149999900000001,0.5770025849342346,8.422801971435547,-4.503493309020996,15.44189453125,-12.4664306640625,-3.23486328125
6.1699999000000005,0.5171475410461426,8.329427719116211,-4.517858505249023,30.853271484375,-25.2532958984375,-10.9710693359375
6.1899999,0.43095630407333374,8.202534675598145,-4.587290287017822,19.012451171875,-47.6837158203125,-38.39111328125
6.209999900000001,0.29209262132644653,8.068459510803223,-4.797980308532715,4.2877197265625,-56.3507080078125,-40.3900146484375
6.2299999,0.12689268589019775,8.14028549194336,-5.07570743560791,5.8441162109375,-19.866943359375,-29.11376953125
6.249999900000001,-0.0454898327589035,8.4108304977417,-5.2672438621521,18.3258056640625,26.0162353515625,-22.9949951171875
6.2699999,-0.1867477297782898,8.736441612243652,-5.245696067810059,24.993896484375,24.4903564453125,-17.5933837890625
6.289999900000001,-0.2561795711517334,8.935160636901855,-5.063736438751221,8.270263671875,-3.326416015625,-4.302978515625
6.3099999,-0.20350714027881622,8.83939266204834,-4.757278919219971,-1.7242431640625,-17.39501953125,14.5111083984375
6.329999900000001,-0.24420857429504395,8.561665534973145,-4.776432514190674,-4.0435791015625,-30.914306640625,1.5106201171875
6.3499999,-0.26336219906806946,8.058882713317871,-4.953603267669678,0.2288818359375,-25.0396728515625,-10.5743408203125
6.369999900000001,-0.30885201692581177,7.642292022705078,-4.975151062011719,-20.8282470703125,18.6614990234375,-21.1181640625
6.3899999,-0.4381389021873474,7.575253963470459,-4.987122058868408,-22.186279296875,-2.6397705078125,-25.3448486328125
6.409999900000001,-0.4668693244457245,7.6997528076171875,-4.881777286529541,-3.7841796875,-57.1441650390625,-4.425048828125
6.4299999,-0.5650315880775452,7.95832633972168,-4.850652694702148,8.85009765625,-34.912109375,12.4053955078125
6.449999900000001,-0.667982280254364,8.17141056060791,-5.006275653839111,-2.99072265625,7.720947265625,-2.0294189453125
6.4699999,-0.5817909836769104,8.221688270568848,-5.1810526847839355,-5.55419921875,23.1781005859375,-23.7884521484375
6.489999900000001,-0.5147533416748047,8.360552787780762,-5.116408824920654,-28.7017822265625,6.2103271484375,-33.8134765625
6.5099999,-0.42856210470199585,8.329427719116211,-4.800374507904053,-43.3807373046875,-29.0985107421875,-4.058837890625
6.529999900000001,-0.4884171485900879,8.303091049194336,-4.469974517822266,-47.515869140625,-55.511474609375,17.02880859375
6.5499999,-0.7469909191131592,8.327033042907715,-4.393360137939453,-34.0118408203125,-66.71142578125,-25.787353515625
6.569999900000001,-0.9911994934082031,8.343792915344238,-4.458003520965576,-20.6451416015625,-25.146484375,-40.8782958984375
6.5899999000000005,-1.070208191871643,8.62630844116211,-4.709394931793213,-20.0042724609375,23.6663818359375,-30.1971435546875
6.609999900000001,-1.1779472827911377,9.126696586608887,-4.716577529907227,-69.1986083984375,43.4112548828125,-13.73291015625
6.6299999000000005,-1.1851298809051514,9.607931137084961,-4.704606533050537,-108.1695556640625,12.5274658203125,19.744873046875
6.649999900000001,-1.2641384601593018,9.849745750427246,-4.546588897705078,-75.836181640625,41.259765625,45.501708984375
6.6699999000000005,-1.3551181554794312,9.679757118225098,-4.355052947998047,-57.4188232421875,102.783203125,51.5289306640625
6.6899999,-1.2282254695892334,9.38048267364502,-4.017470359802246,-70.556640625,102.447509765625,18.4783935546875
6.709999900000001,-0.9840168952941895,9.251194953918457,-3.5242648124694824,-64.75830078125,62.225341796875,-11.1846923828125
6.7299999,-0.6775590777397156,9.282320022583008,-2.9017724990844727,-96.4202880859375,33.3404541015625,33.0657958984375
6.749999900000001,-0.3926490843296051,9.44991397857666,-2.6671407222747803,-55.7403564453125,18.3563232421875,74.127197265625
6.7699999,-0.181959331035614,9.464279174804688,-2.6216509342193604,1.15966796875,58.319091796875,49.1485595703125
6.789999900000001,0.002394201699644327,9.265560150146484,-2.784456491470337,-5.615234375,102.874755859375,15.655517578125
6.8099999,0.19393034279346466,9.08838939666748,-2.801215887069702,-36.5142822265625,101.37939453125,16.66259765625
6.829999900000001,0.42616790533065796,9.045293807983398,-2.492363929748535,-22.39990234375,76.141357421875,37.7197265625
6.8499999,0.5554547905921936,9.006986618041992,-2.0446481704711914,6.256103515625,33.1268310546875,51.6357421875
6.869999900000001,0.8044517636299133,8.875306129455566,-1.4844050407409668,-6.4849853515625,-1.373291015625,12.6495361328125
6.8899999,0.790086567401886,8.633491516113281,-1.2282254695892334,-23.2391357421875,-51.45263671875,-23.3154296875
6.909999900000001,0.9193734526634216,8.676587104797363,-1.036689281463623,-57.7545166015625,-54.5806884765625,-60.0128173828125
6.9299999,0.7972691655158997,9.033323287963867,-1.158793568611145,-78.30810546875,-40.4052734375,-47.607421875
6.949999900000001,0.689530074596405,9.567230224609375,-1.5418659448623657,5.0811767578125,-38.5589599609375,-7.1868896484375
6.9699999,0.5386953949928284,10.053253173828125,-1.965639591217041,35.3851318359375,10.162353515625,7.6141357421875
6.989999900000001,0.42856210470199585,10.17296314239502,-2.3247697353363037,11.9781494140625,53.64990234375,6.0882568359375
7.0099999,0.3926490843296051,10.053253173828125,-2.3367409706115723,-6.134033203125,39.276123046875,-1.4190673828125
7.029999900000001,0.35673606395721436,9.9000244140625,-2.0231003761291504,-30.57861328125,-9.1552734375,-14.495849609375
7.0499999,0.33758243918418884,9.821015357971191,-1.6974890232086182,3.7078857421875,-32.77587890625,-10.0860595703125
7.069999900000001,0.26336219906806946,9.730035781860352,-1.5322890281677246,38.8641357421875,-4.8370361328125,1.3275146484375
7.0899999000000005,0.2082955539226532,9.667786598205566,-1.6112977266311646,54.1229248046875,22.76611328125,-15.6707763671875
7.109999900000001,0.18914192914962769,9.586383819580078,-1.7310078144073486,39.00146484375,20.1568603515625,-32.3028564453125
7.1299999000000005,0.2082955539226532,9.440337181091309,-1.7549498081207275,-1.983642578125,-16.29638671875,-12.969970703125
7.149999900000001,0.24181437492370605,9.421183586120605,-1.7573440074920654,-18.9971923828125,-51.7425537109375,-5.767822265625
7.1699999000000005,0.2537853717803955,9.555258750915527,-1.9081788063049316,-10.1776123046875,-35.6597900390625,-18.5699462890625
7.1899999,0.21547815203666687,9.607931137084961,-2.011129379272461,-3.662109375,11.962890625,5.4779052734375
7.209999900000001,0.16998831927776337,9.677363395690918,-2.0661959648132324,-10.986328125,4.3487548828125,22.6287841796875
7.2299999,0.10773907601833344,9.653421401977539,-1.9321208000183105,-20.6451416015625,-36.07177734375,11.077880859375
7.249999900000001,0.047884032130241394,9.502586364746094,-1.656787633895874,-32.40966796875,-50.4913330078125,6.7138671875
7.2699999,-0.011971008032560349,9.289502143859863,-1.5298948287963867,-49.4232177734375,-52.3834228515625,13.0615234375
7.289999900000001,-0.05746084079146385,9.167398452758789,-1.5897499322891235,-54.9163818359375,-41.7633056640625,6.7138671875
7.3099999,-0.07422025501728058,9.047688484191895,-1.800439715385437,-30.6549072265625,-19.8211669921875,1.4190673828125
7.329999900000001,-0.08379705995321274,8.956708908081055,-2.0015525817871094,-6.2408447265625,3.0670166015625,1.7852783203125
7.3499999,-0.09816227108240128,8.937555313110352,-2.0661959648132324,-15.5792236328125,19.1802978515625,-1.5106201171875
7.369999900000001,-0.07900865375995636,9.05487060546875,-1.723825216293335,-21.2554931640625,27.252197265625,-12.39013671875
7.3899999,-0.090979665517807,9.311050415039062,-1.1851298809051514,-26.18408203125,-7.1563720703125,-11.810302734375
7.409999900000001,-0.07422025501728058,9.531316757202148,-0.7589619159698486,-15.2587890625,-67.596435546875,11.0931396484375
7.4299999,-0.040701430290937424,9.72285270690918,-0.586579442024231,-8.026123046875,-56.732177734375,16.9830322265625
7.449999900000001,0.019153613597154617,9.797073364257812,-0.8547300100326538,-10.650634765625,-9.6893310546875,-7.0953369140625
7.4699999,0.07182604819536209,9.739612579345703,-1.2880805730819702,7.293701171875,17.5933837890625,-6.77490234375
7.489999900000001,0.14365209639072418,9.691728591918945,-1.41257905960083,-2.593994140625,31.585693359375,8.8958740234375
7.5099999,0.19393034279346466,9.677363395690918,-1.3024457693099976,-18.6004638671875,6.4239501953125,1.3885498046875
7.529999900000001,0.2298433631658554,9.615114212036133,-1.0630255937576294,-9.307861328125,-23.284912109375,-1.6021728515625
7.5499999,0.23942017555236816,9.53849983215332,-0.8834604024887085,4.608154296875,-15.838623046875,1.3275146484375
7.569999900000001,0.24420857429504395,9.50498104095459,-0.9481038451194763,3.41796875,-2.532958984375,-11.474609375
7.5899999000000005,0.24181437492370605,9.466673851013184,-1.1540051698684692,3.23486328125,11.6729736328125,-14.4805908203125
7.609999900000001,0.21547815203666687,9.495404243469238,-1.3000515699386597,19.3328857421875,26.885986328125,-13.7786865234375
7.6299999000000005,0.18914192914962769,9.550470352172852,-1.3718775510787964,26.7333984375,26.85546875,-9.857177734375
7.649999900000001,0.16519992053508759,9.576807022094727,-1.3527239561080933,24.871826171875,15.4571533203125,-1.2359619140625
7.6699999000000005,0.14604631066322327,9.588777542114258,-1.2449848651885986,16.66259765625,14.1143798828125,-8.2855224609375
7.6899999,0.15801730751991272,9.62947940826416,-1.194706678390503,7.0648193359375,2.0751953125,-23.01025390625
7.709999900000001,0.17477671802043915,9.667786598205566,-1.314416766166687,10.3912353515625,-8.2550048828125,-22.5067138671875
7.7299999,0.17717093229293823,9.75397777557373,-1.5466543436050415,29.8309326171875,10.2386474609375,-10.4522705078125
7.749999900000001,0.181959331035614,9.864110946655273,-1.7980455160140991,43.5791015625,44.6319580078125,-12.3748779296875
7.7699999,0.17477671802043915,10.010157585144043,-1.9560627937316895,29.4036865234375,45.135498046875,-13.8702392578125
7.789999900000001,0.181959331035614,10.14902114868164,-2.032677173614502,29.8309326171875,23.0560302734375,0.3662109375
7.8099999,0.15801730751991272,10.125079154968262,-2.030282974243164,30.731201171875,25.6500244140625,18.463134765625
7.829999900000001,0.12449848651885986,10.067618370056152,-2.0853497982025146,50.9490966796875,43.8385009765625,4.4708251953125
7.8499999,0.0694318488240242,9.928754806518555,-2.188300371170044,67.5811767578125,54.5806884765625,-9.9029541015625
7.869999900000001,0.026336219161748886,9.739612579345703,-2.2864625453948975,70.2667236328125,49.0570068359375,5.2947998046875
7.8899999,0.047884032130241394,9.63187313079834,-2.456450939178467,65.826416015625,43.2891845703125,8.880615234375
7.909999900000001,0.10773907601833344,9.500192642211914,-2.6599581241607666,67.32177734375,49.6673583984375,-3.3721923828125
7.9299999,0.17477671802043915,9.299078941345215,-2.868253707885742,63.1561279296875,50.8880615234375,-6.4239501953125
7.949999900000001,0.26336219906806946,9.059659004211426,-3.0310592651367188,44.0826416015625,39.2608642578125,-9.33837890625
7.9699999,0.3280056416988373,8.99740982055664,-3.2130186557769775,34.942626953125,18.6614990234375,-29.296875
7.989999900000001,0.38546648621559143,8.973467826843262,-3.3949780464172363,42.449951171875,20.1873779296875,-20.599365234375
8.0099999,0.4668693244457245,9.078812599182129,-3.576937437057495,42.9840087890625,39.093017578125,3.2806396484375
8.0299999,0.5099649429321289,9.155426979064941,-3.7924153804779053,9.2315673828125,18.402099609375,12.1002197265625
8.049999900000001,0.5554547905921936,9.14585018157959,-3.9624037742614746,-15.4571533203125,-0.335693359375,3.7689208984375
8.069999900000001,0.5937620401382446,9.035717010498047,-4.0964789390563965,-12.420654296875,15.9912109375,-0.9765625
8.0899999,0.6607996821403503,8.918401718139648,-4.1611223220825195,-5.6304931640625,37.3687744140625,3.6163330078125
8.1099999,0.730231523513794,8.841787338256836,-4.151545524597168,-15.655517578125,27.435302734375,8.1024169921875
8.129999900000001,0.8236053586006165,8.923190116882324,-4.067748546600342,-20.6298828125,13.458251953125,7.2174072265625
8.149999900000001,0.8978256583213806,8.990227699279785,-4.031835556030273,-4.4708251953125,19.256591796875,17.303466796875
8.1699999,0.9050082564353943,9.040505409240723,-4.216189384460449,-5.706787109375,27.5726318359375,21.5301513671875
8.1899999,0.8810662031173706,9.006986618041992,-4.426878929138184,-12.1612548828125,50.5218505859375,7.354736328125
8.2099999,0.8475474119186401,8.973467826843262,-4.5154643058776855,-9.8419189453125,73.7457275390625,-6.9580078125
8.229999900000001,0.8068459630012512,8.923190116882324,-4.321534156799316,-0.823974609375,61.9659423828125,3.387451171875
8.2499999,0.7781155705451965,9.059659004211426,-3.691859006881714,4.6234130859375,41.961669921875,8.697509765625
8.2699999,0.7613561153411865,9.349357604980469,-2.8778305053710938,7.6751708984375,1.800537109375,-1.7852783203125
8.2899999,0.8236053586006165,9.603142738342285,-2.494758129119873,-8.3160400390625,-67.169189453125,11.4898681640625
8.309999900000001,0.8858546018600464,9.801861763000488,-2.4444799423217773,-1.2359619140625,-48.64501953125,33.5845947265625
8.3299999,1.072602391242981,9.72285270690918,-2.760514497756958,82.45849609375,10.101318359375,31.79931640625
8.3499999,1.2617442607879639,9.411606788635254,-3.445256233215332,87.46337890625,-3.936767578125,17.120361328125
8.3699999,1.4221558570861816,9.148244857788086,-4.110844135284424,27.8167724609375,-5.4931640625,-3.96728515625
8.389999900000001,1.5634137392044067,9.040505409240723,-4.754884719848633,14.556884765625,40.2374267578125,-12.26806640625
8.4099999,1.6041151285171509,8.987833023071289,-5.216965675354004,21.0113525390625,71.83837890625,15.31982421875
8.4299999,1.580173134803772,9.035717010498047,-5.355829238891602,-2.471923828125,46.142578125,13.0767822265625
8.4499999,1.4748282432556152,8.892065048217773,-5.058948040008545,-40.3594970703125,36.895751953125,-7.2784423828125
8.469999900000001,1.3024457693099976,8.674192428588867,-4.529829502105713,-57.403564453125,48.370361328125,-9.5977783203125
8.4899999,1.1803414821624756,8.655038833618164,-4.1156325340271,-62.6678466796875,48.6297607421875,-15.6707763671875
8.5099999,1.070208191871643,8.877699851989746,-3.976768970489502,-54.6112060546875,41.6259765625,-10.009765625
8.5299999,1.0438719987869263,9.133879661560059,-3.998316764831543,-18.890380859375,65.765380859375,12.6953125
8.549999900000001,1.0414776802062988,9.342175483703613,-4.091690540313721,6.2713623046875,85.8154296875,10.040283203125
8.569999900000001,1.05105459690094,9.337387084960938,-4.127603530883789,-2.5787353515625,66.2841796875,-10.1776123046875
8.5899999,1.0678139925003052,9.167398452758789,-3.9911341667175293,-8.880615234375,46.417236328125,-14.16015625
8.6099999,1.115697979927063,9.026140213012695,-3.734954595565796,0.79345703125,55.5877685546875,-2.1209716796875
8.629999900000001,1.1420341730117798,8.827422142028809,-3.584120035171509,-7.5836181640625,54.473876953125,13.7176513671875
8.649999900000001,1.1492167711257935,8.530540466308594,-3.5170822143554688,-20.8587646484375,43.51806640625,15.5792236328125
8.6699999,1.1444283723831177,8.360552787780762,-3.533841609954834,-17.6544189453125,50.9490966796875,-16.7236328125
8.6899999,1.137245774269104,8.367734909057617,-3.6822822093963623,-21.209716796875,50.384521484375,-26.0467529296875
8.709999900000001,1.1540051698684692,8.516175270080566,-3.7038300037384033,-17.5018310546875,61.0809326171875,8.9263916015625
8.729999900000001,1.2042834758758545,8.700529098510742,-3.56017804145813,-23.8037109375,82.8094482421875,26.4434814453125
8.7499999,1.2880805730819702,8.743624687194824,-3.318363666534424,-27.7862548828125,71.6400146484375,7.0648193359375
8.7699999,1.3335703611373901,8.62391471862793,-2.9065608978271484,-20.6146240234375,63.812255859375,-20.660400390625
8.7899999,1.4053963422775269,8.552088737487793,-2.4899697303771973,-23.2086181640625,60.9130859375,-11.199951171875
8.809999900000001,1.4700398445129395,8.523358345031738,-2.1715409755706787,-24.0936279296875,42.0684814453125,-3.41796875
8.8299999,1.4987702369689941,8.463502883911133,-1.800439715385437,-17.02880859375,47.8515625,-2.25830078125
8.8499999,1.4963760375976562,8.38688850402832,-1.4413094520568848,-22.4761962890625,61.1114501953125,-19.256591796875
8.8699999,1.4532804489135742,8.461109161376953,-1.0606313943862915,-28.38134765625,52.5360107421875,-26.06201171875
8.889999900000001,1.4173674583435059,8.846575736999512,-0.7589619159698486,-29.1900634765625,34.2254638671875,-27.0233154296875
8.9099999,1.3934253454208374,9.313444137573242,-0.6344634294509888,-28.9764404296875,32.073974609375,-6.561279296875
8.9299999,1.3958195447921753,9.708487510681152,-0.6631938815116882,1.8157958984375,53.7109375,11.5203857421875
8.9499999,1.41257905960083,9.950302124023438,-0.6416460275650024,22.0489501953125,62.5457763671875,-9.33837890625
8.969999900000001,1.400607943534851,10.086771965026855,-0.6009446382522583,11.505126953125,28.9459228515625,-20.599365234375
8.9899999,1.3862427473068237,10.103530883789062,-0.40222588181495667,13.3209228515625,7.781982421875,5.126953125
9.0099999,1.4245500564575195,9.959878921508789,-0.22505496442317963,30.7464599609375,8.9569091796875,24.169921875
9.0299999,1.4628572463989258,9.679757118225098,-0.272938996553421,0.18310546875,-9.368896484375,-1.8768310546875
9.049999900000001,1.5538369417190552,9.339780807495117,-0.4836287498474121,-15.838623046875,-10.25390625,-26.2451171875
9.069999900000001,1.6352397203445435,9.011775016784668,-0.8403648138046265,6.7596435546875,2.74658203125,-2.685546875
9.0899999,1.7190368175506592,8.760383605957031,-1.2641384601593018,2.2430419921875,7.1563720703125,17.669677734375
9.1099999,1.745373010635376,8.487444877624512,-1.5179238319396973,-48.2635498046875,12.7716064453125,-9.307861328125
9.129999900000001,1.745373010635376,8.236053466796875,-1.556231141090393,-72.265625,16.845703125,-35.6597900390625
9.149999900000001,1.647210717201233,8.157045364379883,-1.4077905416488647,-45.928955078125,5.889892578125,-35.400390625
9.1699999,1.5418659448623657,8.372523307800293,-1.1468225717544556,-30.3192138671875,-0.335693359375,-20.5535888671875
9.1899999,1.4437036514282227,8.858546257019043,-0.9768342971801758,-19.9432373046875,-6.9427490234375,-13.7786865234375
9.209999900000001,1.3479355573654175,9.265560150146484,-0.871489405632019,18.218994140625,-2.044677734375,2.7923583984375
9.229999900000001,1.3120225667953491,9.512163162231445,-0.8882488012313843,55.755615234375,11.53564453125,13.0615234375
9.2499999,1.2761094570159912,9.469067573547363,-0.8690952062606812,13.12255859375,19.134521484375,0.54931640625
9.2699999,1.2832920551300049,9.330204010009766,-0.9528923034667969,-15.3961181640625,3.8604736328125,-15.8843994140625
9.2899999,1.3120225667953491,9.17936897277832,-1.0558429956436157,-1.03759765625,-3.4332275390625,-17.88330078125
9.309999900000001,1.3551181554794312,8.990227699279785,-1.1300631761550903,15.533447265625,11.016845703125,-0.3662109375
9.3299999,1.3982137441635132,8.920795440673828,-1.2186486721038818,-7.1258544921875,2.105712890625,-9.857177734375
9.3499999,1.4221558570861816,8.884882926940918,-1.1803414821624756,-22.0489501953125,-13.73291015625,-28.4881591796875
9.3699999,1.4293384552001953,8.827422142028809,-1.1540051698684692,15.2130126953125,-15.8843994140625,-14.4500732421875
9.389999900000001,1.403002142906189,8.868123054504395,-1.115697979927063,7.32421875,-7.293701171875,-3.0975341796875
9.4099999,1.3766659498214722,8.935160636901855,-1.0342950820922852,-30.0750732421875,5.5999755859375,-19.6990966796875
9.4299999,1.3503297567367554,9.002198219299316,-0.9050082564353943,-27.5115966796875,-5.2947998046875,-23.651123046875
9.4499999,1.3096283674240112,9.033323287963867,-0.7541735172271729,3.0059814453125,-18.280029296875,-8.544921875
9.469999900000001,1.280897855758667,9.129091262817383,-0.7015010714530945,18.9971923828125,-20.32470703125,-8.5906982421875
9.4899999,1.2114660739898682,9.193734169006348,-0.8068459630012512,18.98193359375,-13.3819580078125,-18.9208984375
9.5099999,1.0845733880996704,9.378087997436523,-1.01753568649292,24.96337890625,-13.7786865234375,-19.561767578125
9.5299999,0.9552865028381348,9.68933391571045,-1.1994950771331787,53.6346435546875,-9.2315673828125,-10.7574462890625
9.549999900000001,0.8092401623725891,9.921571731567383,-1.2066776752471924,42.633056640625,0.030517578125,11.2762451171875
9.569999900000001,0.7230489253997803,9.950302124023438,-1.216254472732544,10.43701171875,-14.5111083984375,20.2789306640625
9.5899999,0.6751648783683777,9.749189376831055,-1.0893617868423462,13.9312744140625,-18.096923828125,-2.7923583984375
9.6099999,0.6200982332229614,9.35654067993164,-0.9074024558067322,12.115478515625,-13.824462890625,-15.289306640625
9.629999900000001,0.5602431893348694,9.047688484191895,-0.6871358752250671,-8.636474609375,-37.17041015625,-17.4560546875
9.649999900000001,0.40940847992897034,9.05487060546875,-0.49320554733276367,-16.815185546875,-75.7598876953125,-27.8778076171875
9.6699999,0.15083470940589905,8.908824920654297,-0.33518823981285095,20.0653076171875,-79.5440673828125,-19.22607421875
9.6899999,-0.033518824726343155,8.724471092224121,-0.6177040338516235,43.8690185546875,-81.0546875,-44.036865234375
9.709999900000001,-0.2346317619085312,8.927978515625,-1.137245774269104,30.8685302734375,-74.6917724609375,-124.20654296875
9.729999900000001,-0.23942017555236816,9.045293807983398,-1.8387469053268433,-30.4412841796875,-3.11279296875,-106.048583984375
9.7499999,-0.22505496442317963,9.552865028381348,-2.980781078338623,-36.529541015625,-20.3399658203125,-41.2750244140625
9.7699999,-0.23702596127986908,10.0580415725708,-3.7014358043670654,-6.3323974609375,25.1922607421875,-46.8902587890625
9.7899999,-0.3280056416988373,10.36449909210205,-4.244919776916504,18.6767578125,49.1485595703125,-45.4254150390625
9.809999900000001,-0.5339069962501526,10.579977035522461,-4.398148536682129,47.5311279296875,10.1318359375,-29.3731689453125
9.8299999,-0.7398083209991455,10.812214851379395,-4.122815132141113,35.3240966796875,19.95849609375,-7.476806640625
9.8499999,-0.8690952062606812,11.171344757080078,-3.73016619682312,20.7366943359375,46.4324951171875,1.0833740234375
9.8699999,-0.9409212470054626,11.252747535705566,-3.047818660736084,18.06640625,60.5316162109375,23.468017578125
9.889999900000001,-0.871489405632019,10.766724586486816,-2.4803929328918457,-0.3662109375,27.313232421875,48.248291015625
9.9099999,-0.7469909191131592,10.120290756225586,-1.9033904075622559,-0.9613037109375,10.4522705078125,-0.0762939453125
9.9299999,-0.6033388376235962,9.41639518737793,-1.5658079385757446,2.105712890625,32.77587890625,-40.679931640625
9.9499999,-0.47405192255973816,9.033323287963867,-1.6400281190872192,-5.8746337890625,25.2532958984375,-6.561279296875
9.969999900000001,-0.40222588181495667,9.057265281677246,-1.8148049116134644,-7.6446533203125,23.3001708984375,19.012451171875
9.9899999,-0.42856210470199585,9.263166427612305,-2.0374655723571777,-19.8974609375,35.33935546875,5.8135986328125
10.0099999,-0.524330198764801,9.387664794921875,-2.1380221843719482,-15.13671875,41.839599609375,-10.2996826171875
10.0299999,-0.6631938815116882,9.445125579833984,-2.169146776199341,11.8408203125,37.17041015625,-7.0953369140625
10.049999900000001,-0.7422025203704834,9.50498104095459,-2.0398597717285156,35.2783203125,37.3382568359375,-6.3323974609375
10.069999900000001,-0.6847416758537292,9.636661529541016,-1.8124107122421265,24.2767333984375,35.797119140625,-16.1895751953125
10.0899999,-0.5746083855628967,9.591172218322754,-1.7549498081207275,-16.11328125,12.725830078125,1.800537109375
10.1099999,-0.40940847992897034,9.696516990661621,-1.6304513216018677,-16.357421875,15.68603515625,0.67138671875
10.129999900000001,-0.3447650372982025,9.648633003234863,-1.5705963373184204,-1.434326171875,31.1279296875,0.54931640625
10.149999900000001,-0.3734954595565796,9.600749015808105,-1.4987702369689941,-3.11279296875,20.3094482421875,6.683349609375
10.1699999,-0.43335050344467163,9.57441234588623,-1.400607943534851,-8.97216796875,15.533447265625,-5.7373046875
10.1899999,-0.5027823448181152,9.526528358459473,-1.4053963422775269,-10.986328125,11.566162109375,-1.5869140625
10.209999900000001,-0.5363011956214905,9.634267807006836,-1.5969325304031372,-6.439208984375,14.8162841796875,0.7171630859375
10.229999900000001,-0.5482721924781799,9.6989107131958,-1.86508309841156,2.5482177734375,24.505615234375,8.2244873046875
10.2499999,-0.5147533416748047,9.622296333312988,-2.0685901641845703,13.48876953125,29.3121337890625,15.9912109375
10.2699999,-0.44532153010368347,9.44991397857666,-2.1787235736846924,6.2255859375,20.1416015625,0.8697509765625
10.2899999,-0.33758243918418884,9.162610054016113,-2.190694570541382,-2.0599365234375,11.383056640625,-11.41357421875
10.309999900000001,-0.22744916379451752,8.939949035644531,-2.1356279850006104,2.593994140625,25.0701904296875,-14.739990234375
10.3299999,-0.1388636976480484,8.96149730682373,-2.0614075660705566,2.5634765625,31.829833984375,-22.2930908203125
10.3499999,-0.10534487664699554,9.035717010498047,-1.946485996246338,7.0953369140625,18.9666748046875,-13.24462890625
10.3699999,-0.08619125932455063,9.102754592895508,-1.7908629179000854,14.190673828125,10.6964111328125,-1.7852783203125
10.389999900000001,-0.11252748221158981,9.239224433898926,-1.7501614093780518,7.62939453125,7.415771484375,-14.6484375
10.4099999,-0.11971008777618408,9.385271072387695,-1.8195933103561401,2.6702880859375,5.0201416015625,-15.7012939453125
10.4299999,-0.15083470940589905,9.445125579833984,-2.006340980529785,0.18310546875,4.0740966796875,3.265380859375
10.4499999,-0.16998831927776337,9.5408935546875,-2.2601263523101807,3.143310546875,-0.9765625,-0.1220703125
10.469999900000001,-0.181959331035614,9.567230224609375,-2.451662540435791,5.6610107421875,4.4403076171875,-16.937255859375
10.4899999,-0.17238251864910126,9.500192642211914,-2.607285737991333,0.3509521484375,2.3956298828125,-12.4359130859375
10.5099999,-0.17717093229293823,9.44991397857666,-2.6815059185028076,-7.8125,0.1373291015625,-6.439208984375
10.5299999,-0.19632454216480255,9.258378028869629,-2.7246015071868896,-8.1024169921875,-3.5400390625,-17.39501953125
10.549999900000001,-0.272938996553421,8.99740982055664,-2.7461493015289307,6.7901611328125,-11.5203857421875,-48.64501953125
10.569999900000001,-0.33758243918418884,8.913613319396973,-2.6862943172454834,13.0157470703125,-17.059326171875,-78.0792236328125
10.5899999,-0.40701428055763245,9.011775016784668,-2.7461493015289307,-24.322509765625,-21.17919921875,-54.595947265625
10.6099999,-0.5674257874488831,9.251194953918457,-2.913743495941162,-19.6380615234375,-13.1378173828125,-2.197265625
10.629999900000001,-0.7589619159698486,9.44991397857666,-2.889801502227783,21.148681640625,39.9932861328125,-3.7689208984375
10.649999900000001,-1.015141487121582,9.361329078674316,-2.779668092727661,33.2794189453125,39.093017578125,-24.7344970703125
10.6699999,-1.2761094570159912,9.059659004211426,-2.4660277366638184,39.9322509765625,-17.822265625,-40.557861328125
10.6899999,-1.4245500564575195,8.889671325683594,-2.145204782485962,28.50341796875,-38.5284423828125,-51.1627197265625
10.709999900000001,-1.5107412338256836,8.9064302444458,-2.1164743900299072,-14.09912109375,-1.4495849609375,-38.4368896484375
10.729999900000001,-1.5921441316604614,9.071630477905273,-2.3104045391082764,-26.9622802734375,39.4744873046875,-5.5999755859375
10.7499999,-1.647210717201233,9.41639518737793,-2.3319525718688965,-22.3388671875,52.7191162109375,-5.950927734375
10.7699999,-1.6879122257232666,9.516951560974121,-2.2888567447662354,-28.411865234375,12.298583984375,-4.1046142578125
10.7899999,-1.6950948238372803,9.552865028381348,-2.2385785579681396,-18.5089111328125,-25.8941650390625,-2.9754638671875
10.809999900000001,-1.680729627609253,9.543288230895996,-2.190694570541382,-10.2081298828125,-0.091552734375,-9.6893310546875
10.8299999,-1.7046716213226318,9.639056205749512,-2.410961151123047,-18.4173583984375,13.336181640625,-2.3040771484375
10.8499999,-1.7334020137786865,9.739612579345703,-2.7700912952423096,-19.7601318359375,-0.48828125,15.625
10.8699999,-1.745373010635376,9.713275909423828,-2.896984100341797,-7.1868896484375,19.561767578125,21.1334228515625
10.889999900000001,-1.7142484188079834,9.576807022094727,-3.098097085952759,-0.9613037109375,20.0347900390625,4.69970703125
10.9099999,-1.6089035272598267,9.299078941345215,-3.1196448802948,5.37109375,16.0369873046875,-0.244140625
10.9299999,-1.4724340438842773,8.96389102935791,-3.004723072052002,5.462646484375,25.4364013671875,7.049560546875
10.9499999,-1.359906554222107,8.798690795898438,-2.8347349166870117,-4.33349609375,19.4091796875,1.434326171875
10.969999900000001,-1.3215993642807007,8.69334602355957,-2.5306711196899414,-11.16943359375,22.52197265625,-7.415771484375
10.9899999,-1.359906554222107,8.78193187713623,-2.2409727573394775,-7.1563720703125,18.951416015625,-5.18798828125
11.0099999,-1.460463047027588,8.98543930053711,-1.9728221893310547,1.77001953125,14.1448974609375,3.7078857421875
11.0299999,-1.5634137392044067,9.244012832641602,-1.7717092037200928,2.5177001953125,16.143798828125,9.5062255859375
11.049999900000001,-1.623268723487854,9.351752281188965,-1.7525556087493896,0.5340576171875,8.5296630859375,8.4686279296875
11.069999900000001,-1.6376339197158813,9.457097053527832,-1.7908629179000854,4.241943359375,12.3443603515625,-0.9918212890625
11.0899999,-1.6089035272598267,9.440337181091309,-1.9536685943603516,2.7008056640625,18.1732177734375,3.1280517578125
11.1099999,-1.5538369417190552,9.375694274902344,-2.142810583114624,1.190185546875,17.852783203125,14.8162841796875
11.129999900000001,-1.45806884765625,9.294290542602539,-2.2816741466522217,0.823974609375,18.3258056640625,7.8582763671875
11.149999900000001,-1.3527239561080933,9.11233139038086,-2.4133553504943848,-1.9378662109375,8.1024169921875,2.8839111328125
11.1699999,-1.2186486721038818,8.96389102935791,-2.4684219360351562,2.9754638671875,12.0697021484375,4.1961669921875
11.1899999,-1.1013327836990356,8.755595207214355,-2.47560453414917,1.1444091796875,17.0440673828125,9.5062255859375
11.209999900000001,-1.0247182846069336,8.71489429473877,-2.454056739807129,-13.2598876953125,17.3797607421875,-2.8533935546875
11.229999900000001,-1.0079588890075684,8.700529098510742,-2.360682964324951,-16.5557861328125,16.0980224609375,-10.8489990234375
11.2499999,-1.0630255937576294,8.865729331970215,-2.2170307636260986,-9.5672607421875,15.56396484375,-7.232666015625
11.2699999,-1.1779472827911377,9.196128845214844,-2.123656988143921,-10.43701171875,3.3416748046875,-3.448486328125
11.2899999,-1.2952631711959839,9.512163162231445,-2.0398597717285156,-7.476806640625,-0.244140625,5.5694580078125
11.309999900000001,-1.3742717504501343,9.701305389404297,-1.9512743949890137,-1.89208984375,3.0517578125,8.9874267578125
11.3299999,-1.4245500564575195,9.792284965515137,-1.9273324012756348,-7.4005126953125,-5.7220458984375,0.91552734375
11.3499999,-1.4484920501708984,9.830592155456543,-1.9608511924743652,-4.8980712890625,-15.228271484375,-0.54931640625
11.3699999,-1.4532804489135742,9.825803756713867,-2.056619167327881,7.720947265625,-0.18310546875,12.51220703125
11.389999900000001,-1.4197616577148438,9.806650161743164,-2.1356279850006104,5.7525634765625,18.61572265625,17.333984375
11.4099999,-1.3311761617660522,9.68933391571045,-2.231395959854126,0.7476806640625,2.1820068359375,12.14599609375
11.4299999,-1.1779472827911377,9.442731857299805,-2.209848165512085,-0.0152587890625,-10.19287109375,8.4991455078125
11.4499999,-1.036689281463623,9.193734169006348,-2.118868589401245,-1.129150390625,-1.9073486328125,4.4403076171875
11.469999900000001,-0.9457096457481384,9.217676162719727,-2.145204782485962,-2.227783203125,9.46044921875,-0.5645751953125
11.4899999,-0.9481038451194763,9.425971984863281,-2.2409727573394775,-11.41357421875,39.4439697265625,13.1378173828125
11.5099999,-1.0103530883789062,9.713275909423828,-2.145204782485962,-28.74755859375,80.780029296875,32.0892333984375
11.5299999,-1.0342950820922852,9.885659217834473,-1.946485996246338,-8.4686279296875,60.9283447265625,28.7017822265625
11.549999900000001,-0.9840168952941895,9.773131370544434,-1.6208745241165161,8.026123046875,10.4827880859375,18.707275390625
11.569999900000001,-0.8523358106613159,9.50737476348877,-1.3479355573654175,5.035400390625,-4.6539306640625,9.2315673828125
11.5899999,-0.6823474764823914,9.301473617553711,-1.2713210582733154,3.814697265625,10.4522705078125,7.080078125
11.6099999,-0.5434837937355042,9.181763648986816,-1.4700398445129395,-4.3182373046875,15.045166015625,9.185791015625
11.629999900000001,-0.45250412821769714,9.124302864074707,-1.6543933153152466,-4.486083984375,14.007568359375,9.21630859375
11.649999900000001,-0.4189853072166443,9.172186851501465,-1.8171991109848022,-3.1585693359375,12.5579833984375,-3.814697265625
11.6699999,-0.42377370595932007,9.124302864074707,-1.8363527059555054,1.0986328125,10.2691650390625,-0.091552734375
11.6899999,-0.49559974670410156,9.220070838928223,-1.824381709098816,-5.523681640625,2.044677734375,-2.1514892578125
11.709999900000001,-0.5985504388809204,9.351752281188965,-1.8052281141281128,-11.1846923828125,-1.678466796875,-4.2266845703125
11.729999900000001,-0.7350199222564697,9.476250648498535,-1.7764976024627686,-7.8125,6.4239501953125,0.396728515625
11.7499999,-0.8762778043746948,9.5624418258667,-1.7405846118927002,-0.5340576171875,8.5906982421875,4.852294921875
11.7699999,-0.9983820915222168,9.68933391571045,-1.702277421951294,4.6234130859375,-0.640869140625,1.220703125
11.7899999,-1.0342950820922852,9.651026725769043,-1.6136919260025024,7.6141357421875,-2.3651123046875,8.3770751953125
11.809999900000001,-0.9552865028381348,9.555258750915527,-1.5466543436050415,7.5836181640625,-3.0517578125,10.986328125
11.8299999,-0.7733271718025208,9.332598686218262,-1.5107412338256836,1.2359619140625,-11.9171142578125,0.0762939453125
11.8499999,-0.5746083855628967,9.129091262817383,-1.5442601442337036,-6.34765625,-25.054931640625,-13.6871337890625
11.8699999,-0.42856210470199585,9.17697525024414,-1.6903064250946045,-11.5814208984375,-21.78955078125,-17.425537109375
11.889999900000001,-0.3902548849582672,9.287108421325684,-1.7836803197860718,-5.3253173828125,0.579833984375,2.044677734375
11.9099999,-0.43095630407333374,9.564835548400879,-1.9345149993896484,-3.753662109375,3.4332275390625,5.9356689453125
11.9299999,-0.5027823448181152,9.761159896850586,-1.9800047874450684,-3.2501220703125,-3.814697265625,-2.8076171875
11.9499999,-0.5506663918495178,9.75637149810791,-2.0039467811584473,3.0975341796875,-5.9967041015625,1.8463134765625
11.969999900000001,-0.5817909836769104,9.691728591918945,-1.9991583824157715,-1.15966796875,-8.514404296875,2.74658203125
11.9899999,-0.6033388376235962,9.576807022094727,-2.0015525817871094,-6.2103271484375,-9.33837890625,-3.204345703125
12.0099999,-0.629675030708313,9.423578262329102,-1.9297266006469727,-6.256103515625,-7.4310302734375,-3.265380859375
12.0299999,-0.7110779285430908,9.311050415039062,-1.702277421951294,-3.3416748046875,-4.0435791015625,-2.2735595703125
12.049999900000001,-0.8738836050033569,9.284713745117188,-1.3335703611373901,0.732421875,-10.1318359375,-3.265380859375
12.069999900000001,-1.1013327836990356,9.332598686218262,-0.8212111592292786,0.1068115234375,-24.10888671875,-4.608154296875
12.0899999,-1.4437036514282227,9.488221168518066,-0.22026655077934265,-4.0435791015625,-32.6995849609375,0.0762939453125
12.1099999,-1.8842366933822632,9.816226959228516,0.38546648621559143,-3.3111572265625,-34.515380859375,3.6773681640625
12.129999900000001,-2.4157495498657227,10.010157585144043,0.9672574996948242,7.50732421875,-41.8243408203125,19.8822021484375
12.149999900000001,-3.028665065765381,10.137049674987793,1.5418659448623657,9.307861328125,-56.4422607421875,19.683837890625
12.1699999,-3.73016619682312,10.24239444732666,2.0207061767578125,-9.9334716796875,-82.794189453125,4.150390625
12.1899999,-4.491522312164307,10.405200958251953,2.4660277366638184,-17.059326171875,-88.07373046875,5.157470703125
12.209999900000001,-5.329493045806885,10.682928085327148,3.0095114707946777,3.7078857421875,-73.150634765625,28.106689453125
12.229999900000001,-6.19379997253418,11.051634788513184,3.598485231399536,15.2130126953125,-88.714599609375,38.51318359375
12.2499999,-7.050923824310303,11.190498352050781,4.244919776916504,7.6141357421875,-129.3487548828125,42.266845703125
12.2699999,-7.989450931549072,11.216835021972656,5.011064052581787,-0.6103515625,-138.12255859375,37.261962890625
12.289999900000002,-9.069235801696777,11.207258224487305,5.461174011230469,-15.44189453125,-169.3878173828125,34.4085693359375
12.309999900000001,-10.307038307189941,11.259930610656738,5.748478412628174,-27.5115966796875,-205.963134765625,43.8385009765625
12.3299999,-11.63103199005127,11.209651947021484,5.9735331535339355,-20.1568603515625,-208.038330078125,53.1463623046875
12.3499999,-12.899958610534668,11.082759857177734,5.846640586853027,-5.8746337890625,-248.2757568359375,47.5006103515625
12.3699999,-14.00607967376709,10.824186325073242,5.612008571624756,4.302978515625,-288.9404296875,41.6107177734375
12.389999900000001,-14.932636260986328,10.697293281555176,4.90571928024292,5.92041015625,-310.699462890625,49.1180419921875
12.4099999,-15.574281692504883,10.663774490356445,3.5960910320281982,-18.707275390625,-344.1925048828125,66.7266845703125
12.4299999,-16.115371704101562,10.893617630004883,2.1164743900299072,-37.017822265625,-348.5870361328125,72.906494140625
12.4499999,-16.58224105834961,11.382035255432129,0.2537853717803955,-12.7716064453125,-378.1280517578125,70.953369140625
12.469999900000001,-16.804901123046875,11.470620155334473,-2.535459518432617,61.6607666015625,-460.601806640625,116.8670654296875
12.4899999,-16.338031768798828,10.295066833496094,-7.314286231994629,74.8443603515625,-498.9013671875,186.4471435546875
12.5099999,-15.06910514831543,8.513781547546387,-12.318167686462402,-103.21044921875,-331.329345703125,104.156494140625
12.5299999,-13.057975769042969,7.0772600173950195,-16.95573616027832,-149.3072509765625,-196.7620849609375,-41.5802001953125
12.549999900000001,-10.457873344421387,6.0405707359313965,-20.65717315673828,-28.99169921875,-295.745849609375,3.6468505859375
12.569999900000001,-7.824251174926758,6.428431510925293,-21.7010440826416,5.8135986328125,-239.959716796875,73.5015869140625
12.5899999,-5.475539207458496,7.620744228363037,-21.543025970458984,-101.287841796875,-114.166259765625,18.6767578125
12.6099999,-3.3518824577331543,8.544905662536621,-20.04425621032715,-106.4453125,-103.9581298828125,-3.41796875
12.629999900000001,-1.5945383310317993,8.956708908081055,-17.717092514038086,-6.1187744140625,-138.824462890625,43.3807373046875
12.649999900000001,-0.24420857429504395,8.966285705566406,-14.535198211669922,13.73291015625,-115.0360107421875,43.426513671875
12.6699999,0.7469909191131592,8.468291282653809,-11.396400451660156,-13.1378173828125,-56.304931640625,-2.2125244140625
12.6899999,1.3527239561080933,7.864952564239502,-8.647856712341309,-5.1422119140625,-70.770263671875,-7.598876953125
12.709999900000001,1.7118542194366455,7.419631004333496,-6.44279670715332,26.4739990234375,-92.681884765625,22.7508544921875
12.729999900000001,1.8842366933822632,7.053318023681641,-5.228936672210693,31.92138671875,-78.91845703125,35.64453125
12.7499999,2.006340980529785,6.766014099121094,-4.747702121734619,-2.3040771484375,-44.342041015625,0.5035400390625
12.7699999,2.0183119773864746,6.845022678375244,-4.817133903503418,-23.834228515625,-41.9158935546875,-30.1971435546875
12.789999900000002,1.8818424940109253,7.376535415649414,-4.776432514190674,3.3111572265625,-39.886474609375,-5.0201416015625
12.809999900000001,1.6855180263519287,8.197746276855469,-4.7405195236206055,28.6865234375,-32.28759765625,28.961181640625
12.8299999,1.5466543436050415,8.848969459533691,-4.7405195236206055,1.0223388671875,-19.195556640625,17.3187255859375
12.8499999,1.5059528350830078,9.040505409240723,-4.577713489532471,-27.618408203125,3.0517578125,-14.9383544921875
12.8699999,1.4963760375976562,9.004592895507812,-4.235342979431152,-22.8118896484375,-1.40380859375,-23.956298828125
12.889999900000001,1.4197616577148438,9.14345645904541,-3.584120035171509,-5.218505859375,-8.758544921875,-9.58251953125
12.9099999,1.2952631711959839,9.430760383605957,-2.6599581241607666,-2.5482177734375,10.68115234375,5.0811767578125
12.9299999,1.194706678390503,9.679757118225098,-1.9057846069335938,-15.1519775390625,11.41357421875,3.41796875
12.9499999,1.1180921792984009,9.749189376831055,-1.2258312702178955,-8.48388671875,9.6282958984375,-2.1514892578125
12.969999900000001,1.094150185585022,9.610325813293457,-0.8020575642585754,11.3983154296875,0.5645751953125,-5.340576171875
12.9899999,1.115697979927063,9.378087997436523,-0.7374141216278076,11.3525390625,-3.9520263671875,-4.08935546875
13.0099999,1.137245774269104,9.220070838928223,-0.8906430602073669,-14.2364501953125,6.7138671875,-7.1258544921875
13.0299999,1.139639973640442,9.160215377807617,-1.0821791887283325,-22.8424072265625,24.444580078125,-9.94873046875
13.049999900000001,1.0821791887283325,9.287108421325684,-1.1851298809051514,-4.119873046875,20.0347900390625,-10.25390625
13.069999900000001,0.9864110946655273,9.430760383605957,-1.0869675874710083,19.622802734375,10.0250244140625,-5.340576171875
13.0899999,0.8954314589500427,9.579200744628906,-1.0534487962722778,23.8189697265625,6.0577392578125,-3.2501220703125
13.1099999,0.8307880163192749,9.679757118225098,-1.1037269830703735,4.3182373046875,12.26806640625,-7.7056884765625
13.129999900000001,0.8188169598579407,9.617507934570312,-1.2401964664459229,0.274658203125,21.3623046875,-4.058837890625
13.149999900000001,0.790086567401886,9.634267807006836,-1.3623007535934448,1.190185546875,23.0712890625,-3.875732421875
13.1699999,0.7613561153411865,9.674968719482422,-1.2617442607879639,-12.298583984375,29.1900634765625,-7.7056884765625
13.1899999,0.7422025203704834,9.770736694335938,-1.0582371950149536,-5.3558349609375,32.928466796875,-2.13623046875
13.209999900000001,0.7182605266571045,9.84256362915039,-0.8882488012313843,-2.44140625,19.6533203125,2.7923583984375
13.229999900000001,0.7134721279144287,9.909601211547852,-0.6607996821403503,-1.3427734375,26.611328125,-1.708984375
13.2499999,0.6967126727104187,9.86650562286377,-0.5027823448181152,3.4027099609375,24.5513916015625,-1.861572265625
13.2699999,0.6727706789970398,9.897629737854004,-0.35913026332855225,5.5999755859375,13.9923095703125,-0.1220703125
13.289999900000002,0.646434485912323,9.871294021606445,-0.2513911724090576,0.8392333984375,7.293701171875,4.2877197265625
13.309999900000001,0.6392518281936646,9.859322547912598,-0.2968810200691223,3.265380859375,9.3841552734375,5.0201416015625
13.3299999,0.6440402865409851,9.765948295593262,-0.4141969084739685,11.1083984375,17.4560546875,1.2969970703125
13.3499999,0.667982280254364,9.6989107131958,-0.569819986820221,7.843017578125,18.4326171875,-3.3721923828125
13.3699999,0.6751648783683777,9.682151794433594,-0.6129156351089478,0.396728515625,14.251708984375,-1.2664794921875
13.389999900000001,0.6775590777397156,9.742006301879883,-0.6105214357376099,3.0059814453125,9.7503662109375,4.974365234375
13.4099999,0.6655880808830261,9.804255485534668,-0.5434837937355042,7.6904296875,12.542724609375,7.4920654296875
13.4299999,0.6392518281936646,9.84495735168457,-0.47644615173339844,10.5438232421875,16.66259765625,4.9896240234375
13.4499999,0.6057330369949341,9.880870819091797,-0.4381389021873474,6.28662109375,10.3607177734375,2.166748046875
13.469999900000001,0.5889736413955688,9.861717224121094,-0.3902548849582672,1.7242431640625,4.7760009765625,7.4615478515625
13.4899999,0.6129156351089478,9.792284965515137,-0.4620809257030487,10.1776123046875,2.0294189453125,11.7340087890625
13.5099999,0.6536170840263367,9.682151794433594,-0.6129156351089478,14.1143798828125,9.2010498046875,8.1634521484375
13.5299999,0.6967126727104187,9.624691009521484,-0.751779317855835,0.48828125,17.822265625,1.4495849609375
13.549999900000001,0.7110779285430908,9.588777542114258,-0.8643068075180054,-9.0179443359375,10.6353759765625,5.615234375
13.569999900000001,0.7254431247711182,9.567230224609375,-0.8379706144332886,-2.288818359375,4.0435791015625,10.2386474609375
13.5899999,0.751779317855835,9.445125579833984,-0.7972691655158997,-1.1138916015625,0.885009765625,2.2430419921875
13.6099999,0.7948749661445618,9.248801231384277,-0.751779317855835,-11.1236572265625,2.1209716796875,-12.3443603515625
13.629999900000001,0.8068459630012512,9.150638580322266,-0.6655880808830261,-10.92529296875,5.4779052734375,-21.66748046875
13.649999900000001,0.7876923680305481,9.282320022583008,-0.5937620401382446,-6.7901611328125,-0.579833984375,-16.6778564453125
13.6699999,0.7374141216278076,9.485827445983887,-0.4620809257030487,-6.8359375,0.9613037109375,0.6103515625
13.6899999,0.6703764796257019,9.749189376831055,-0.3471592366695404,-3.7078857421875,5.828857421875,2.1209716796875
13.709999900000001,0.6105214357376099,9.9000244140625,-0.29209262132644653,4.0283203125,6.2255859375,-4.5013427734375
13.729999900000001,0.5770025849342346,9.830592155456543,-0.2944868206977844,9.21630859375,2.62451171875,1.2054443359375
13.7499999,0.5626373887062073,9.684545516967773,-0.3687070608139038,4.8675537109375,-0.30517578125,-0.7476806640625
13.7699999,0.5674257874488831,9.53849983215332,-0.5315127968788147,-5.31005859375,0.8544921875,-11.8255615234375
13.789999900000002,0.569819986820221,9.428366661071777,-0.6248866319656372,-5.035400390625,10.3759765625,-8.148193359375
13.809999900000001,0.5554547905921936,9.495404243469238,-0.6512228846549988,-1.1138916015625,9.796142578125,-1.9073486328125
13.8299999,0.5291185975074768,9.607931137084961,-0.5482721924781799,0.8392333984375,3.72314453125,2.227783203125
13.8499999,0.49799394607543945,9.6989107131958,-0.3663128614425659,2.685546875,3.326416015625,-0.1220703125
13.8699999,0.4908113479614258,9.701305389404297,-0.2537853717803955,1.4801025390625,-2.74658203125,-6.8511962890625
13.889999900000001,0.49559974670410156,9.651026725769043,-0.2513911724090576,5.7373046875,-8.331298828125,-7.720947265625
13.9099999,0.5315127968788147,9.579200744628906,-0.35913026332855225,7.4005126953125,-5.43212890625,-4.150390625
13.9299999,0.5841852426528931,9.560047149658203,-0.5339069962501526,3.4942626953125,-1.220703125,-3.8909912109375
13.9499999,0.6512228846549988,9.557653427124023,-0.6727706789970398,-0.4730224609375,3.814697265625,-2.3956298828125
13.969999900000001,0.7038952708244324,9.516951560974121,-0.7134721279144287,6.103515625,6.5155029296875,2.532958984375
13.9899999,0.7422025203704834,9.502586364746094,-0.7182605266571045,9.6893310546875,0.885009765625,-0.732421875
14.0099999,0.768538773059845,9.44991397857666,-0.7182605266571045,1.52587890625,-1.6326904296875,-4.69970703125
14.0299999,0.7757213711738586,9.442731857299805,-0.7493851184844971,-5.9051513671875,3.3416748046875,-5.279541015625
14.049999900000001,0.7541735172271729,9.493009567260742,-0.7709329724311829,1.8310546875,7.14111328125,-5.9661865234375
14.069999900000001,0.6991068720817566,9.639056205749512,-0.7829039692878723,12.0849609375,5.9814453125,-3.11279296875
14.0899999,0.6607996821403503,9.710882186889648,-0.811634361743927,9.1094970703125,2.044677734375,5.0506591796875
14.1099999,0.6536170840263367,9.725247383117676,-0.849941611289978,3.2196044921875,7.9498291015625,7.1868896484375
14.129999900000001,0.6727706789970398,9.66539192199707,-0.8930372595787048,-2.471923828125,14.0533447265625,-3.0364990234375
14.149999900000001,0.6967126727104187,9.543288230895996,-0.8619126081466675,-4.302978515625,8.697509765625,-4.7760009765625
14.1699999,0.6751648783683777,9.50737476348877,-0.7924807667732239,-5.5389404296875,-3.23486328125,-4.7760009765625
14.1899999,0.6320692300796509,9.531316757202148,-0.6967126727104187,-1.495361328125,-2.655029296875,-3.3111572265625
14.209999900000001,0.5817909836769104,9.600749015808105,-0.7182605266571045,-0.18310546875,-1.678466796875,-1.3580322265625
14.229999900000001,0.5506663918495178,9.694122314453125,-0.8020575642585754,-2.6092529296875,1.708984375,-0.6103515625
14.2499999,0.5530605912208557,9.718064308166504,-0.8810662031173706,-3.082275390625,6.622314453125,4.669189453125
14.2699999,0.5602431893348694,9.691728591918945,-0.9050082564353943,-4.3792724609375,7.4310302734375,5.096435546875
14.289999900000002,0.5817909836769104,9.670180320739746,-0.8140285611152649,-2.532958984375,6.34765625,-2.38037109375
14.309999900000001,0.608127236366272,9.564835548400879,-0.7254431247711182,1.2054443359375,1.64794921875,-1.190185546875
14.3299999,0.6224924325942993,9.488221168518066,-0.6607996821403503,-3.692626953125,-0.3662109375,-1.0833740234375
14.3499999,0.6200982332229614,9.50737476348877,-0.6512228846549988,-9.58251953125,3.5552978515625,-8.056640625
14.3699999,0.5961562395095825,9.543288230895996,-0.667982280254364,-7.476806640625,6.2255859375,-3.509521484375
14.389999900000001,0.5554547905921936,9.66299819946289,-0.6512228846549988,-6.34765625,4.4708251953125,-0.1068115234375
14.4099999,0.507570743560791,9.75397777557373,-0.6057330369949341,-10.162353515625,3.5552978515625,-2.7313232421875
14.4299999,0.4812345504760742,9.742006301879883,-0.6344634294509888,-16.0064697265625,3.3416748046875,-3.0517578125
14.4499999,0.43335050344467163,9.799467086791992,-0.5913678407669067,-22.8271484375,14.678955078125,-5.706787109375
14.469999900000001,0.4429273009300232,9.746794700622559,-0.45489832758903503,-24.6124267578125,30.242919921875,8.2244873046875
14.4899999,0.4429273009300232,9.619902610778809,-0.3878606855869293,-9.124755859375,10.2691650390625,18.280029296875
14.5099999,0.47644615173339844,9.569623947143555,-0.2849099934101105,15.1214599609375,10.19287109375,-7.6446533203125
14.5299999,0.5219359993934631,9.457097053527832,-0.3232172429561615,14.22119140625,29.5257568359375,-16.4337158203125
14.549999900000001,0.5578489899635315,9.3828763961792,-0.5363011956214905,9.2010498046875,17.9901123046875,-0.2593994140625
14.569999900000001,0.5626373887062073,9.421183586120605,-0.7350199222564697,6.2255859375,7.9803466796875,-2.6702880859375
14.5899999,0.545877993106842,9.47146224975586,-0.7972691655158997,3.9520263671875,13.824462890625,-13.580322265625
14.6099999,0.5267243981361389,9.519346237182617,-0.8930372595787048,0.274658203125,5.950927734375,-7.965087890625
14.629999900000001,0.507570743560791,9.639056205749512,-0.8355764150619507,5.8746337890625,10.8795166015625,-0.6866455078125
14.649999900000001,0.507570743560791,9.758766174316406,-0.7469909191131592,15.228271484375,20.01953125,3.0670166015625
14.6699999,0.507570743560791,9.919178009033203,-0.667982280254364,14.556884765625,8.1634521484375,1.678466796875
14.6899999,0.5746083855628967,9.861717224121094,-0.3974374830722809,29.11376953125,-11.3525390625,14.9383544921875
14.709999900000001,0.6033388376235962,9.715670585632324,-0.33518823981285095,36.895751953125,-16.1285400390625,5.6304931640625
14.729999900000001,0.646434485912323,9.519346237182617,-0.42616790533065796,37.2161865234375,-7.659912109375,2.01416015625
14.7499999,0.646434485912323,9.399636268615723,-0.5650315880775452,26.1688232421875,3.4637451171875,4.730224609375
14.7699999,0.6512228846549988,9.390059471130371,-0.871489405632019,15.869140625,1.0833740234375,4.0283203125
14.789999900000002,0.6631938815116882,9.301473617553711,-1.139639973640442,19.9127197265625,3.6163330078125,8.60595703125
14.809999900000001,0.6871358752250671,9.255983352661133,-1.4101848602294922,26.4434814453125,7.7362060546875,-2.593994140625
14.8299999,0.7254431247711182,9.306262016296387,-1.6280571222305298,25.909423828125,9.7808837890625,-14.190673828125
14.8499999,0.7613561153411865,9.394847869873047,-1.6927006244659424,20.8587646484375,21.66748046875,0.1373291015625
14.8699999,0.7829039692878723,9.593565940856934,-1.7501614093780518,12.603759765625,18.829345703125,9.6893310546875
14.889999900000001,0.7972691655158997,9.701305389404297,-1.7405846118927002,10.6201171875,18.829345703125,4.39453125
14.9099999,0.7924807667732239,9.646238327026367,-1.7836803197860718,11.4593505859375,23.956298828125,2.471923828125
14.9299999,0.7733271718025208,9.564835548400879,-1.8363527059555054,7.32421875,25.9857177734375,0.1068115234375
14.9499999,0.751779317855835,9.44752025604248,-1.8746598958969116,5.67626953125,27.099609375,3.4027099609375
14.969999900000001,0.7158663272857666,9.378087997436523,-1.8363527059555054,4.6234130859375,28.0914306640625,2.8228759765625
14.9899999,0.6967126727104187,9.284713745117188,-1.7884687185287476,5.2947998046875,26.275634765625,-1.800537109375
15.0099999,0.6847416758537292,9.129091262817383,-1.8195933103561401,4.5166015625,23.9410400390625,-3.0975341796875
15.0299999,0.6703764796257019,9.045293807983398,-1.8770540952682495,2.2735595703125,33.69140625,-8.7127685546875
15.049999900000001,0.6584054827690125,9.023746490478516,-2.011129379272461,-1.495361328125,38.87939453125,-8.331298828125
15.069999900000001,0.6224924325942993,9.071630477905273,-2.075772762298584,0.457763671875,35.9039306640625,-1.4495849609375
15.0899999,0.5674257874488831,9.155426979064941,-2.0446481704711914,0.0457763671875,31.0821533203125,-2.8076171875
15.1099999,0.49559974670410156,9.26795482635498,-1.9776105880737305,1.46484375,20.56884765625,-10.833740234375
15.129999900000001,0.44532153010368347,9.299078941345215,-1.9704279899597168,9.185791015625,21.30126953125,-4.5318603515625
15.149999900000001,0.43335050344467163,9.275136947631836,-1.9823989868164062,16.8304443359375,30.8074951171875,6.317138671875
15.1699999,0.4692635238170624,9.299078941345215,-2.006340980529785,15.380859375,34.1033935546875,-4.180908203125
15.1899999,0.5817909836769104,9.2033109664917,-2.075772762298584,11.7950439453125,20.3094482421875,-5.55419921875
15.209999900000001,0.7398083209991455,9.016563415527344,-2.1739351749420166,11.5203857421875,15.899658203125,1.373291015625
15.229999900000001,0.9217676520347595,8.83699893951416,-2.3750481605529785,7.9345703125,22.3846435546875,-13.61083984375
15.2499999,1.070208191871643,8.645462036132812,-2.6647465229034424,0.67138671875,26.7791748046875,-28.1524658203125
15.2699999,1.1468225717544556,8.65743350982666,-2.875436305999756,-12.63427734375,29.2510986328125,-32.5775146484375
15.289999900000002,1.1228805780410767,8.923190116882324,-3.0310592651367188,-21.453857421875,27.77099609375,-23.0255126953125
15.309999900000001,1.0103530883789062,9.220070838928223,-3.023876667022705,-9.7198486328125,32.53173828125,-4.5928955078125
15.3299999,0.8786720037460327,9.44752025604248,-3.0310592651367188,9.94873046875,33.0657958984375,-6.9732666015625
15.3499999,0.7493851184844971,9.411606788635254,-3.023876667022705,5.0811767578125,28.167724609375,-16.5863037109375
15.3699999,0.6224924325942993,9.227252960205078,-3.028665065765381,-11.138916015625,27.28271484375,-23.01025390625
15.389999900000001,0.5147533416748047,9.2033109664917,-3.043030261993408,-14.6026611328125,29.72412109375,-31.9061279296875
15.4099999,0.40940847992897034,9.255983352661133,-2.9520506858825684,0.18310546875,44.1131591796875,-22.735595703125
15.4299999,0.33279404044151306,9.478644371032715,-2.8347349166870117,7.8582763671875,46.0662841796875,-8.6822509765625
15.4499999,0.3064578175544739,9.643844604492188,-2.717418909072876,9.5977783203125,39.825439453125,-10.528564453125
15.469999900000001,0.31842881441116333,9.708487510681152,-2.6575639247894287,9.0484619140625,37.3382568359375,-16.0980224609375
15.4899999,0.33518823981285095,9.713275909423828,-2.698265314102173,1.5411376953125,34.7747802734375,-19.3634033203125
15.5099999,0.3447650372982025,9.727641105651855,-2.7988216876983643,2.2430419921875,38.055419921875,-14.2364501953125
15.5299999,0.3016694188117981,9.785101890563965,-2.8778305053710938,7.8277587890625,49.0264892578125,-9.3841552734375
15.549999900000001,0.21547815203666687,9.871294021606445,-2.8826189041137695,6.7291259765625,56.3201904296875,-9.4757080078125
15.569999900000001,0.12210428714752197,9.825803756713867,-2.8826189041137695,16.2506103515625,51.8341064453125,-4.45556640625
15.5899999,0.05506663769483566,9.667786598205566,-2.956839084625244,27.77099609375,42.1905517578125,-3.60107421875
15.6099999,0.0454898327589035,9.437943458557129,-3.069366693496704,16.2811279296875,48.03466796875,-14.2669677734375
15.629999900000001,0.10055647045373917,9.282320022583008,-3.162740468978882,-2.044677734375,57.12890625,-24.0936279296875
15.649999900000001,0.1843535304069519,9.21288776397705,-3.1747114658355713,-1.3275146484375,49.8199462890625,-16.05224609375
15.6699999,0.26815059781074524,9.210494041442871,-3.093308687210083,17.8680419921875,43.51806640625,-5.4931640625
15.6899999,0.3447650372982025,9.258378028869629,-3.0095114707946777,21.4385986328125,49.774169921875,-14.007568359375
15.709999900000001,0.3998316824436188,9.191340446472168,-3.047818660736084,7.8887939453125,49.407958984375,-20.477294921875
15.729999900000001,0.4213795065879822,9.028534889221191,-3.181894063949585,11.23046875,46.4019775390625,-11.199951171875
15.7499999,0.395043283700943,8.892065048217773,-3.359065055847168,19.134521484375,45.5780029296875,-15.9454345703125
15.7699999,0.33279404044151306,8.791508674621582,-3.529053211212158,10.6353759765625,48.187255859375,-28.411865234375
15.789999900000002,0.23942017555236816,8.78193187713623,-3.711012601852417,5.6610107421875,52.3529052734375,-26.397705078125
15.809999900000001,0.1149216815829277,8.89685344696045,-3.8810009956359863,7.5225830078125,63.568115234375,-20.6451416015625
15.8299999,-0.0071826050989329815,9.009381294250488,-4.062960147857666,5.8135986328125,72.93701171875,-20.782470703125
15.8499999,-0.14365209639072418,9.057265281677246,-4.256890773773193,-7.5225830078125,70.2056884765625,-22.5982666015625
15.869999900000002,-0.2777273952960968,9.119514465332031,-4.335899353027344,-11.322021484375,74.493408203125,-26.3214111328125
15.889999900000001,-0.3998316824436188,9.196128845214844,-4.285621166229248,-5.8135986328125,83.1451416015625,-28.4423828125
15.9099999,-0.5195417404174805,9.29189682006836,-4.158728122711182,-12.9241943359375,82.8857421875,-21.942138671875
15.9299999,-0.629675030708313,9.442731857299805,-3.794809579849243,-27.740478515625,89.7979736328125,-26.0467529296875
15.9499999,-0.7398083209991455,9.588777542114258,-3.136404275894165,-23.8800048828125,105.6060791015625,-30.0750732421875
15.969999900000001,-0.8307880163192749,9.849745750427246,-2.2888567447662354,-8.97216796875,89.111328125,-28.80859375
15.9899999,-0.8427590131759644,9.93354320526123,-1.5969325304031372,2.1514892578125,54.046630859375,-10.1776123046875
16.0099999,-0.8140285611152649,9.84256362915039,-1.3718775510787964,3.9825439453125,43.8690185546875,2.227783203125
16.0299999,-0.7805097699165344,9.746794700622559,-1.4652514457702637,0.213623046875,96.3592529296875,-29.693603515625
16.0499999,-0.8092401623725891,9.751583099365234,-1.6376339197158813,1.8157958984375,126.15966796875,-47.9888916015625
16.0699999,-0.8858546018600464,9.914389610290527,-1.5921441316604614,0.244140625,85.6475830078125,-16.6015625
16.089999900000002,-0.9888052940368652,10.187328338623047,-1.3646949529647827,-3.814697265625,47.210693359375,-0.4425048828125
16.109999900000002,-1.0821791887283325,10.405200958251953,-1.070208191871643,0.5035400390625,63.6444091796875,-18.6004638671875
16.1299999,-1.1252747774124146,10.472238540649414,-0.8834604024887085,1.9378662109375,76.202392578125,-31.402587890625
16.1499999,-1.1468225717544556,10.433931350708008,-0.8331822156906128,-6.1492919921875,43.3197021484375,-14.09912109375
16.1699999,-1.1563993692398071,10.414777755737305,-0.7972691655158997,-0.06103515625,27.40478515625,-3.90625
16.1899999,-1.1252747774124146,10.414777755737305,-0.7972691655158997,8.8043212890625,53.0853271484375,-16.1895751953125
16.2099999,-1.0678139925003052,10.369287490844727,-0.8882488012313843,7.476806640625,54.4281005859375,-11.6424560546875
16.2299999,-1.0031704902648926,10.295066833496094,-0.9289502501487732,11.566162109375,39.0472412109375,8.087158203125
16.249999900000002,-0.9241618514060974,10.103530883789062,-0.9840168952941895,13.85498046875,34.97314453125,8.544921875
16.269999900000002,-0.849941611289978,9.713275909423828,-1.0869675874710083,13.4124755859375,38.7725830078125,-1.77001953125
16.2899999,-0.8164227604866028,9.330204010009766,-1.2114660739898682,9.7808837890625,42.6177978515625,-12.1307373046875
16.3099999,-0.8236053586006165,9.162610054016113,-1.338358759880066,12.359619140625,34.759521484375,-13.519287109375
16.3299999,-0.8571242094039917,9.155426979064941,-1.4460978507995605,17.88330078125,33.0352783203125,0.6103515625
16.3499999,-0.8954314589500427,9.23682975769043,-1.6160861253738403,19.256591796875,32.135009765625,7.4005126953125
16.3699999,-0.8930372595787048,9.339780807495117,-1.7764976024627686,11.0626220703125,39.4439697265625,-9.8419189453125
16.3899999,-0.8643068075180054,9.32541561126709,-1.9321208000183105,7.2021484375,37.8875732421875,-12.0391845703125
16.4099999,-0.8355764150619507,9.366117477416992,-2.0614075660705566,12.3748779296875,30.975341796875,-3.0670166015625
16.429999900000002,-0.8164227604866028,9.433155059814453,-2.1595699787139893,15.167236328125,42.2821044921875,-1.3885498046875
16.4499999,-0.790086567401886,9.373299598693848,-2.164358377456665,17.486572265625,59.2803955078125,5.7830810546875
16.4699999,-0.7781155705451965,9.277531623840332,-2.0805611610412598,10.8489990234375,50.3082275390625,1.251220703125
16.4899999,-0.7350199222564697,9.172186851501465,-2.0039467811584473,-5.7525634765625,17.1966552734375,-9.4757080078125
16.5099999,-0.7158663272857666,9.105149269104004,-1.946485996246338,-5.4931640625,12.63427734375,-9.0789794921875
16.5299999,-0.6967126727104187,9.181763648986816,-1.946485996246338,0.3204345703125,32.04345703125,-4.0130615234375
16.5499999,-0.7015010714530945,9.258378028869629,-2.032677173614502,-4.5013427734375,23.468017578125,-0.1983642578125
16.5699999,-0.7230489253997803,9.277531623840332,-2.0877439975738525,-13.336181640625,6.7138671875,1.77001953125
16.589999900000002,-0.7493851184844971,9.241618156433105,-2.1523873805999756,-13.153076171875,2.471923828125,-9.27734375
16.609999900000002,-0.7613561153411865,9.157821655273438,-2.2697031497955322,-18.951416015625,6.5155029296875,-18.49365234375
16.6299999,-0.7565677165985107,9.047688484191895,-2.456450939178467,-24.627685546875,3.2958984375,-13.641357421875
16.6499999,-0.7613561153411865,9.0859956741333,-2.628833532333374,-17.852783203125,10.5438232421875,-17.63916015625
16.6699999,-0.7661445140838623,9.160215377807617,-2.7485435009002686,-5.4168701171875,42.8924560546875,-16.4794921875
16.6899999,-0.7972691655158997,9.21288776397705,-2.7102363109588623,-0.3662109375,64.3768310546875,-2.8228759765625
16.7099999,-0.7876923680305481,9.275136947631836,-2.4396915435791016,1.1749267578125,62.8662109375,-8.3465576171875
16.7299999,-0.7589619159698486,9.241618156433105,-2.03507137298584,-7.8582763671875,35.4766845703125,-16.937255859375
16.749999900000002,-0.7230489253997803,9.188945770263672,-1.5873557329177856,-6.6070556640625,10.9405517578125,-11.7950439453125
16.769999900000002,-0.727837324142456,9.248801231384277,-1.2856862545013428,1.800537109375,8.148193359375,-10.9405517578125
16.7899999,-0.8020575642585754,9.411606788635254,-1.2090718746185303,4.364013671875,14.434814453125,-10.1165771484375
16.8099999,-0.9026140570640564,9.653421401977539,-1.335964560508728,1.617431640625,13.85498046875,-0.0762939453125
16.8299999,-0.9624691009521484,9.8784761428833,-1.5873557329177856,-3.5858154296875,13.1988525390625,8.514404296875
16.8499999,-0.950498104095459,9.945513725280762,-1.8722656965255737,-6.4849853515625,23.529052734375,13.0767822265625
16.8699999,-0.8810662031173706,9.84495735168457,-2.0590133666992188,-0.6103515625,31.982421875,8.2855224609375
16.8899999,-0.790086567401886,9.696516990661621,-2.118868589401245,-0.885009765625,24.078369140625,-2.655029296875
16.9099999,-0.7134721279144287,9.624691009521484,-2.097320795059204,0.5340576171875,7.6446533203125,-4.3487548828125
16.929999900000002,-0.6655880808830261,9.660603523254395,-2.0638017654418945,6.77490234375,12.237548828125,5.035400390625
16.9499999,-0.6392518281936646,9.715670585632324,-2.0685901641845703,5.7830810546875,24.2919921875,8.97216796875
16.9699999,-0.6153098344802856,9.75637149810791,-2.0422539710998535,4.547119140625,25.054931640625,-1.28173828125
16.9899999,-0.5746083855628967,9.643844604492188,-1.9369091987609863,0.2593994140625,15.2435302734375,-4.5166015625
17.0099999,-0.48602294921875,9.440337181091309,-1.7741034030914307,-5.828857421875,-1.4801025390625,0.7781982421875
17.0299999,-0.36152446269989014,9.301473617553711,-1.6304513216018677,-15.380859375,-11.4288330078125,-10.68115234375
17.0499999,-0.26815059781074524,9.313444137573242,-1.6615760326385498,-16.78466796875,-10.986328125,-19.4854736328125
17.0699999,-0.2059013396501541,9.485827445983887,-1.9153614044189453,-6.6070556640625,-6.1187744140625,-3.3416748046875
17.089999900000002,-0.22744916379451752,9.658209800720215,-2.229001760482788,5.9661865234375,13.18359375,13.2598876953125
17.109999900000002,-0.2513911724090576,9.78989028930664,-2.477998733520508,9.94873046875,22.5372314453125,2.471923828125
17.1299999,-0.22744916379451752,9.75637149810791,-2.6240451335906982,1.190185546875,1.7242431640625,-13.8397216796875
17.1499999,-0.14604631066322327,9.548076629638672,-2.7317841053009033,-0.640869140625,-14.2669677734375,-5.035400390625
17.1699999,-0.08379705995321274,9.423578262329102,-2.7772738933563232,3.9520263671875,5.5694580078125,-5.279541015625
17.1899999,-0.08379705995321274,9.287108421325684,-2.7269957065582275,6.378173828125,18.6614990234375,-17.4407958984375
17.2099999,-0.10773907601833344,9.215282440185547,-2.6886885166168213,5.0506591796875,-13.6260986328125,-28.076171875
17.2299999,-0.20350714027881622,9.327810287475586,-2.5905263423919678,-0.4119873046875,-34.36279296875,-34.36279296875
17.249999900000002,-0.29209262132644653,9.615114212036133,-2.63362193107605,7.476806640625,-6.866455078125,-22.1710205078125
17.269999900000002,-0.35434186458587646,9.99339771270752,-2.937685489654541,4.852294921875,11.2762451171875,-9.2620849609375
17.2899999,-0.43335050344467163,10.24239444732666,-3.2417490482330322,-5.7220458984375,36.102294921875,-1.922607421875
17.3099999,-0.4644751250743866,10.350133895874023,-3.3662476539611816,-6.9427490234375,54.13818359375,-17.1051025390625
17.3299999,-0.5003881454467773,10.24000072479248,-3.090914487838745,-20.751953125,51.513671875,-24.4140625
17.3499999,-0.5219359993934631,10.053253173828125,-2.6024973392486572,-19.6380615234375,27.0843505859375,-3.0670166015625
17.3699999,-0.6009446382522583,9.971850395202637,-1.98958158493042,-9.2926025390625,14.0228271484375,5.126953125
17.3899999,-0.6727706789970398,9.799467086791992,-1.5203180313110352,-5.279541015625,23.7579345703125,17.8070068359375
17.409999900000003,-0.7110779285430908,9.583989143371582,-1.3407529592514038,-12.1307373046875,16.8304443359375,29.266357421875
17.429999900000002,-0.6607996821403503,9.351752281188965,-1.2114660739898682,-31.890869140625,8.8348388671875,13.1072998046875
17.4499999,-0.49320554733276367,8.939949035644531,-0.9840168952941895,-40.771484375,-3.9825439453125,13.36669921875
17.4699999,-0.2777273952960968,8.523358345031738,-0.8307880163192749,-34.637451171875,-46.5240478515625,15.0146484375
17.4899999,-0.10055647045373917,8.355764389038086,-0.7733271718025208,-36.407470703125,-59.967041015625,-15.8233642578125
17.5099999,0.019153613597154617,8.406042098999023,-0.8164227604866028,-14.678955078125,-21.91162109375,-24.017333984375
17.5299999,0.043095629662275314,8.712499618530273,-1.139639973640442,4.3487548828125,-11.5203857421875,4.058837890625
17.5499999,0.009576806798577309,9.196128845214844,-1.5682021379470825,0.213623046875,-18.5699462890625,15.380859375
17.5699999,-0.033518824726343155,9.47146224975586,-1.8291701078414917,-23.406982421875,9.27734375,9.3536376953125
17.589999900000002,-0.10534487664699554,9.495404243469238,-2.1045033931732178,-39.7186279296875,12.420654296875,3.173828125
17.609999900000002,-0.22026655077934265,9.50498104095459,-2.1475989818573,-34.393310546875,6.2408447265625,-11.0626220703125
17.6299999,-0.33997663855552673,9.466673851013184,-2.049436569213867,-17.2119140625,14.58740234375,-1.861572265625
17.6499999,-0.4836287498474121,9.41639518737793,-1.9105730056762695,-24.261474609375,27.3284912109375,14.34326171875
17.6699999,-0.5770025849342346,9.287108421325684,-1.7166426181793213,-18.9208984375,39.6270751953125,7.4920654296875
17.6899999,-0.6392518281936646,9.10993766784668,-1.4724340438842773,-6.9427490234375,38.848876953125,-9.4146728515625
17.7099999,-0.6536170840263367,8.927978515625,-1.1994950771331787,-7.26318359375,20.3094482421875,-11.1541748046875
17.7299999,-0.6320692300796509,8.927978515625,-0.9576807022094727,0.54931640625,6.65283203125,-3.9520263671875
17.749999900000002,-0.5913678407669067,9.100360870361328,-0.7422025203704834,12.054443359375,16.357421875,-1.28173828125
17.769999900000002,-0.5051765441894531,9.299078941345215,-0.6655880808830261,17.5628662109375,18.0206298828125,2.5787353515625
17.7899999,-0.3878606855869293,9.526528358459473,-0.629675030708313,11.566162109375,9.9334716796875,-0.3662109375
17.8099999,-0.26336219906806946,9.627084732055664,-0.646434485912323,5.7830810546875,6.65283203125,1.7852783203125
17.8299999,-0.16998831927776337,9.734824180603027,-0.6847416758537292,3.4942626953125,4.974365234375,0.8392333984375
17.8499999,-0.1149216815829277,9.746794700622559,-0.7445967197418213,2.716064453125,-1.800537109375,-1.007080078125
17.8699999,-0.07900865375995636,9.801861763000488,-0.8786720037460327,5.645751953125,-16.5557861328125,-2.13623046875
17.8899999,-0.07661445438861847,9.849745750427246,-1.091755986213684,1.861572265625,-14.801025390625,-0.48828125
17.909999900000003,-0.06224924325942993,9.873687744140625,-1.2689268589019775,5.79833984375,6.16455078125,7.6904296875
17.929999900000002,-0.07900865375995636,9.871294021606445,-1.4915876388549805,2.50244140625,7.2479248046875,6.65283203125
17.9499999,-0.11013327538967133,9.72285270690918,-1.5466543436050415,0.18310546875,1.2054443359375,5.2642822265625
17.9699999,-0.17238251864910126,9.555258750915527,-1.4915876388549805,2.288818359375,-0.5035400390625,0.30517578125
17.9899999,-0.23702596127986908,9.425971984863281,-1.414973258972168,-0.8697509765625,-7.080078125,-3.60107421875
18.0099999,-0.28969839215278625,9.241618156433105,-1.316810965538025,-1.03759765625,-2.716064453125,6.3323974609375
18.0299999,-0.304063618183136,9.172186851501465,-1.256955862045288,0.8697509765625,3.0975341796875,5.523681640625
18.0499999,-0.2825157940387726,9.105149269104004,-1.213860273361206,-0.762939453125,4.852294921875,-1.800537109375
18.0699999,-0.22266076505184174,9.026140213012695,-1.1468225717544556,-0.54931640625,5.0201416015625,-1.3885498046875
18.089999900000002,-0.17717093229293823,9.124302864074707,-1.0654197931289673,-5.7830810546875,-0.8697509765625,-7.75146484375
18.109999900000002,-0.15322890877723694,9.279925346374512,-1.0127472877502441,-9.521484375,-6.5765380859375,-8.23974609375
18.1299999,-0.15322890877723694,9.469067573547363,-0.9289502501487732,-2.685546875,-3.1585693359375,-0.6561279296875
18.1499999,-0.17238251864910126,9.713275909423828,-0.8834604024887085,-0.244140625,-2.0294189453125,-3.9825439453125
18.1699999,-0.1867477297782898,9.852140426635742,-0.8906430602073669,-1.40380859375,-7.9193115234375,-3.021240234375
18.1899999,-0.19871874153614044,9.947908401489258,-0.8906430602073669,-1.129150390625,-4.0283203125,-0.274658203125
18.2099999,-0.20350714027881622,9.962273597717285,-0.9888052940368652,-2.5177001953125,-3.387451171875,-1.2359619140625
18.2299999,-0.2082955539226532,9.959878921508789,-1.0989385843276978,-1.2359619140625,-4.638671875,-2.3345947265625
18.249999900000002,-0.2322375625371933,9.981427192687988,-1.2114660739898682,-1.0833740234375,-2.0294189453125,-1.40380859375
18.269999900000002,-0.24420857429504395,9.931148529052734,-1.316810965538025,-5.6304931640625,-1.556396484375,8.7890625
18.2899999,-0.26575639843940735,9.835380554199219,-1.3192051649093628,-6.1798095703125,3.204345703125,7.720947265625
18.3099999,-0.2777273952960968,9.651026725769043,-1.2641384601593018,-2.38037109375,-2.2125244140625,-3.204345703125
18.3299999,-0.27054479718208313,9.430760383605957,-1.161187767982483,-1.0833740234375,-13.7786865234375,-6.89697265625
18.3499999,-0.26096799969673157,9.334992408752441,-1.0893617868423462,-3.1280517578125,-14.8162841796875,-4.669189453125
18.3699999,-0.23702596127986908,9.289502143859863,-1.070208191871643,-4.913330078125,-2.13623046875,2.5787353515625
18.3899999,-0.19393034279346466,9.296685218811035,-1.1109095811843872,-1.9989013671875,3.96728515625,2.5177001953125
18.409999900000003,-0.15322890877723694,9.306262016296387,-1.1635819673538208,-0.4730224609375,0.579833984375,-2.44140625
18.429999900000002,-0.12689268589019775,9.327810287475586,-1.161187767982483,-1.3885498046875,1.46484375,-5.4779052734375
18.4499999,-0.11252748221158981,9.44752025604248,-1.1468225717544556,-2.99072265625,-0.7171630859375,-3.35693359375
18.4699999,-0.12689268589019775,9.564835548400879,-1.1061211824417114,-4.1961669921875,-0.579833984375,2.50244140625
18.4899999,-0.14604631066322327,9.667786598205566,-1.0869675874710083,-0.579833984375,-1.312255859375,5.0811767578125
18.5099999,-0.1628057211637497,9.63187313079834,-1.015141487121582,4.791259765625,2.13623046875,0.701904296875
18.5299999,-0.17238251864910126,9.550470352172852,-0.9744400978088379,3.448486328125,-3.4027099609375,-3.3416748046875
18.5499999,-0.17717093229293823,9.409213066101074,-0.8188169598579407,1.5411376953125,-5.645751953125,-4.9285888671875
18.5699999,-0.19393034279346466,9.430760383605957,-0.6631938815116882,0.030517578125,-11.2457275390625,-8.270263671875
18.589999900000002,-0.22505496442317963,9.586383819580078,-0.47405192255973816,0.885009765625,-14.923095703125,-6.6070556640625
18.609999900000002,-0.27054479718208313,9.684545516967773,-0.31364041566848755,10.5438232421875,-15.0909423828125,10.467529296875
18.6299999,-0.3447650372982025,9.895236015319824,-0.2106897532939911,14.8468017578125,-18.49365234375,1.3580322265625
18.6499999,-0.43335050344467163,9.93593692779541,-0.15801730751991272,11.7950439453125,-22.3541259765625,-2.0294189453125
18.6699999,-0.5219359993934631,9.890447616577148,-0.14365209639072418,8.4686279296875,-28.5797119140625,4.0435791015625
18.6899999,-0.608127236366272,9.892841339111328,-0.19632454216480255,3.692626953125,-32.989501953125,3.4942626953125
18.7099999,-0.6871358752250671,9.823410034179688,-0.023942016065120697,-1.0223388671875,-22.3236083984375,4.5318603515625
18.7299999,-0.7876923680305481,9.847352027893066,0.2825157940387726,-1.922607421875,-26.397705078125,5.0048828125
18.749999900000002,-0.9864110946655273,9.890447616577148,0.9959878921508789,1.3885498046875,-40.5426025390625,8.8348388671875
18.769999900000002,-1.3335703611373901,10.02691650390625,2.1332337856292725,-3.570556640625,-42.4652099609375,14.4195556640625
18.7899999,-2.0183119773864746,10.474632263183594,3.7876269817352295,-14.892578125,-48.3551025390625,8.8958740234375
18.8099999,-2.9472622871398926,11.283872604370117,5.70777702331543,10.43701171875,-80.963134765625,20.355224609375
18.8299999,-3.8738183975219727,11.81059741973877,7.405265808105469,35.6292724609375,-145.4315185546875,70.220947265625
18.8499999,-4.6950297355651855,11.853693008422852,8.992621421813965,12.9852294921875,-150.970458984375,86.7919921875
18.8699999,-5.420472621917725,11.726799964904785,10.103530883789062,-22.0184326171875,-164.4744873046875,30.8685302734375
18.8899999,-6.071695327758789,11.499350547790527,10.879252433776855,-26.7181396484375,-222.9156494140625,10.8489990234375
18.909999900000003,-6.890512466430664,11.552022933959961,11.6430025100708,-24.3377685546875,-251.6021728515625,55.633544921875
18.929999900000002,-8.006210327148438,12.270283699035645,11.973402976989746,-31.463623046875,-274.3988037109375,56.2744140625
18.9499999,-9.306262016296387,12.770671844482422,11.796232223510742,-2.9296875,-317.0013427734375,51.8951416015625
18.9699999,-10.754754066467285,13.168108940124512,10.565611839294434,27.7862548828125,-355.7891845703125,59.173583984375
18.9899999,-12.188880920410156,13.151350021362305,8.595184326171875,-9.918212890625,-367.218017578125,83.67919921875
19.0099999,-13.479355812072754,12.96460247039795,6.119579315185547,-42.2210693359375,-357.4676513671875,78.43017578125
19.0299999,-14.386757850646973,12.033257484436035,3.3638534545898438,23.5443115234375,-375.213623046875,66.6961669921875
19.0499999,-15.004462242126465,10.90798282623291,0.3998316824436188,67.230224609375,-399.566650390625,46.051025390625
19.0699999,-15.332468032836914,10.012551307678223,-2.5905263423919678,-17.3187255859375,-395.9197998046875,20.8587646484375
19.089999900000002,-15.524003982543945,9.907206535339355,-5.774814605712891,-20.111083984375,-321.3653564453125,11.1236572265625
19.109999900000002,-15.095441818237305,9.497797966003418,-9.107542991638184,51.26953125,-310.0433349609375,75.9124755859375
19.1299999,-14.259865760803223,9.59835433959961,-11.638214111328125,39.031982421875,-238.95263671875,77.7587890625
19.1499999,-12.804190635681152,9.406818389892578,-13.189657211303711,-8.7432861328125,-199.52392578125,33.5540771484375
19.1699999,-10.697293281555176,8.446743965148926,-14.082694053649902,4.0283203125,-193.0999755859375,71.685791015625
19.1899999,-8.523358345031738,7.927201747894287,-13.326127052307129,11.749267578125,-153.99169921875,81.4056396484375
19.2099999,-6.308721542358398,6.797138690948486,-12.72996997833252,19.4244384765625,-150.20751953125,45.166015625
19.2299999,-4.489128112792969,6.229712963104248,-11.444284439086914,17.27294921875,-123.6419677734375,14.0838623046875
19.249999900000002,-3.141192674636841,5.774814605712891,-10.66137981414795,7.171630859375,-108.1085205078125,24.1851806640625
19.269999900000002,-2.255337953567505,5.623979568481445,-10.110713958740234,19.195556640625,-89.1876220703125,52.459716796875
19.2899999,-1.6879122257232666,5.463568210601807,-9.715670585632324,0.9307861328125,-61.46240234375,34.149169921875
19.3099999,-1.2737152576446533,5.262455463409424,-9.344569206237793,-22.5830078125,-44.189453125,1.6326904296875
19.3299999,-0.9959878921508789,5.389348030090332,-8.87051773071289,-28.7017822265625,-46.7376708984375,-8.7738037109375
19.3499999,-0.727837324142456,5.796362400054932,-8.226476669311523,-16.693115234375,-47.0428466796875,14.2059326171875
19.3699999,-0.545877993106842,6.605602264404297,-7.553706169128418,-21.820068359375,-28.350830078125,20.843505859375
19.3899999,-0.33997663855552673,7.101202011108398,-6.9024834632873535,-25.177001953125,-11.2762451171875,10.55908203125
19.409999900000003,-0.19632454216480255,7.474697589874268,-6.320692539215088,-13.702392578125,-12.1307373046875,-5.2337646484375
19.429999900000002,-0.10773907601833344,7.8314337730407715,-5.8657941818237305,-14.190673828125,-19.134521484375,-8.97216796875
19.4499999,-0.016759412363171577,8.303091049194336,-5.197812080383301,-18.585205078125,-1.8157958984375,-2.593994140625
19.4699999,0.10773907601833344,8.813055992126465,-4.541800498962402,-3.0059814453125,4.150390625,-7.5225830078125
19.4899999,0.33518823981285095,8.973467826843262,-3.9264907836914062,25.6500244140625,-10.498046875,-7.0953369140625
19.5099999,0.5051765441894531,9.102754592895508,-3.529053211212158,22.369384765625,-8.1329345703125,-15.5181884765625
19.5299999,0.7086837291717529,8.9064302444458,-3.4739866256713867,-13.275146484375,11.8408203125,-6.622314453125
19.5499999,0.8044517636299133,8.719682693481445,-3.3494882583618164,-39.215087890625,32.0281982421875,7.4005126953125
19.5699999,0.8331822156906128,8.87051773071289,-3.095702886581421,-15.869140625,13.61083984375,-14.923095703125
19.589999900000002,0.8547300100326538,9.002198219299316,-2.5713725090026855,16.6778564453125,-8.5296630859375,-15.899658203125
19.609999900000002,0.8212111592292786,9.306262016296387,-2.231395959854126,14.2669677734375,-7.1563720703125,-3.9825439453125
19.6299999,0.7661445140838623,9.478644371032715,-2.231395959854126,-19.95849609375,9.3841552734375,7.32421875
19.6499999,0.7206547260284424,9.500192642211914,-2.3989901542663574,-39.1082763671875,19.1650390625,9.3841552734375
19.6699999,0.6991068720817566,9.370905876159668,-2.449268341064453,-16.815185546875,19.500732421875,3.5400390625
19.6899999,0.7326257228851318,9.167398452758789,-2.3032219409942627,9.6435546875,10.0555419921875,-1.2969970703125
19.7099999,0.8164227604866028,8.971074104309082,-2.0590133666992188,21.9573974609375,6.866455078125,-8.697509765625
19.7299999,0.8906430602073669,8.868123054504395,-1.9512743949890137,11.138916015625,9.063720703125,-13.8702392578125
19.749999900000002,0.9289502501487732,8.791508674621582,-1.8746598958969116,-2.9296875,17.4713134765625,-7.0648193359375
19.769999900000002,0.871489405632019,8.829815864562988,-1.900996208190918,3.8909912109375,15.4266357421875,-5.706787109375
19.7899999,0.7733271718025208,8.911218643188477,-1.9752163887023926,13.153076171875,1.9073486328125,-15.1519775390625
19.8099999,0.6440402865409851,9.064447402954102,-2.0590133666992188,2.6397705078125,3.0059814453125,-17.5323486328125
19.8299999,0.5099649429321289,9.32302188873291,-2.183511972427368,-6.5765380859375,9.7503662109375,-10.4522705078125
19.8499999,0.4165911078453064,9.545681953430176,-2.2816741466522217,-1.2969970703125,6.53076171875,-1.220703125
19.8699999,0.35913026332855225,9.646238327026367,-2.3247697353363037,0.030517578125,7.7667236328125,4.6844482421875
19.8899999,0.35434186458587646,9.576807022094727,-2.293645143508911,-2.166748046875,10.7421875,-5.37109375
19.909999900000003,0.38307225704193115,9.47146224975586,-2.279279947280884,-3.60107421875,10.3302001953125,-14.70947265625
19.929999900000002,0.40462008118629456,9.454702377319336,-2.1547815799713135,1.7852783203125,6.9732666015625,-11.41357421875
19.9499999,0.4118026793003082,9.612719535827637,-2.1499931812286377,5.31005859375,2.6092529296875,-4.791259765625
19.9699999,0.3998316824436188,9.706093788146973,-2.0805611610412598,-1.8310546875,6.9122314453125,3.4027099609375
19.9899999,0.38307225704193115,9.77791976928711,-2.1547815799713135,-7.0953369140625,7.38525390625,-3.4027099609375
20.0099999,0.3519476354122162,9.706093788146973,-2.190694570541382,-3.326416015625,3.6163330078125,-10.223388671875
20.0299999,0.33039984107017517,9.603142738342285,-2.2385785579681396,1.800537109375,2.38037109375,-8.4991455078125
20.0499999,0.2968810200691223,9.521739959716797,-2.27209734916687,-2.2430419921875,1.1749267578125,-9.0179443359375
20.0699999,0.2585737705230713,9.497797966003418,-2.276885747909546,-10.55908203125,5.79833984375,-11.7034912109375
20.089999900000002,0.2106897532939911,9.495404243469238,-2.166752576828003,-11.3372802734375,6.591796875,-8.1787109375
20.109999900000002,0.14365209639072418,9.509769439697266,-2.0207061767578125,-1.3275146484375,-4.57763671875,-7.3089599609375
20.1299999,0.07182604819536209,9.516951560974121,-1.9991583824157715,1.8768310546875,-16.448974609375,-10.7879638671875
20.1499999,0.0071826050989329815,9.5408935546875,-2.0207061767578125,-6.9122314453125,-4.302978515625,-11.9781494140625
20.1699999,-0.011971008032560349,9.63187313079834,-2.1954829692840576,-12.4969482421875,5.43212890625,-12.0086669921875
20.1899999,-0.002394201699644327,9.636661529541016,-2.2888567447662354,-11.0626220703125,10.467529296875,2.716064453125
