# Time (seconds),Accel_X,Accel_Y,Accel_Z,Gyro_X,Gyro_Y,Gyro_Z
0.0099999,1.644816517829895,-8.889671325683594,-2.2002713680267334,-0.0152587890625,-5.9814453125,2.3040771484375
0.029999900000000003,1.7046716213226318,-8.908824920654297,-2.3367409706115723,1.4801025390625,-1.312255859375,3.6468505859375
0.0499999,1.7549498081207275,-8.968679428100586,-2.410961151123047,3.9825439453125,0.1373291015625,5.401611328125
0.0699999,1.7932571172714233,-9.074024200439453,-2.4181437492370605,3.021240234375,-2.0294189453125,5.9051513671875
0.08999990000000001,1.8291701078414917,-9.229647636413574,-2.406172752380371,0.701904296875,-7.01904296875,5.584716796875
0.10999990000000001,1.8483237028121948,-9.38048267364502,-2.4205379486083984,-1.64794921875,-7.568359375,3.326416015625
0.1299999,1.8698714971542358,-9.526528358459473,-2.4660277366638184,-7.598876953125,-0.8544921875,2.4566650390625
0.14999990000000002,1.8746598958969116,-9.636661529541016,-2.52109432220459,-6.6375732421875,3.84521484375,3.11279296875
0.1699999,1.8626888990402222,-9.684545516967773,-2.5498247146606445,-1.495361328125,2.6397705078125,2.4261474609375
0.1899999,1.8555063009262085,-9.725247383117676,-2.5282769203186035,4.3487548828125,2.4566650390625,2.0751953125
0.20999990000000002,1.821987509727478,-9.670180320739746,-2.4803929328918457,4.4708251953125,3.448486328125,-6.2408447265625
0.2299999,1.7956513166427612,-9.579200744628906,-2.427720546722412,-4.0435791015625,2.8076171875,-5.9051513671875
0.2499999,1.7525556087493896,-9.41400146484375,-2.367865562438965,-2.4566650390625,2.0751953125,2.685546875
0.2699999,1.7286136150360107,-9.299078941345215,-2.3319525718688965,0.79345703125,2.8076171875,8.6517333984375
0.28999990000000003,1.7046716213226318,-9.193734169006348,-2.3080103397369385,1.617431640625,3.0059814453125,0.701904296875
0.3099999,1.6903064250946045,-9.155426979064941,-2.3056161403656006,0.244140625,3.5858154296875,-0.8697509765625
0.3299999,1.6663644313812256,-9.162610054016113,-2.3127987384796143,2.5634765625,3.6468505859375,5.3558349609375
0.34999990000000003,1.6424223184585571,-9.188945770263672,-2.3080103397369385,-0.1220703125,4.2572021484375,8.72802734375
0.3699999,1.6208745241165161,-9.272743225097656,-2.276885747909546,-1.922607421875,6.4544677734375,7.0343017578125
0.3899999,1.6136919260025024,-9.397241592407227,-2.209848165512085,0.0762939453125,5.7373046875,5.035400390625
0.40999990000000003,1.6112977266311646,-9.528923034667969,-2.118868589401245,-0.335693359375,2.410888671875,3.84521484375
0.4299999,1.6089035272598267,-9.619902610778809,-2.0590133666992188,0.4730224609375,-0.6256103515625,2.5482177734375
0.4499999,1.6065093278884888,-9.66539192199707,-2.051830768585205,2.7923583984375,-1.28173828125,2.5787353515625
0.4699999,1.599326729774475,-9.634267807006836,-2.118868589401245,3.4942626953125,0.7171630859375,3.8604736328125
0.4899999,1.6089035272598267,-9.603142738342285,-2.183511972427368,1.64794921875,3.875732421875,5.584716796875
0.5099999,1.6184803247451782,-9.548076629638672,-2.252943754196167,6.591796875,3.997802734375,3.5552978515625
0.5299999,1.644816517829895,-9.497797966003418,-2.2577321529388428,6.103515625,4.1961669921875,1.03759765625
0.5499999,1.6687586307525635,-9.428366661071777,-2.22660756111145,2.01416015625,5.096435546875,1.434326171875
0.5699999,1.6974890232086182,-9.375694274902344,-2.1763293743133545,0.2899169921875,3.4332275390625,6.3629150390625
0.5899998999999999,1.721431016921997,-9.330204010009766,-2.1475989818573,1.251220703125,1.2359619140625,8.5906982421875
0.6099998999999999,1.742978811264038,-9.354146003723145,-2.118868589401245,-2.716064453125,3.96728515625,7.0953369140625
0.6299999,1.745373010635376,-9.418789863586426,-2.094926595687866,-0.9918212890625,6.9732666015625,3.5400390625
0.6499999,1.721431016921997,-9.500192642211914,-2.0638017654418945,0.396728515625,4.0740966796875,2.227783203125
0.6699999,1.6711528301239014,-9.586383819580078,-2.011129379272461,-0.518798828125,1.6632080078125,3.387451171875
0.6899999,1.6136919260025024,-9.667786598205566,-1.9847931861877441,-0.8087158203125,1.9073486328125,3.4027099609375
0.7099999,1.5466543436050415,-9.727641105651855,-1.9991583824157715,2.3040771484375,1.953125,0.18310546875
0.7299998999999999,1.4939818382263184,-9.765948295593262,-2.0207061767578125,-0.8697509765625,3.8604736328125,-2.197265625
0.7499998999999999,1.4724340438842773,-9.75637149810791,-2.011129379272461,-5.1422119140625,4.57763671875,-1.3885498046875
0.7699999,1.4748282432556152,-9.68933391571045,-1.9752163887023926,-4.2266845703125,0.79345703125,-1.1138916015625
0.7899999,1.5107412338256836,-9.591172218322754,-1.9536685943603516,-5.4931640625,-4.730224609375,-1.373291015625
0.8099999,1.5705963373184204,-9.50498104095459,-1.9967641830444336,-4.9896240234375,-5.645751953125,-0.67138671875
0.8299999,1.6041151285171509,-9.430760383605957,-2.0829553604125977,0.213623046875,0.1678466796875,-1.52587890625
0.8499998999999999,1.5921441316604614,-9.404424667358398,-2.1715409755706787,4.2266845703125,4.2572021484375,-1.739501953125
0.8699998999999999,1.5298948287963867,-9.409213066101074,-2.1811177730560303,3.4027099609375,2.7008056640625,1.220703125
0.8899999,1.455674648284912,-9.459490776062012,-2.121262788772583,3.204345703125,0.1678466796875,2.288818359375
0.9099999,1.3862427473068237,-9.476250648498535,-2.0374655723571777,2.4566650390625,-4.0130615234375,-3.204345703125
0.9299999,1.3670891523361206,-9.461885452270508,-2.0159177780151367,1.6021728515625,-7.0343017578125,-2.471923828125
0.9499999,1.41257905960083,-9.39245319366455,-2.051830768585205,1.9683837890625,-2.655029296875,2.7008056640625
0.9699998999999999,1.4867992401123047,-9.258378028869629,-2.1308395862579346,-0.42724609375,1.6326904296875,1.52587890625
0.9899998999999999,1.5490485429763794,-9.10993766784668,-2.212242364883423,-0.5645751953125,-0.3662109375,0.3662109375
1.0099999,1.5682021379470825,-9.006986618041992,-2.2385785579681396,-1.434326171875,0.1373291015625,4.8980712890625
1.0299999,1.525106430053711,-8.975862503051758,-2.205059766769409,-3.8604736328125,2.9449462890625,6.988525390625
1.0499999,1.4221558570861816,-9.016563415527344,-2.1164743900299072,-6.5765380859375,0.30517578125,5.8135986328125
1.0699999,1.3215993642807007,-9.162610054016113,-2.013523578643799,-5.584716796875,-3.4637451171875,12.6953125
1.0899999,1.237802267074585,-9.339780807495117,-1.889025092124939,-9.09423828125,-0.6866455078125,13.4124755859375
1.1099999,1.2090718746185303,-9.591172218322754,-1.8148049116134644,-14.3280029296875,0.152587890625,10.986328125
1.1299999,1.2282254695892334,-9.84256362915039,-1.8195933103561401,-5.7525634765625,-5.4931640625,7.0037841796875
1.1499999,1.2880805730819702,-10.038887977600098,-1.9033904075622559,-1.312255859375,-6.6680908203125,0.885009765625
1.1699998999999999,1.3527239561080933,-10.127472877502441,-2.0661959648132324,-1.2969970703125,-2.4871826171875,-0.67138671875
1.1899998999999999,1.4077905416488647,-10.072406768798828,-2.2409727573394775,-0.3204345703125,0,1.5869140625
1.2099999,1.436521053314209,-9.909601211547852,-2.3343467712402344,4.0740966796875,1.0833740234375,0.8392333984375
1.2299999,1.455674648284912,-9.725247383117676,-2.2912509441375732,-0.2899169921875,1.4801025390625,1.251220703125
1.2499999,1.4652514457702637,-9.57201862335205,-2.185906171798706,-3.631591796875,-4.5928955078125,1.5869140625
1.2699999,1.4628572463989258,-9.464279174804688,-2.099714994430542,-4.180908203125,-11.16943359375,-0.335693359375
1.2899999,1.4460978507995605,-9.435548782348633,-2.1045033931732178,-7.0648193359375,-7.2479248046875,-0.091552734375
1.3099999,1.414973258972168,-9.495404243469238,-2.1739351749420166,-10.4217529296875,0.640869140625,0.6866455078125
1.3299999,1.3694833517074585,-9.648633003234863,-2.209848165512085,-7.01904296875,3.753662109375,0.6866455078125
1.3499999,1.3311761617660522,-9.849745750427246,-2.1523873805999756,-4.8980712890625,-0.9918212890625,-2.5787353515625
1.3699999,1.3024457693099976,-9.998186111450195,-2.0614075660705566,-2.899169921875,-9.002685546875,-8.0413818359375
1.3899999,1.290474772453308,-10.029311180114746,-2.0398597717285156,1.312255859375,-12.6800537109375,-10.009765625
1.4099999,1.2856862545013428,-9.909601211547852,-2.1739351749420166,1.129150390625,-9.7808837890625,-9.033203125
1.4299998999999999,1.3000515699386597,-9.694122314453125,-2.38462495803833,-7.1258544921875,-2.50244140625,-7.38525390625
1.4499999,1.316810965538025,-9.488221168518066,-2.6455929279327393,-5.2032470703125,-1.2969970703125,-5.4168701171875
1.4699999,1.3670891523361206,-9.397241592407227,-2.82515811920166,-4.2266845703125,-1.9989013671875,-3.1890869140625
1.4899999,1.4437036514282227,-9.399636268615723,-2.9281086921691895,-6.8817138671875,0.0152587890625,-5.4931640625
1.5099999,1.580173134803772,-9.469067573547363,-3.0526070594787598,-10.3607177734375,-1.77001953125,-10.009765625
1.5299999,1.7597382068634033,-9.521739959716797,-3.426102638244629,-17.3187255859375,-9.674072265625,-12.7716064453125
1.5499999,1.9177556037902832,-9.421183586120605,-3.993528366088867,-30.364990234375,2.3193359375,-16.2200927734375
1.5699999,2.099714994430542,-9.227252960205078,-4.714183330535889,-43.5638427734375,30.6854248046875,-9.70458984375
1.5899999,2.231395959854126,-8.937555313110352,-5.47075080871582,-36.346435546875,34.7900390625,0.244140625
1.6099999,2.3535003662109375,-8.652645111083984,-6.2392897605896,1.373291015625,23.3612060546875,2.227783203125
1.6299999,2.4588451385498047,-8.312667846679688,-7.096413612365723,-1.495361328125,24.5208740234375,-3.2501220703125
1.6499999,2.425326347351074,-7.572859764099121,-8.192957878112793,-13.0767822265625,40.771484375,-17.88330078125
1.6699999,2.255337953567505,-6.581660270690918,-9.493009567260742,-5.55419921875,51.239013671875,2.227783203125
1.6899998999999999,1.9345149993896484,-5.568912982940674,-10.805032730102539,1.46484375,68.05419921875,48.7823486328125
1.7099999,1.5418659448623657,-5.106832027435303,-11.84650993347168,11.04736328125,108.2000732421875,75.3936767578125
1.7299999,1.0797849893569946,-5.477933406829834,-12.459425926208496,21.3623046875,134.002685546875,66.741943359375
1.7499999,0.5793967843055725,-6.691793918609619,-12.404358863830566,33.63037109375,158.6456298828125,55.206298828125
1.7699999,-0.011971008032560349,-8.22887134552002,-11.73398208618164,24.5819091796875,172.393798828125,47.2259521484375
1.7899999,-0.6967126727104187,-9.607931137084961,-10.587160110473633,16.4337158203125,174.6826171875,28.6865234375
1.8099999,-1.3766659498214722,-10.594342231750488,-9.100360870361328,5.9356689453125,181.182861328125,17.822265625
1.8299999,-2.0374655723571777,-11.044452667236328,-7.508216381072998,17.1051025390625,186.58447265625,8.758544921875
1.8499999,-2.63362193107605,-10.986991882324219,-5.942408561706543,15.2740478515625,181.1676025390625,-3.5247802734375
1.8699999,-3.157952070236206,-10.682928085327148,-4.422090530395508,4.0740966796875,183.6395263671875,-1.2054443359375
1.8899999,-3.555389642715454,-10.433931350708008,-2.918531894683838,-13.092041015625,190.3228759765625,11.4593505859375
1.9099999,-3.77565598487854,-10.254365921020508,-1.338358759880066,-41.8243408203125,182.9071044921875,4.608154296875
1.9299998999999999,-3.825934410095215,-10.24239444732666,0.07661445438861847,-23.2391357421875,148.8494873046875,-5.584716796875
1.9499999,-3.6607344150543213,-10.359710693359375,1.3215993642807007,-19.287109375,128.021240234375,6.7901611328125
1.9699999,-3.404554843902588,-10.395624160766602,2.1499931812286377,-47.4700927734375,130.3863525390625,9.1400146484375
1.9899999,-3.134010076522827,-10.321403503417969,2.6024973392486572,-109.68017578125,121.64306640625,5.2032470703125
2.0099999,-2.8227639198303223,-10.251971244812012,2.779668092727661,-129.1046142578125,112.36572265625,23.25439453125
2.0299999,-2.516305923461914,-10.110713958740234,2.8610711097717285,-136.3067626953125,102.142333984375,41.5191650390625
2.0499999,-2.126051187515259,-10.046070098876953,2.8419175148010254,-138.48876953125,90.63720703125,41.3818359375
2.0699999,-1.6639702320098877,-10.110713958740234,2.7293899059295654,-69.9462890625,84.7625732421875,30.792236328125
2.0899999,-1.0678139925003052,-10.213664054870605,2.5498247146606445,25.4669189453125,87.95166015625,17.0440673828125
2.1099999,-0.4884171485900879,-10.211270332336426,2.1787235736846924,110.626220703125,87.6312255859375,8.514404296875
2.1299999,0.07661445438861847,-10.050858497619629,1.5682021379470825,146.2860107421875,89.9658203125,15.9454345703125
2.1499999,0.5267243981361389,-9.718064308166504,0.8738836050033569,104.0802001953125,92.071533203125,30.2581787109375
2.1699999,0.8762778043746948,-9.368511199951172,0.2825157940387726,42.9840087890625,87.3870849609375,40.283203125
2.1899999,1.094150185585022,-9.07641887664795,-0.0071826050989329815,13.031005859375,65.9332275390625,40.2984619140625
2.2099999,1.2258312702178955,-8.892065048217773,0.17956513166427612,-6.4544677734375,38.14697265625,32.8826904296875
2.2299999,1.3192051649093628,-8.927978515625,0.3519476354122162,0.244140625,7.5225830078125,33.3099365234375
2.2499999,1.3287819623947144,-8.995016098022461,0.5674257874488831,39.5660400390625,23.468017578125,24.7802734375
2.2699999,1.290474772453308,-9.165003776550293,0.586579442024231,71.319580078125,59.63134765625,17.730712890625
2.2899999,1.2545616626739502,-9.53849983215332,0.5937620401382446,85.0372314453125,67.657470703125,34.2254638671875
2.3099999,1.1683704853057861,-10.002974510192871,0.8427590131759644,54.3060302734375,61.4013671875,30.82275390625
2.3299999,1.1085153818130493,-10.551246643066406,1.213860273361206,-9.21630859375,39.5050048828125,13.5345458984375
2.3499999,1.0989385843276978,-11.058817863464355,1.5634137392044067,-55.48095703125,18.157958984375,12.4053955078125
2.3699999,1.1228805780410767,-11.295844078063965,1.824381709098816,-57.708740234375,18.6920166015625,10.1776123046875
2.3899999,1.192312479019165,-11.264719009399414,1.7142484188079834,-24.1851806640625,9.3536376953125,6.805419921875
2.4099999,1.2665326595306396,-11.010933876037598,1.4197616577148438,-4.2266845703125,7.8277587890625,3.021240234375
2.4299999,1.3239935636520386,-10.647014617919922,0.933738648891449,-9.4757080078125,11.505126953125,3.082275390625
2.4499999,1.335964560508728,-10.273519515991211,0.43335050344467163,-18.24951171875,10.1470947265625,5.615234375
2.4699999,1.3479355573654175,-10.019734382629395,0.031124621629714966,-4.9896240234375,7.26318359375,6.3018798828125
2.4899999,1.3407529592514038,-9.885659217834473,-0.31603461503982544,24.627685546875,3.72314453125,6.1187744140625
2.5099999,1.3192051649093628,-9.854534149169922,-0.48602294921875,25.57373046875,13.18359375,3.4027099609375
2.5299999,1.2832920551300049,-9.904812812805176,-0.5961562395095825,5.31005859375,15.289306640625,5.828857421875
2.5499999,1.2210428714752197,-9.95748519897461,-0.5817909836769104,-19.10400390625,4.9285888671875,3.8604736328125
2.5699999,1.1492167711257935,-9.95748519897461,-0.49799394607543945,-42.633056640625,-5.218505859375,-3.7994384765625
2.5899999,1.115697979927063,-9.964667320251465,-0.44532153010368347,-38.4674072265625,-6.7291259765625,-2.0294189453125
2.6099999,1.1252747774124146,-9.871294021606445,-0.507570743560791,-35.369873046875,-9.307861328125,3.0364990234375
2.6299999,1.173158884048462,-9.768342971801758,-0.6751648783683777,-18.218994140625,-5.5694580078125,3.60107421875
2.6499999,1.2473790645599365,-9.66539192199707,-0.8810662031173706,-5.7830810546875,0.5340576171875,2.9144287109375
2.6699999,1.3120225667953491,-9.591172218322754,-1.0989385843276978,5.5084228515625,1.64794921875,2.5634765625
2.6899999,1.3503297567367554,-9.581595420837402,-1.2234370708465576,13.214111328125,5.645751953125,2.899169921875
2.7099999,1.3503297567367554,-9.624691009521484,-1.292868971824646,20.0042724609375,8.6822509765625,4.119873046875
2.7299999,1.3215993642807007,-9.679757118225098,-1.290474772453308,12.603759765625,8.544921875,1.953125
2.7499999,1.2521674633026123,-9.725247383117676,-1.1994950771331787,-1.5869140625,9.4757080078125,-1.068115234375
2.7699999,1.173158884048462,-9.75637149810791,-1.0271124839782715,-13.1988525390625,7.5531005859375,1.3275146484375
2.7899999,1.0821791887283325,-9.732429504394531,-0.828393816947937,-11.71875,0.885009765625,1.6937255859375
2.8099999,1.0342950820922852,-9.6989107131958,-0.6631938815116882,-5.2337646484375,-3.4637451171875,3.23486328125
2.8299999,1.039083480834961,-9.674968719482422,-0.6153098344802856,3.7841796875,-3.7994384765625,5.5999755859375
2.8499999,1.1085153818130493,-9.670180320739746,-0.7374141216278076,4.69970703125,-3.11279296875,5.18798828125
2.8699999,1.2018892765045166,-9.691728591918945,-0.9433154463768005,3.326416015625,0.6103515625,3.5400390625
2.8899999,1.2737152576446533,-9.703699111938477,-1.1300631761550903,3.631591796875,5.7373046875,1.77001953125
2.9099999,1.3048399686813354,-9.713275909423828,-1.2401964664459229,4.3487548828125,3.4027099609375,1.6021728515625
2.9299999,1.280897855758667,-9.677363395690918,-1.2761094570159912,4.5318603515625,-1.7852783203125,-0.5035400390625
2.9499999,1.237802267074585,-9.655815124511719,-1.2641384601593018,0.7476806640625,-1.251220703125,-0.0152587890625
2.9699999,1.192312479019165,-9.627084732055664,-1.2641384601593018,-4.6539306640625,1.4190673828125,0.5950927734375
2.9899999,1.1492167711257935,-9.619902610778809,-1.2521674633026123,-3.3111572265625,2.838134765625,1.40380859375
3.0099999,1.113303780555725,-9.617507934570312,-1.194706678390503,-0.213623046875,2.74658203125,1.434326171875
3.0299999,1.0845733880996704,-9.655815124511719,-1.113303780555725,2.5177001953125,-0.6256103515625,1.739501953125
3.0499999,1.0582371950149536,-9.72285270690918,-1.0247182846069336,3.204345703125,-1.52587890625,0.30517578125
3.0699999,1.0582371950149536,-9.84495735168457,-0.9792284965515137,4.5623779296875,-0.5340576171875,-1.4495849609375
3.0899999,1.0582371950149536,-9.943120002746582,-1.0007762908935547,7.3089599609375,1.0223388671875,-2.5177001953125
3.1099999,1.0462661981582642,-9.983820915222168,-1.0127472877502441,8.85009765625,5.767822265625,-1.678466796875
3.1299999,1.0127472877502441,-9.926360130310059,-0.9911994934082031,4.4708251953125,6.683349609375,0.3662109375
3.1499999,0.9576807022094727,-9.799467086791992,-0.9265560507774353,-3.2501220703125,-0.48828125,0.5950927734375
3.1699999,0.9193734526634216,-9.679757118225098,-0.8451532125473022,-7.843017578125,-5.55419921875,1.3885498046875
3.1899999,0.9193734526634216,-9.603142738342285,-0.8331822156906128,-6.8359375,-5.523681640625,2.3040771484375
3.2099999,0.9648633003234863,-9.59835433959961,-0.8930372595787048,-3.0517578125,-1.434326171875,2.8839111328125
3.2299999,1.0271124839782715,-9.651026725769043,-0.9792284965515137,-2.9296875,1.312255859375,3.753662109375
3.2499999,1.0773907899856567,-9.75397777557373,-1.0438719987869263,-3.6773681640625,-0.1068115234375,4.1046142578125
3.2699999,1.113303780555725,-9.86889934539795,-1.0606313943862915,-2.166748046875,-1.617431640625,2.6397705078125
3.2899999,1.1324573755264282,-9.967061996459961,-1.072602391242981,-0.5645751953125,-2.166748046875,0.5645751953125
3.3099999,1.1468225717544556,-10.031704902648926,-1.091755986213684,-1.0223388671875,-0.2288818359375,-0.5035400390625
3.3299999000000002,1.1492167711257935,-10.034099578857422,-1.115697979927063,-1.6632080078125,1.9378662109375,-2.2125244140625
3.3499999,1.1492167711257935,-10.010157585144043,-1.1444283723831177,-4.0435791015625,-0.0152587890625,-3.387451171875
3.3699999,1.1468225717544556,-9.971850395202637,-1.1683704853057861,-5.9967041015625,-2.8533935546875,-4.08935546875
3.3899999,1.1420341730117798,-9.93354320526123,-1.1635819673538208,-6.6986083984375,-0.54931640625,-4.0435791015625
3.4099999,1.1348515748977661,-9.883264541625977,-1.1827356815338135,-1.129150390625,-0.1983642578125,-3.448486328125
3.4299999,1.1252747774124146,-9.801861763000488,-1.213860273361206,4.9591064453125,-0.7171630859375,-2.2125244140625
3.4499999,1.1204863786697388,-9.72285270690918,-1.256955862045288,2.4261474609375,0.7476806640625,-0.9307861328125
3.4699999,1.0965443849563599,-9.62947940826416,-1.278503656387329,-1.0528564453125,4.45556640625,-1.0528564453125
3.4899999,1.091755986213684,-9.581595420837402,-1.2880805730819702,-0.48828125,3.448486328125,0.2899169921875
3.5099999,1.0773907899856567,-9.576807022094727,-1.2545616626739502,2.8228759765625,1.2969970703125,1.0528564453125
3.5299999,1.0773907899856567,-9.59596061706543,-1.216254472732544,3.1585693359375,2.6702880859375,0.91552734375
3.5499999,1.0869675874710083,-9.643844604492188,-1.1779472827911377,1.77001953125,3.814697265625,1.9989013671875
3.5699999,1.0869675874710083,-9.667786598205566,-1.1252747774124146,-1.007080078125,4.45556640625,0.5340576171875
3.5899999,1.0845733880996704,-9.672574996948242,-1.072602391242981,1.007080078125,1.556396484375,1.0528564453125
3.6099999,1.0654197931289673,-9.66299819946289,-0.9792284965515137,5.0811767578125,1.5716552734375,1.77001953125
3.6299999,1.05105459690094,-9.634267807006836,-0.9361328482627869,5.3863525390625,0.152587890625,0.5035400390625
3.6499999,1.036689281463623,-9.581595420837402,-0.9289502501487732,7.080078125,-0.396728515625,0.1220703125
3.6699999,1.0223240852355957,-9.5408935546875,-0.9624691009521484,7.9193115234375,2.3040771484375,1.434326171875
3.6899999,1.0199298858642578,-9.524134635925293,-0.993593692779541,0.0457763671875,2.1514892578125,3.3111572265625
3.7099999,1.0031704902648926,-9.524134635925293,-1.0438719987869263,2.593994140625,0.5035400390625,2.44140625
3.7299999,1.0031704902648926,-9.569623947143555,-1.0534487962722778,1.129150390625,1.312255859375,3.021240234375
3.7499999,1.0031704902648926,-9.603142738342285,-1.0845733880996704,-0.3662109375,1.40380859375,3.6468505859375
3.7699999,1.015141487121582,-9.605537414550781,-1.137245774269104,1.1444091796875,1.9073486328125,4.7607421875
3.7899999,1.01753568649292,-9.610325813293457,-1.1659762859344482,2.288818359375,4.608154296875,7.110595703125
3.8099999,1.0199298858642578,-9.615114212036133,-1.1851298809051514,0.5645751953125,5.2337646484375,6.866455078125
3.8299999000000002,1.0127472877502441,-9.670180320739746,-1.173158884048462,2.7008056640625,3.3111572265625,6.4544677734375
3.8499999,0.9983820915222168,-9.75637149810791,-1.1180921792984009,2.13623046875,4.119873046875,4.5623779296875
3.8699999,0.9840168952941895,-9.864110946655273,-1.0654197931289673,0.579833984375,3.5858154296875,2.7008056640625
3.8899999,0.9624691009521484,-9.916783332824707,-1.0319008827209473,2.8533935546875,3.0670166015625,0.8392333984375
3.9099999,0.9481038451194763,-9.95748519897461,-1.0055646896362305,3.2806396484375,3.7994384765625,2.1209716796875
3.9299999,0.9313444495201111,-9.928754806518555,-0.9816226959228516,0.579833984375,5.157470703125,1.89208984375
3.9499999,0.9169792532920837,-9.895236015319824,-0.9696516990661621,1.52587890625,4.1656494140625,1.739501953125
3.9699999,0.9026140570640564,-9.852140426635742,-0.9002198576927185,0.42724609375,3.7994384765625,1.5869140625
3.9899999,0.8834604024887085,-9.837775230407715,-0.849941611289978,-0.2288818359375,1.8768310546875,1.5106201171875
4.0099999,0.8571242094039917,-9.80904483795166,-0.7781155705451965,-0.0762939453125,1.861572265625,0.2899169921875
4.029999900000001,0.8236053586006165,-9.801861763000488,-0.7374141216278076,0.9918212890625,2.3345947265625,0.8697509765625
4.0499999,0.7852981686592102,-9.78989028930664,-0.6871358752250671,0.640869140625,3.082275390625,1.861572265625
4.069999900000001,0.7374141216278076,-9.787496566772461,-0.6320692300796509,0.4425048828125,2.471923828125,1.28173828125
4.0899999000000005,0.6919242739677429,-9.801861763000488,-0.5650315880775452,-0.54931640625,0.3662109375,1.89208984375
4.1099999,0.6631938815116882,-9.854534149169922,-0.507570743560791,-1.15966796875,-2.1514892578125,2.5482177734375
4.1299999000000005,0.6536170840263367,-9.904812812805176,-0.49559974670410156,-1.7547607421875,-3.5858154296875,1.5106201171875
4.1499999,0.6655880808830261,-9.964667320251465,-0.5027823448181152,-2.1209716796875,-1.800537109375,1.373291015625
4.1699999000000005,0.7134721279144287,-10.046070098876953,-0.5602431893348694,-3.0517578125,-3.692626953125,3.204345703125
4.1899999,0.7589619159698486,-10.108319282531738,-0.5937620401382446,0.3204345703125,-2.9754638671875,1.007080078125
4.209999900000001,0.7972691655158997,-10.153809547424316,-0.6153098344802856,-0.48828125,-2.655029296875,-2.0294189453125
4.2299999,0.8068459630012512,-10.170568466186523,-0.6248866319656372,0.9613037109375,-3.5552978515625,-0.3204345703125
4.249999900000001,0.7709329724311829,-10.182539939880371,-0.5291185975074768,9.185791015625,4.8065185546875,8.544921875
4.2699999,0.689530074596405,-10.199298858642578,-0.31603461503982544,24.5819091796875,11.505126953125,14.251708984375
4.289999900000001,0.5889736413955688,-10.256759643554688,0.0071826050989329815,29.8614501953125,4.9285888671875,13.0767822265625
4.3099999,0.4644751250743866,-10.33098030090332,0.3998316824436188,30.0140380859375,-1.0833740234375,9.8724365234375
4.329999900000001,0.33997663855552673,-10.400412559509277,0.7948749661445618,21.636962890625,-3.41796875,6.6070556640625
4.3499999,0.2059013396501541,-10.395624160766602,1.0797849893569946,9.8419189453125,-10.894775390625,4.058837890625
4.369999900000001,0.07900865375995636,-10.390835762023926,1.3215993642807007,13.153076171875,-14.984130859375,6.1187744140625
4.3899999,-0.0071826050989329815,-10.374075889587402,1.4915876388549805,9.9945068359375,-21.1334228515625,6.28662109375
4.409999900000001,-0.11013327538967133,-10.316615104675293,1.5442601442337036,10.8184814453125,-32.8216552734375,-3.1585693359375
4.4299999,-0.14844051003456116,-10.309432983398438,1.6065093278884888,0.396728515625,-35.9649658203125,-7.6751708984375
4.449999900000001,-0.19153612852096558,-10.304644584655762,1.50355863571167,-3.0975341796875,-45.806884765625,-12.5885009765625
4.4699999,-0.1843535304069519,-10.35252857208252,1.4101848602294922,-8.056640625,-51.727294921875,-15.380859375
4.489999900000001,-0.11252748221158981,-10.496180534362793,1.213860273361206,-2.593994140625,-56.5643310546875,-16.143798828125
4.5099999,-0.016759412363171577,-10.587160110473633,1.01753568649292,7.659912109375,-59.7381591796875,-25.5889892578125
4.529999900000001,0.1388636976480484,-10.611102104187012,0.7589619159698486,30.3497314453125,-61.2335205078125,-26.5350341796875
4.5499999,0.26575639843940735,-10.405200958251953,0.40462008118629456,30.76171875,-69.64111328125,-26.79443359375
4.569999900000001,0.40462008118629456,-10.091560363769531,0.023942016065120697,10.009765625,-68.634033203125,-26.1383056640625
4.5899999000000005,0.5267243981361389,-9.68694019317627,-0.3926490843296051,-3.0364990234375,-61.492919921875,-24.0020751953125
4.609999900000001,0.6224924325942993,-9.287108421325684,-0.7230489253997803,-0.0457763671875,-60.4248046875,-22.94921875
4.6299999000000005,0.7230489253997803,-9.069235801696777,-0.8954314589500427,-4.0435791015625,-59.0972900390625,-19.53125
4.6499999,0.7852981686592102,-8.901641845703125,-0.9385270476341248,-16.54052734375,-59.3719482421875,-30.6243896484375
4.6699999000000005,0.9097966551780701,-8.966285705566406,-0.9097966551780701,-15.44189453125,-58.65478515625,-36.1175537109375
4.6899999,0.9840168952941895,-9.107542991638184,-0.8786720037460327,-1.7852783203125,-62.1337890625,-42.144775390625
4.709999900000001,1.0965443849563599,-9.294290542602539,-0.9600749015808105,3.2806396484375,-53.955078125,-48.1414794921875
4.7299999,1.1204863786697388,-9.277531623840332,-0.9074024558067322,-34.6832275390625,-41.229248046875,-41.44287109375
4.749999900000001,1.1492167711257935,-9.299078941345215,-0.9313444495201111,-6.89697265625,-54.7332763671875,-2.1820068359375
4.7699999,1.1540051698684692,-9.279925346374512,-0.7996633648872375,11.2762451171875,-72.81494140625,7.32421875
4.789999900000001,1.1899182796478271,-9.375694274902344,-0.7206547260284424,4.69970703125,-80.810546875,-14.0838623046875
4.8099999,1.2497732639312744,-9.57201862335205,-0.7086837291717529,-5.6304931640625,-80.2459716796875,-22.1099853515625
4.829999900000001,1.3072341680526733,-9.758766174316406,-0.7924807667732239,-0.7781982421875,-82.1990966796875,-17.8070068359375
4.8499999,1.338358759880066,-9.818621635437012,-1.0055646896362305,13.36669921875,-81.5887451171875,-14.3280029296875
4.869999900000001,1.3910311460494995,-9.864110946655273,-1.2042834758758545,2.8533935546875,-74.066162109375,-6.7138671875
4.8899999,1.41257905960083,-9.828198432922363,-1.4197616577148438,-11.444091796875,-73.7762451171875,-13.5345458984375
4.909999900000001,1.4772224426269531,-9.813833236694336,-1.53707754611969,-15.4876708984375,-75.469970703125,-20.3857421875
4.9299999,1.5298948287963867,-9.739612579345703,-1.6112977266311646,-10.894775390625,-76.995849609375,-21.6827392578125
4.949999900000001,1.6065093278884888,-9.660603523254395,-1.680729627609253,-2.5634765625,-80.13916015625,-19.927978515625
4.9699999,1.6639702320098877,-9.531316757202148,-1.8171991109848022,5.43212890625,-80.4443359375,-21.392822265625
4.989999900000001,1.7118542194366455,-9.387664794921875,-1.9991583824157715,11.7950439453125,-74.7222900390625,-20.9503173828125
5.0099999,1.7477672100067139,-9.279925346374512,-2.1523873805999756,8.2244873046875,-65.8416748046875,-14.434814453125
5.029999900000001,1.7812861204147339,-9.232041358947754,-2.252943754196167,9.46044921875,-60.394287109375,-10.040283203125
5.0499999,1.8507179021835327,-9.263166427612305,-2.2816741466522217,15.68603515625,-63.3087158203125,-14.46533203125
5.069999900000001,1.9057846069335938,-9.30386734008789,-2.3774423599243164,29.9835205078125,-62.3779296875,-17.8680419921875
5.0899999000000005,1.9728221893310547,-9.301473617553711,-2.456450939178467,18.280029296875,-43.182373046875,-10.7574462890625
5.109999900000001,1.9943699836730957,-9.284713745117188,-2.5234885215759277,4.69970703125,-26.2603759765625,1.129150390625
5.1299999000000005,2.0398597717285156,-9.313444137573242,-2.4396915435791016,8.60595703125,-31.9366455078125,2.13623046875
5.1499999,2.0661959648132324,-9.406818389892578,-2.300827741622925,15.899658203125,-47.91259765625,-12.939453125
5.1699999000000005,2.078166961669922,-9.500192642211914,-2.1140801906585693,11.871337890625,-42.4346923828125,-21.270751953125
5.1899999,2.070984363555908,-9.557653427124023,-1.9632453918457031,-22.064208984375,-35.980224609375,-12.3443603515625
5.209999900000001,2.0446481704711914,-9.555258750915527,-1.9057846069335938,-25.4364013671875,-41.259765625,-3.7689208984375
5.2299999,2.030282974243164,-9.521739959716797,-1.8746598958969116,-18.768310546875,-47.393798828125,-8.4381103515625
5.249999900000001,2.0374655723571777,-9.476250648498535,-1.9081788063049316,-15.6402587890625,-46.051025390625,-16.3116455078125
5.2699999,2.0422539710998535,-9.411606788635254,-2.0015525817871094,-5.889892578125,-37.8570556640625,-17.2576904296875
5.289999900000001,2.049436569213867,-9.32541561126709,-2.1140801906585693,-10.9405517578125,-30.8837890625,-12.4664306640625
5.3099999,2.051830768585205,-9.23682975769043,-2.1978771686553955,-15.2435302734375,-28.8543701171875,-8.60595703125
5.329999900000001,2.0590133666992188,-9.17697525024414,-2.231395959854126,-3.509521484375,-28.3355712890625,-7.3699951171875
5.3499999,2.0661959648132324,-9.138668060302734,-2.1954829692840576,1.7547607421875,-25.93994140625,-5.4779052734375
5.369999900000001,2.070984363555908,-9.133879661560059,-2.10210919380188,-1.7852783203125,-21.881103515625,-3.2958984375
5.3899999,2.0805611610412598,-9.174580574035645,-1.9728221893310547,-7.1563720703125,-25.08544921875,-2.2735595703125
5.409999900000001,2.094926595687866,-9.260771751403809,-1.8507179021835327,-2.4871826171875,-32.53173828125,-3.0975341796875
5.4299999,2.1068975925445557,-9.351752281188965,-1.7932571172714233,1.129150390625,-37.4755859375,-6.317138671875
5.449999900000001,2.097320795059204,-9.399636268615723,-1.9129672050476074,2.25830078125,-30.0445556640625,-5.43212890625
5.4699999,2.097320795059204,-9.433155059814453,-1.9800047874450684,-11.2152099609375,-7.0648193359375,0.0457763671875
5.489999900000001,2.078166961669922,-9.378087997436523,-2.0901381969451904,-10.009765625,-9.6893310546875,-3.23486328125
5.5099999,2.0661959648132324,-9.320627212524414,-2.1332337856292725,14.404296875,-19.7906494140625,-2.8533935546875
5.529999900000001,2.0685901641845703,-9.258378028869629,-2.1140801906585693,8.026123046875,-18.310546875,0.5645751953125
5.5499999,2.056619167327881,-9.186552047729492,-2.140416383743286,-4.2266845703125,-16.021728515625,-0.4425048828125
5.569999900000001,2.049436569213867,-9.148244857788086,-2.1763293743133545,1.312255859375,-14.739990234375,-0.3814697265625
5.5899999000000005,2.0231003761291504,-9.107542991638184,-2.140416383743286,2.777099609375,-10.8489990234375,1.495361328125
5.609999900000001,2.013523578643799,-9.133879661560059,-2.056619167327881,8.544921875,-10.43701171875,5.6915283203125
5.6299999000000005,1.9847931861877441,-9.14585018157959,-1.9752163887023926,7.6446533203125,-18.4783935546875,3.936767578125
5.6499999,1.9704279899597168,-9.210494041442871,-1.9033904075622559,10.3302001953125,-17.486572265625,1.1749267578125
5.6699999000000005,1.9560627937316895,-9.315838813781738,-1.8507179021835327,19.1192626953125,-8.148193359375,5.8135986328125
5.6899999,1.9369091987609863,-9.385271072387695,-1.7956513166427612,13.702392578125,-9.46044921875,4.9285888671875
5.709999900000001,1.9177556037902832,-9.452308654785156,-1.7764976024627686,18.5546875,-19.2108154296875,3.692626953125
5.7299999,1.9153614044189453,-9.495404243469238,-1.7262194156646729,20.44677734375,-18.98193359375,4.3792724609375
5.749999900000001,1.9153614044189453,-9.512163162231445,-1.7357962131500244,21.0113525390625,-18.1884765625,3.509521484375
5.7699999,1.9321208000183105,-9.548076629638672,-1.7884687185287476,25.054931640625,-23.773193359375,1.4495849609375
5.789999900000001,1.9369091987609863,-9.545681953430176,-1.8267759084701538,25.69580078125,-24.4293212890625,-3.7994384765625
5.8099999,1.9393033981323242,-9.564835548400879,-1.9153614044189453,33.7677001953125,-21.2860107421875,1.251220703125
5.829999900000001,1.920149803161621,-9.591172218322754,-1.9345149993896484,26.763916015625,-16.90673828125,4.791259765625
5.8499999,1.9057846069335938,-9.634267807006836,-1.9536685943603516,5.2337646484375,-20.477294921875,0.42724609375
5.869999900000001,1.886630892753601,-9.718064308166504,-1.9297266006469727,10.2691650390625,-21.5301513671875,-0.0152587890625
5.8899999,1.8698714971542358,-9.773131370544434,-1.8602946996688843,9.2315673828125,-15.899658203125,-0.3204345703125
5.909999900000001,1.8483237028121948,-9.804255485534668,-1.8076223134994507,-1.77001953125,-18.524169921875,-0.3662109375
5.9299999,1.821987509727478,-9.773131370544434,-1.7741034030914307,-3.875732421875,-22.5067138671875,-1.1749267578125
5.949999900000001,1.7908629179000854,-9.703699111938477,-1.7860745191574097,3.11279296875,-21.0418701171875,-2.685546875
5.9699999,1.7860745191574097,-9.66299819946289,-1.7932571172714233,-1.6326904296875,-15.2435302734375,0.2593994140625
5.989999900000001,1.7812861204147339,-9.607931137084961,-1.8507179021835327,-3.6468505859375,-17.425537109375,-0.6103515625
6.0099999,1.800439715385437,-9.59596061706543,-1.9321208000183105,-0.274658203125,-21.759033203125,-2.7923583984375
6.029999900000001,1.8195933103561401,-9.600749015808105,-1.9991583824157715,3.6468505859375,-15.289306640625,-1.6326904296875
6.0499999,1.821987509727478,-9.583989143371582,-2.0661959648132324,0.701904296875,-10.772705078125,-2.01416015625
6.069999900000001,1.8291701078414917,-9.591172218322754,-2.078166961669922,-1.4801025390625,-13.2598876953125,-0.6561279296875
6.0899999000000005,1.821987509727478,-9.588777542114258,-2.0614075660705566,-3.0364990234375,-18.00537109375,-1.8768310546875
6.109999900000001,1.8291701078414917,-9.622296333312988,-2.0207061767578125,-0.732421875,-16.4947509765625,-2.227783203125
6.1299999000000005,1.8315643072128296,-9.636661529541016,-2.006340980529785,5.9661865234375,-12.054443359375,-3.387451171875
6.149999900000001,1.8267759084701538,-9.63187313079834,-1.965639591217041,0,-11.5203857421875,-4.302978515625
6.1699999000000005,1.821987509727478,-9.62947940826416,-1.9033904075622559,-2.5787353515625,-14.5111083984375,-2.532958984375
6.1899999,1.8148049116134644,-9.639056205749512,-1.8100165128707886,0.5950927734375,-16.7388916015625,-2.9754638671875
6.209999900000001,1.8171991109848022,-9.63187313079834,-1.742978811264038,-4.5013427734375,-18.49365234375,-6.7901611328125
6.2299999,1.824381709098816,-9.634267807006836,-1.7357962131500244,6.3629150390625,-16.78466796875,-6.9580078125
6.249999900000001,1.8267759084701538,-9.588777542114258,-1.7549498081207275,6.2255859375,-13.6566162109375,-4.1351318359375
6.2699999,1.821987509727478,-9.502586364746094,-1.7956513166427612,2.7618408203125,-13.9312744140625,-3.9825439453125
6.289999900000001,1.8195933103561401,-9.430760383605957,-1.8171991109848022,5.9661865234375,-13.6566162109375,-1.800537109375
6.3099999,1.8195933103561401,-9.368511199951172,-1.8124107122421265,9.490966796875,-13.3056640625,-1.77001953125
6.329999900000001,1.8267759084701538,-9.366117477416992,-1.8411411046981812,7.568359375,-14.9383544921875,-1.4190673828125
6.3499999,1.8315643072128296,-9.387664794921875,-1.867477297782898,0.396728515625,-13.1072998046875,-2.105712890625
6.369999900000001,1.824381709098816,-9.41400146484375,-1.8722656965255737,0.8087158203125,-7.1563720703125,-3.5247802734375
6.3899999,1.8171991109848022,-9.459490776062012,-1.8387469053268433,5.828857421875,-7.0953369140625,-1.068115234375
6.409999900000001,1.7932571172714233,-9.452308654785156,-1.802833914756775,7.781982421875,-14.1143798828125,-2.50244140625
6.4299999,1.7932571172714233,-9.490615844726562,-1.7860745191574097,5.6610107421875,-14.007568359375,-1.495361328125
6.449999900000001,1.800439715385437,-9.50737476348877,-1.867477297782898,4.9896240234375,-9.1705322265625,-1.0528564453125
6.4699999,1.8148049116134644,-9.521739959716797,-1.987187385559082,3.997802734375,-5.950927734375,-3.0975341796875
6.489999900000001,1.8267759084701538,-9.528923034667969,-2.0661959648132324,-0.0762939453125,-4.180908203125,-1.3275146484375
6.5099999,1.843535304069519,-9.555258750915527,-2.1116859912872314,3.7841796875,-7.26318359375,0.2593994140625
6.529999900000001,1.8411411046981812,-9.557653427124023,-2.1164743900299072,6.134033203125,-6.4544677734375,-1.52587890625
6.5499999,1.8387469053268433,-9.543288230895996,-2.1523873805999756,4.638671875,-4.6844482421875,-3.631591796875
6.569999900000001,1.8483237028121948,-9.552865028381348,-2.164358377456665,-1.4495849609375,0.42724609375,1.2054443359375
6.5899999000000005,1.843535304069519,-9.531316757202148,-2.1380221843719482,0.0762939453125,3.5552978515625,2.227783203125
6.609999900000001,1.8555063009262085,-9.567230224609375,-2.0614075660705566,7.354736328125,0.0457763671875,0.335693359375
6.6299999000000005,1.8531121015548706,-9.603142738342285,-1.9512743949890137,6.3934326171875,-1.28173828125,-1.46484375
6.649999900000001,1.8579005002975464,-9.651026725769043,-1.8363527059555054,-0.06103515625,1.89208984375,-0.3204345703125
6.6699999000000005,1.843535304069519,-9.641449928283691,-1.7477672100067139,-0.0457763671875,2.593994140625,-0.48828125
6.6899999,1.8315643072128296,-9.617507934570312,-1.659181833267212,2.685546875,1.373291015625,-1.129150390625
6.709999900000001,1.8195933103561401,-9.579200744628906,-1.580173134803772,5.096435546875,1.3275146484375,0.5340576171875
6.7299999,1.8052281141281128,-9.53849983215332,-1.5275006294250488,6.988525390625,1.5869140625,0.4119873046875
6.749999900000001,1.7908629179000854,-9.516951560974121,-1.45806884765625,5.18798828125,3.4027099609375,-0.0152587890625
6.7699999,1.778891921043396,-9.500192642211914,-1.403002142906189,3.9825439453125,0.5645751953125,-0.06103515625
6.789999900000001,1.7501614093780518,-9.473855972290039,-1.3623007535934448,7.2479248046875,-2.9754638671875,-0.6256103515625
6.8099999,1.7190368175506592,-9.452308654785156,-1.314416766166687,1.3580322265625,-0.67138671875,1.3275146484375
6.829999900000001,1.6831238269805908,-9.418789863586426,-1.2761094570159912,-4.364013671875,-0.4425048828125,2.50244140625
6.8499999,1.680729627609253,-9.452308654785156,-1.2449848651885986,2.86865234375,-3.9520263671875,4.119873046875
6.869999900000001,1.699883222579956,-9.514557838439941,-1.2258312702178955,7.3089599609375,-6.011962890625,2.899169921875
6.8899999,1.7477672100067139,-9.622296333312988,-1.2473790645599365,3.8299560546875,-4.2724609375,0.3662109375
6.909999900000001,1.8052281141281128,-9.742006301879883,-1.2713210582733154,-0.18310546875,-0.732421875,0.2593994140625
6.9299999,1.843535304069519,-9.80904483795166,-1.3048399686813354,1.4495849609375,-2.4566650390625,-1.1749267578125
6.949999900000001,1.8626888990402222,-9.823410034179688,-1.3096283674240112,1.5411376953125,-5.462646484375,-2.593994140625
6.9699999,1.8602946996688843,-9.785101890563965,-1.3120225667953491,0.1068115234375,-5.0506591796875,-2.5787353515625
6.989999900000001,1.845929503440857,-9.713275909423828,-1.335964560508728,-3.96728515625,-4.058837890625,-1.953125
7.0099999,1.8267759084701538,-9.615114212036133,-1.3766659498214722,-4.364013671875,-4.5166015625,-3.1890869140625
7.029999900000001,1.8100165128707886,-9.524134635925293,-1.3982137441635132,-5.4931640625,-4.6539306640625,-3.509521484375
7.0499999,1.7980455160140991,-9.44991397857666,-1.4269442558288574,-5.6304931640625,-6.7901611328125,-2.1514892578125
7.069999900000001,1.7932571172714233,-9.39245319366455,-1.4700398445129395,-3.6468505859375,-7.965087890625,-2.0751953125
7.0899999000000005,1.8124107122421265,-9.399636268615723,-1.5442601442337036,7.50732421875,-3.7689208984375,-0.0457763671875
7.109999900000001,1.8315643072128296,-9.425971984863281,-1.6112977266311646,8.2550048828125,0.8087158203125,-0.9307861328125
7.1299999000000005,1.8531121015548706,-9.466673851013184,-1.6711528301239014,3.2958984375,-0.0152587890625,-2.0294189453125
7.149999900000001,1.8555063009262085,-9.495404243469238,-1.6687586307525635,4.4708251953125,0.0152587890625,-0.5340576171875
7.1699999000000005,1.8363527059555054,-9.493009567260742,-1.6304513216018677,4.4708251953125,0.8087158203125,0.79345703125
7.1899999,1.8100165128707886,-9.481039047241211,-1.5873557329177856,5.37109375,0.3814697265625,1.5106201171875
7.209999900000001,1.7908629179000854,-9.497797966003418,-1.5107412338256836,4.1046142578125,4.058837890625,2.1514892578125
7.2299999,1.778891921043396,-9.536105155944824,-1.436521053314209,-0.1983642578125,3.265380859375,1.5869140625
7.249999900000001,1.7717092037200928,-9.591172218322754,-1.338358759880066,2.0904541015625,2.0599365234375,0.1220703125
7.2699999,1.7693150043487549,-9.62947940826416,-1.235408067703247,6.04248046875,1.9073486328125,-0.06103515625
7.289999900000001,1.7717092037200928,-9.660603523254395,-1.1420341730117798,7.5836181640625,1.4801025390625,0.9918212890625
7.3099999,1.7693150043487549,-9.636661529541016,-1.113303780555725,8.209228515625,-1.4801025390625,-0.06103515625
7.329999900000001,1.7764976024627686,-9.627084732055664,-1.1204863786697388,5.6304931640625,-1.1444091796875,0.885009765625
7.3499999,1.7836803197860718,-9.607931137084961,-1.1420341730117798,1.800537109375,2.62451171875,1.3885498046875
7.369999900000001,1.7836803197860718,-9.59596061706543,-1.1875240802764893,3.2501220703125,1.1749267578125,0.18310546875
7.3899999,1.7812861204147339,-9.600749015808105,-1.192312479019165,4.33349609375,0.06103515625,0
7.409999900000001,1.7693150043487549,-9.600749015808105,-1.194706678390503,1.6937255859375,0.1983642578125,0.1068115234375
7.4299999,1.7501614093780518,-9.59596061706543,-1.1827356815338135,-1.2969970703125,0.946044921875,0.3509521484375
7.449999900000001,1.7334020137786865,-9.59596061706543,-1.1635819673538208,1.007080078125,1.5411376953125,0.79345703125
7.4699999,1.721431016921997,-9.600749015808105,-1.1276689767837524,2.593994140625,1.03759765625,1.3427734375
7.489999900000001,1.7286136150360107,-9.643844604492188,-1.072602391242981,2.7923583984375,0.67138671875,1.922607421875
7.5099999,1.7477672100067139,-9.6989107131958,-1.039083480834961,7.0343017578125,-0.396728515625,0.5645751953125
7.529999900000001,1.7932571172714233,-9.782708168029785,-1.0295066833496094,5.4931640625,-0.640869140625,0.091552734375
7.5499999,1.8339585065841675,-9.849745750427246,-1.048660397529602,1.708984375,-0.0762939453125,-0.4730224609375
7.569999900000001,1.867477297782898,-9.880870819091797,-1.0845733880996704,0.7171630859375,1.03759765625,-1.77001953125
7.5899999000000005,1.8914192914962769,-9.883264541625977,-1.1085153818130493,2.62451171875,1.1444091796875,-1.6632080078125
7.609999900000001,1.8938134908676147,-9.837775230407715,-1.1228805780410767,1.0528564453125,0.1373291015625,-2.1820068359375
7.6299999000000005,1.8962076902389526,-9.794678688049316,-1.1204863786697388,1.4801025390625,0.79345703125,-1.556396484375
7.649999900000001,1.8842366933822632,-9.742006301879883,-1.0965443849563599,1.708984375,2.5482177734375,-2.62451171875
7.6699999000000005,1.8794482946395874,-9.718064308166504,-1.115697979927063,0.6103515625,0.4119873046875,-3.7841796875
7.6899999,1.8842366933822632,-9.718064308166504,-1.170764684677124,-0.9307861328125,2.166748046875,-4.730224609375
7.709999900000001,1.8794482946395874,-9.6989107131958,-1.2090718746185303,-4.08935546875,10.5133056640625,-7.476806640625
7.7299999,1.8626888990402222,-9.679757118225098,-1.1779472827911377,-1.3427734375,14.739990234375,-6.04248046875
7.749999900000001,1.8195933103561401,-9.607931137084961,-1.0462661981582642,3.90625,7.8887939453125,-4.302978515625
7.7699999,1.7836803197860718,-9.555258750915527,-0.8595184087753296,4.57763671875,-1.1444091796875,-1.7242431640625
7.789999900000001,1.7549498081207275,-9.50498104095459,-0.7374141216278076,2.3651123046875,-3.2196044921875,-2.105712890625
7.8099999,1.764526605606079,-9.50498104095459,-0.751779317855835,0.67138671875,-0.579833984375,-2.38037109375
7.829999900000001,1.7908629179000854,-9.50498104095459,-0.8355764150619507,-3.8299560546875,2.288818359375,-2.5787353515625
7.8499999,1.8267759084701538,-9.521739959716797,-0.9145850539207458,-2.349853515625,2.227783203125,-1.8463134765625
7.869999900000001,1.8579005002975464,-9.528923034667969,-0.9552865028381348,2.960205078125,-1.6021728515625,-0.9002685546875
7.8899999,1.8938134908676147,-9.552865028381348,-0.9457096457481384,2.349853515625,-2.99072265625,-0.48828125
7.909999900000001,1.9177556037902832,-9.567230224609375,-0.950498104095459,1.7242431640625,-2.1514892578125,-1.6632080078125
7.9299999,1.946485996246338,-9.588777542114258,-0.9911994934082031,-1.15966796875,-3.47900390625,-1.4801025390625
7.949999900000001,1.9632453918457031,-9.583989143371582,-1.0606313943862915,0.18310546875,-2.349853515625,-1.678466796875
7.9699999,1.9800047874450684,-9.586383819580078,-1.1228805780410767,1.0223388671875,1.3275146484375,-1.0833740234375
7.989999900000001,1.9847931861877441,-9.57201862335205,-1.158793568611145,-0.8697509765625,1.983642578125,-1.8157958984375
8.0099999,1.9800047874450684,-9.564835548400879,-1.1540051698684692,2.532958984375,1.1444091796875,-1.861572265625
8.0299999,1.9728221893310547,-9.567230224609375,-1.1061211824417114,2.38037109375,0.5950927734375,-0.48828125
8.049999900000001,1.9704279899597168,-9.579200744628906,-1.0295066833496094,-2.1209716796875,0.2899169921875,-0.4730224609375
8.069999900000001,1.9632453918457031,-9.583989143371582,-0.9840168952941895,2.0599365234375,-1.4801025390625,-1.9989013671875
8.0899999,1.9584569931030273,-9.59596061706543,-0.9481038451194763,2.838134765625,-1.7852783203125,-1.5869140625
8.1099999,1.946485996246338,-9.583989143371582,-0.9385270476341248,0.0152587890625,-0.335693359375,-0.7476806640625
8.129999900000001,1.9393033981323242,-9.583989143371582,-0.9241618514060974,0.640869140625,0.091552734375,0.5340576171875
8.149999900000001,1.9321208000183105,-9.588777542114258,-0.9002198576927185,0.0457763671875,-2.0751953125,-0.1373291015625
8.1699999,1.9321208000183105,-9.63187313079834,-0.8690952062606812,-0.762939453125,-3.692626953125,-0.6561279296875
8.1899999,1.9512743949890137,-9.730035781860352,-0.7852981686592102,-2.4566650390625,-1.556396484375,-0.30517578125
8.2099999,1.9584569931030273,-9.81143856048584,-0.6751648783683777,-1.6326904296875,-2.7923583984375,-4.2877197265625
8.229999900000001,1.968033790588379,-9.86650562286377,-0.5602431893348694,2.4871826171875,-11.138916015625,-7.8277587890625
8.2499999,1.9800047874450684,-9.864110946655273,-0.5027823448181152,6.561279296875,-16.17431640625,-5.6610107421875
8.2699999,1.9823989868164062,-9.75397777557373,-0.6200982332229614,10.498046875,-16.0369873046875,-5.3558349609375
8.2899999,2.0039467811584473,-9.634267807006836,-0.871489405632019,7.415771484375,-9.8419189453125,-3.2806396484375
8.309999900000001,2.032677173614502,-9.50737476348877,-1.1516109704971313,0.213623046875,-3.0517578125,-2.7618408203125
8.3299999,2.0590133666992188,-9.428366661071777,-1.359906554222107,4.180908203125,-1.0223388671875,-1.7242431640625
8.3499999,2.078166961669922,-9.411606788635254,-1.4245500564575195,5.340576171875,-2.9449462890625,-0.5035400390625
8.3699999,2.0901381969451904,-9.442731857299805,-1.37906014919281,3.2501220703125,-2.9449462890625,-0.518798828125
8.389999900000001,2.0925323963165283,-9.502586364746094,-1.2761094570159912,1.89208984375,-0.8544921875,-1.312255859375
8.4099999,2.0925323963165283,-9.576807022094727,-1.1683704853057861,7.87353515625,0.9765625,-1.007080078125
8.4299999,2.075772762298584,-9.615114212036133,-1.072602391242981,6.683349609375,-0.3814697265625,-1.4495849609375
8.4499999,2.054224967956543,-9.63187313079834,-0.9672574996948242,4.0740966796875,0.457763671875,-0.91552734375
8.469999900000001,2.03507137298584,-9.636661529541016,-0.8882488012313843,4.5623779296875,-0.0762939453125,-0.0152587890625
8.4899999,2.008735179901123,-9.610325813293457,-0.8188169598579407,7.75146484375,-1.9683837890625,-1.190185546875
8.5099999,2.011129379272461,-9.619902610778809,-0.7709329724311829,9.9945068359375,-1.953125,-0.1373291015625
8.5299999,2.011129379272461,-9.603142738342285,-0.7541735172271729,13.6260986328125,-0.701904296875,-0.030517578125
8.549999900000001,2.0183119773864746,-9.600749015808105,-0.7326257228851318,12.847900390625,-0.7476806640625,-1.3885498046875
8.569999900000001,2.0207061767578125,-9.59596061706543,-0.7086837291717529,13.824462890625,-1.861572265625,-0.579833984375
8.5899999,2.0159177780151367,-9.560047149658203,-0.6560112833976746,19.3023681640625,-3.2196044921875,-0.9918212890625
8.6099999,2.011129379272461,-9.536105155944824,-0.6488286852836609,32.6995849609375,-3.6163330078125,0.8697509765625
8.629999900000001,1.9991583824157715,-9.485827445983887,-0.6320692300796509,28.9306640625,-0.9765625,-0.5035400390625
8.649999900000001,1.987187385559082,-9.425971984863281,-0.6248866319656372,17.51708984375,0.1678466796875,-0.0762939453125
8.6699999,1.9800047874450684,-9.390059471130371,-0.5746083855628967,21.331787109375,0.1220703125,3.2501220703125
8.6899999,1.9823989868164062,-9.373299598693848,-0.4141969084739685,30.0445556640625,-0.1983642578125,4.4097900390625
8.709999900000001,1.9847931861877441,-9.404424667358398,-0.20350714027881622,50.6591796875,-1.52587890625,2.86865234375
8.729999900000001,2.011129379272461,-9.481039047241211,0.040701430290937424,75.8819580078125,0.2899169921875,2.8076171875
8.7499999,2.0183119773864746,-9.552865028381348,0.26815059781074524,56.854248046875,-3.1280517578125,2.166748046875
8.7699999,2.0374655723571777,-9.63187313079834,0.4381389021873474,36.7584228515625,-5.4779052734375,2.044677734375
8.7899999,2.0446481704711914,-9.684545516967773,0.5339069962501526,22.613525390625,-5.4168701171875,1.220703125
8.809999900000001,2.051830768585205,-9.718064308166504,0.5578489899635315,14.16015625,-4.974365234375,0.0457763671875
8.8299999,2.0590133666992188,-9.742006301879883,0.5482721924781799,-2.4566650390625,-3.3721923828125,0.640869140625
8.8499999,2.056619167327881,-9.732429504394531,0.5099649429321289,-16.6473388671875,-3.2196044921875,-0.2288818359375
8.8699999,2.0590133666992188,-9.720458984375,0.44532153010368347,-14.1448974609375,-4.8828125,0.0762939453125
8.889999900000001,2.0661959648132324,-9.720458984375,0.3447650372982025,-9.0484619140625,-6.40869140625,1.1444091796875
8.9099999,2.094926595687866,-9.761159896850586,0.15322890877723694,-3.4942626953125,-6.04248046875,0.823974609375
8.9299999,2.1499931812286377,-9.854534149169922,-0.12449848651885986,-2.899169921875,-4.9591064453125,-0.9613037109375
8.9499999,2.212242364883423,-9.967061996459961,-0.49320554733276367,6.6070556640625,-1.6632080078125,-3.021240234375
8.969999900000001,2.300827741622925,-10.096348762512207,-0.9600749015808105,9.58251953125,0.06103515625,-3.8299560546875
8.9899999,2.3942017555236816,-10.237606048583984,-1.5394717454910278,-2.0904541015625,-0.79345703125,-3.4942626953125
9.0099999,2.4468741416931152,-10.290278434753418,-2.207453966140747,-16.11328125,4.7149658203125,-11.1541748046875
9.0299999,2.454056739807129,-10.299856185913086,-3.0095114707946777,-27.2674560546875,7.476806640625,-8.9874267578125
9.049999900000001,2.408566951751709,-10.309432983398438,-3.9911341667175293,-33.7066650390625,16.2200927734375,1.6021728515625
9.069999900000001,2.2697031497955322,-10.254365921020508,-4.941632270812988,-55.2520751953125,49.0570068359375,5.218505859375
9.0899999,2.0470423698425293,-10.20648193359375,-5.7556610107421875,-74.2950439453125,78.61328125,12.8326416015625
9.1099999,1.7932571172714233,-10.251971244812012,-6.208165168762207,-59.967041015625,100.555419921875,32.5469970703125
9.129999900000001,1.4389152526855469,-10.259154319763184,-6.347028732299805,-63.5986328125,94.6807861328125,35.2325439453125
9.149999900000001,1.0749965906143188,-10.333374977111816,-6.3302693367004395,-64.1021728515625,92.803955078125,26.85546875
9.1699999,0.6703764796257019,-10.453084945678711,-6.294356346130371,-41.1834716796875,114.80712890625,21.240234375
9.1899999,0.2322375625371933,-10.524910926818848,-6.265625953674316,-43.4112548828125,129.5623779296875,13.3819580078125
9.209999900000001,-0.23702596127986908,-10.594342231750488,-6.179434776306152,-38.9404296875,139.862060546875,7.4310302734375
9.229999900000001,-0.7469909191131592,-10.539276123046875,-5.8442463874816895,-16.357421875,159.6832275390625,4.6844482421875
9.2499999,-1.2306196689605713,-10.45547866821289,-5.2911858558654785,-29.7393798828125,164.276123046875,7.080078125
9.2699999,-1.6711528301239014,-10.319009780883789,-4.666299343109131,-64.27001953125,154.2816162109375,12.3138427734375
9.2899999,-2.008735179901123,-10.168174743652344,-3.9456443786621094,-55.7861328125,164.2303466796875,9.94873046875
9.309999900000001,-2.2433669567108154,-10.02691650390625,-3.450044631958008,-37.3687744140625,176.6204833984375,8.1634521484375
9.3299999,-2.4660277366638184,-9.770736694335938,-3.0382418632507324,-37.841796875,185.8978271484375,3.7994384765625
9.3499999,-2.6839001178741455,-9.473855972290039,-2.5522189140319824,-43.2586669921875,206.0699462890625,8.85009765625
9.3699999,-2.894589900970459,-9.255983352661133,-1.9512743949890137,-34.4390869140625,204.7271728515625,19.927978515625
9.389999900000001,-3.1052796840667725,-9.05487060546875,-1.0319008827209473,-13.3056640625,199.1424560546875,16.7999267578125
9.4099999,-3.220201253890991,-9.05247688293457,0.05267243832349777,8.1634521484375,194.4427490234375,18.798828125
9.4299999,-3.2417490482330322,-9.131484985351562,1.3000515699386597,11.3525390625,189.1632080078125,20.9197998046875
9.4499999,-3.1076738834381104,-9.32302188873291,2.47560453414917,8.11767578125,169.0216064453125,19.1650390625
9.469999900000001,-2.9017724990844727,-9.41400146484375,3.397372245788574,11.8408203125,146.66748046875,9.94873046875
9.4899999,-2.58813214302063,-9.524134635925293,3.9384617805480957,-29.510498046875,139.95361328125,12.3291015625
9.5099999,-2.2697031497955322,-9.490615844726562,4.065354347229004,-127.410888671875,132.0648193359375,23.1781005859375
9.5299999,-1.9943699836730957,-9.368511199951172,4.151545524597168,-134.674072265625,130.5389404296875,33.111572265625
9.549999900000001,-1.742978811264038,-9.3828763961792,4.240131378173828,-41.4276123046875,116.119384765625,40.130615234375
9.569999900000001,-1.6543933153152466,-9.430760383605957,4.20421838760376,-35.247802734375,88.043212890625,42.9534912109375
9.5899999,-1.4317326545715332,-9.947908401489258,4.345476150512695,-237.5640869140625,85.3729248046875,58.2733154296875
9.6099999,-1.3958195447921753,-10.374075889587402,4.177882194519043,-289.1387939453125,74.0509033203125,39.9932861328125
9.629999900000001,-1.192312479019165,-11.039664268493652,3.864241600036621,-147.9644775390625,80.2764892578125,35.308837890625
9.649999900000001,-0.7876923680305481,-11.530475616455078,3.6607344150543213,-172.2259521484375,40.83251953125,30.975341796875
9.6699999,-0.42856210470199585,-11.63103199005127,2.537853717803955,-2.1209716796875,-12.3748779296875,3.47900390625
9.6899999,0.18914192914962769,-11.578359603881836,1.314416766166687,65.85693359375,-6.34765625,13.97705078125
9.709999900000001,0.6320692300796509,-11.195286750793457,-0.2825157940387726,46.69189453125,23.4527587890625,12.7105712890625
9.729999900000001,1.01753568649292,-10.78348445892334,-1.7094600200653076,95.916748046875,24.3377685546875,5.5999755859375
9.7499999,1.2737152576446533,-10.412383079528809,-2.5474305152893066,102.783203125,20.1416015625,4.7607421875
9.7699999,1.4077905416488647,-10.201693534851074,-2.940079689025879,125.2288818359375,17.333984375,2.655029296875
9.7899999,1.5083470344543457,-10.211270332336426,-2.9305028915405273,125.1983642578125,20.0958251953125,8.72802734375
9.809999900000001,1.5131354331970215,-10.283096313476562,-2.717418909072876,93.7347412109375,15.411376953125,5.889892578125
9.8299999,1.4700398445129395,-10.417171478271484,-2.382230758666992,42.6788330078125,0.8697509765625,3.204345703125
9.8499999,1.4221558570861816,-10.560823440551758,-2.011129379272461,31.768798828125,1.5106201171875,5.5694580078125
9.8699999,1.3646949529647827,-10.575188636779785,-1.7597382068634033,29.876708984375,1.46484375,1.5411376953125
9.889999900000001,1.3192051649093628,-10.529699325561523,-1.5682021379470825,23.37646484375,5.462646484375,-3.5247802734375
9.9099999,1.2737152576446533,-10.393229484558105,-1.501164436340332,16.1285400390625,7.5836181640625,-2.6702880859375
9.9299999,1.2306196689605713,-10.201693534851074,-1.4508862495422363,8.3770751953125,4.4097900390625,1.52587890625
9.9499999,1.1516109704971313,-9.950302124023438,-1.434126853942871,10.7574462890625,5.1727294921875,0.54931640625
9.969999900000001,1.094150185585022,-9.780313491821289,-1.3934253454208374,6.378173828125,6.683349609375,2.74658203125
9.9899999,1.0606313943862915,-9.679757118225098,-1.3718775510787964,-4.5928955078125,3.4332275390625,3.814697265625
10.0099999,1.036689281463623,-9.624691009521484,-1.3431471586227417,-1.4190673828125,2.3040771484375,0.1983642578125
10.0299999,1.048660397529602,-9.66299819946289,-1.3072341680526733,3.8909912109375,3.8909912109375,-1.1749267578125
10.049999900000001,1.048660397529602,-9.677363395690918,-1.2976573705673218,2.38037109375,3.11279296875,-2.13623046875
10.069999900000001,1.0295066833496094,-9.648633003234863,-1.278503656387329,-4.9591064453125,2.9144287109375,-3.326416015625
10.0899999,0.9792284965515137,-9.603142738342285,-1.2952631711959839,-4.2877197265625,3.9825439453125,2.7313232421875
10.1099999,0.9265560507774353,-9.586383819580078,-1.2042834758758545,-6.6986083984375,8.1787109375,8.880615234375
10.129999900000001,0.8619126081466675,-9.615114212036133,-1.115697979927063,-3.8604736328125,2.8228759765625,4.8675537109375
10.149999900000001,0.8403648138046265,-9.715670585632324,-0.950498104095459,-12.176513671875,-3.47900390625,-0.7781982421875
10.1699999,0.8523358106613159,-9.813833236694336,-0.9074024558067322,-12.4664306640625,-8.392333984375,-3.3111572265625
10.1899999,0.8810662031173706,-9.835380554199219,-0.9097966551780701,-7.9193115234375,-2.8839111328125,-4.5623779296875
10.209999900000001,0.9265560507774353,-9.799467086791992,-1.0127472877502441,-6.7291259765625,0.701904296875,-2.8076171875
10.229999900000001,0.9552865028381348,-9.674968719482422,-1.1516109704971313,-3.1280517578125,-1.46484375,0.1373291015625
10.2499999,0.9792284965515137,-9.593565940856934,-1.237802267074585,-2.105712890625,-0.3204345703125,3.021240234375
10.2699999,0.9983820915222168,-9.545681953430176,-1.3120225667953491,-2.166748046875,1.6937255859375,2.0294189453125
10.2899999,1.0271124839782715,-9.593565940856934,-1.3048399686813354,4.3182373046875,4.5013427734375,0.701904296875
10.309999900000001,1.0438719987869263,-9.658209800720215,-1.2521674633026123,10.528564453125,3.60107421875,-1.8463134765625
10.3299999,1.0462661981582642,-9.72285270690918,-1.1300631761550903,11.23046875,0.4119873046875,-4.608154296875
10.3499999,1.0199298858642578,-9.713275909423828,-1.01753568649292,7.5225830078125,-2.3345947265625,-6.9732666015625
10.3699999,0.9959878921508789,-9.670180320739746,-0.9217676520347595,-0.4119873046875,-4.638671875,-6.5460205078125
10.389999900000001,0.9792284965515137,-9.445125579833984,-1.0319008827209473,9.6588134765625,-1.9378662109375,-3.41796875
10.4099999,0.9959878921508789,-9.3828763961792,-1.0749965906143188,2.1209716796875,6.256103515625,1.2054443359375
10.4299999,1.0007762908935547,-9.375694274902344,-1.0438719987869263,1.64794921875,3.5858154296875,-0.4730224609375
10.4499999,0.9959878921508789,-9.430760383605957,-0.9289502501487732,7.8125,-5.1727294921875,-2.13623046875
10.469999900000001,0.9816226959228516,-9.488221168518066,-0.8451532125473022,5.1116943359375,-10.2996826171875,-1.8310546875
10.4899999,0.9672574996948242,-9.490615844726562,-0.9361328482627869,-2.7313232421875,-9.4451904296875,1.0833740234375
10.5099999,0.9816226959228516,-9.521739959716797,-1.1468225717544556,-10.986328125,-2.01416015625,7.7362060546875
10.5299999,1.0007762908935547,-9.569623947143555,-1.3623007535934448,-6.103515625,4.1961669921875,7.38525390625
10.549999900000001,1.036689281463623,-9.658209800720215,-1.5083470344543457,-8.48388671875,-1.861572265625,3.387451171875
10.569999900000001,1.0630255937576294,-9.792284965515137,-1.5394717454910278,-4.69970703125,-5.218505859375,3.5552978515625
10.5899999,1.0797849893569946,-9.892841339111328,-1.5466543436050415,-3.570556640625,-5.5694580078125,2.685546875
10.6099999,1.091755986213684,-9.93354320526123,-1.525106430053711,-0.30517578125,-2.99072265625,0.7476806640625
10.629999900000001,1.094150185585022,-9.947908401489258,-1.534683346748352,7.9498291015625,-1.922607421875,3.326416015625
10.649999900000001,1.0749965906143188,-9.926360130310059,-1.479616641998291,16.5557861328125,-0.4119873046875,7.293701171875
10.6699999,1.0414776802062988,-9.959878921508789,-1.41257905960083,24.993896484375,3.0517578125,10.2081298828125
10.6899999,1.0127472877502441,-10.002974510192871,-1.3000515699386597,29.022216796875,4.7607421875,10.589599609375
10.709999900000001,0.9696516990661621,-10.072406768798828,-1.173158884048462,25.177001953125,5.6304931640625,6.6680908203125
10.729999900000001,0.9313444495201111,-10.105925559997559,-1.0797849893569946,13.092041015625,1.7242431640625,3.1585693359375
10.7499999,0.871489405632019,-10.079588890075684,-0.9576807022094727,1.007080078125,4.1961669921875,0.2288818359375
10.7699999,0.8020575642585754,-10.017339706420898,-0.8595184087753296,-8.2550048828125,2.899169921875,-0.1983642578125
10.7899999,0.7589619159698486,-10.002974510192871,-0.7948749661445618,-6.3934326171875,-3.5400390625,1.1749267578125
10.809999900000001,0.7469909191131592,-9.976638793945312,-0.7733271718025208,-6.6986083984375,-2.86865234375,-1.4190673828125
10.8299999,0.7613561153411865,-9.943120002746582,-0.8259995579719543,-3.2958984375,2.4261474609375,-4.3487548828125
10.8499999,0.7924807667732239,-9.885659217834473,-0.8954314589500427,-7.0343017578125,5.8441162109375,-1.251220703125
10.8699999,0.7948749661445618,-9.806650161743164,-0.9074024558067322,-5.645751953125,5.6610107421875,1.129150390625
10.889999900000001,0.7757213711738586,-9.708487510681152,-0.790086567401886,-6.0882568359375,5.767822265625,-0.42724609375
10.9099999,0.7350199222564697,-9.66539192199707,-0.6751648783683777,3.173828125,-0.1678466796875,-0.3814697265625
10.9299999,0.7086837291717529,-9.660603523254395,-0.5123591423034668,1.3275146484375,-0.1373291015625,1.556396484375
10.9499999,0.6799532771110535,-9.672574996948242,-0.4836287498474121,5.7830810546875,-0.8544921875,0.5950927734375
10.969999900000001,0.6799532771110535,-9.713275909423828,-0.42856210470199585,1.52587890625,1.9989013671875,-1.312255859375
10.9899999,0.6751648783683777,-9.75397777557373,-0.4620809257030487,2.3040771484375,-1.6937255859375,-2.6702880859375
11.0099999,0.6751648783683777,-9.780313491821289,-0.5027823448181152,4.2724609375,-6.3323974609375,-2.9144287109375
11.0299999,0.6703764796257019,-9.751583099365234,-0.5841852426528931,-1.129150390625,-5.0048828125,-3.7078857421875
11.049999900000001,0.6751648783683777,-9.730035781860352,-0.7326257228851318,1.3275146484375,-3.6773681640625,-2.716064453125
11.069999900000001,0.6871358752250671,-9.670180320739746,-0.871489405632019,-3.8909912109375,-3.7384033203125,-2.01416015625
11.0899999,0.7230489253997803,-9.660603523254395,-1.0103530883789062,-6.3934326171875,-5.4931640625,0.18310546875
11.1099999,0.7565677165985107,-9.627084732055664,-1.1061211824417114,-6.5765380859375,-3.2958984375,-1.739501953125
11.129999900000001,0.811634361743927,-9.66539192199707,-1.170764684677124,-9.2315673828125,-2.1209716796875,-1.0223388671875
11.149999900000001,0.8930372595787048,-9.706093788146973,-1.2282254695892334,-11.8408203125,-5.401611328125,-0.152587890625
11.1699999,0.9672574996948242,-9.749189376831055,-1.2880805730819702,-7.50732421875,-5.8746337890625,-2.3345947265625
11.1899999,1.0534487962722778,-9.804255485534668,-1.3239935636520386,-7.568359375,-2.01416015625,-0.42724609375
11.209999900000001,1.1228805780410767,-9.856928825378418,-1.3862427473068237,-8.9569091796875,-3.387451171875,1.0223388671875
11.229999900000001,1.1803414821624756,-9.909601211547852,-1.414973258972168,-8.5601806640625,-4.669189453125,0.18310546875
11.2499999,1.2234370708465576,-9.945513725280762,-1.4437036514282227,-4.5318603515625,-3.4637451171875,-1.52587890625
11.2699999,1.2401964664459229,-9.945513725280762,-1.4700398445129395,1.9073486328125,-1.1444091796875,-2.716064453125
11.2899999,1.2425906658172607,-9.909601211547852,-1.5131354331970215,-0.9765625,-0.91552734375,-1.8768310546875
11.309999900000001,1.216254472732544,-9.849745750427246,-1.5466543436050415,-0.7171630859375,1.1138916015625,-0.762939453125
11.3299999,1.1659762859344482,-9.782708168029785,-1.5490485429763794,2.3345947265625,4.7607421875,-1.15966796875
11.3499999,1.1037269830703735,-9.749189376831055,-1.5107412338256836,2.3040771484375,6.5460205078125,-1.220703125
11.3699999,1.036689281463623,-9.725247383117676,-1.4437036514282227,3.936767578125,4.730224609375,-1.5411376953125
11.389999900000001,0.9840168952941895,-9.737217903137207,-1.3455413579940796,4.913330078125,5.2337646484375,-0.1220703125
11.4099999,0.9457096457481384,-9.761159896850586,-1.2976573705673218,4.8370361328125,4.1351318359375,-0.823974609375
11.4299999,0.9313444495201111,-9.81143856048584,-1.2330138683319092,1.3427734375,6.4849853515625,-1.40380859375
11.4499999,0.9289502501487732,-9.847352027893066,-1.235408067703247,0.6866455078125,4.852294921875,-1.7242431640625
11.469999900000001,0.9169792532920837,-9.873687744140625,-1.1994950771331787,4.974365234375,6.8206787109375,-1.8463134765625
11.4899999,0.8978256583213806,-9.873687744140625,-1.158793568611145,5.2947998046875,7.4920654296875,-1.8310546875
11.5099999,0.8834604024887085,-9.864110946655273,-1.113303780555725,4.4403076171875,4.1046142578125,-1.4801025390625
11.5299999,0.8738836050033569,-9.813833236694336,-1.070208191871643,2.349853515625,2.7008056640625,-1.556396484375
11.549999900000001,0.8834604024887085,-9.75397777557373,-1.0678139925003052,4.2266845703125,3.7994384765625,-0.6256103515625
11.569999900000001,0.9050082564353943,-9.701305389404297,-1.0558429956436157,3.3111572265625,6.4239501953125,0.54931640625
11.5899999,0.9313444495201111,-9.66539192199707,-1.0462661981582642,-0.9918212890625,4.1961669921875,-0.8544921875
11.6099999,0.950498104095459,-9.648633003234863,-1.0438719987869263,1.983642578125,1.0833740234375,-1.4190673828125
11.629999900000001,0.9624691009521484,-9.62947940826416,-1.015141487121582,4.241943359375,3.936767578125,0.0152587890625
11.649999900000001,0.9624691009521484,-9.605537414550781,-1.0606313943862915,4.21142578125,4.1351318359375,1.007080078125
11.6699999,0.9552865028381348,-9.569623947143555,-1.0534487962722778,-1.4190673828125,5.340576171875,1.1138916015625
11.6899999,0.9457096457481384,-9.531316757202148,-1.0582371950149536,0.9613037109375,4.21142578125,0.8697509765625
11.709999900000001,0.9385270476341248,-9.521739959716797,-1.0319008827209473,6.5765380859375,2.471923828125,1.953125
11.729999900000001,0.9361328482627869,-9.512163162231445,-0.9959878921508789,2.0751953125,2.716064453125,1.312255859375
11.7499999,0.9481038451194763,-9.548076629638672,-0.9672574996948242,-0.1983642578125,3.4027099609375,2.5634765625
11.7699999,0.9576807022094727,-9.59835433959961,-0.9289502501487732,-0.091552734375,3.0670166015625,1.28173828125
11.7899999,0.9624691009521484,-9.658209800720215,-0.8978256583213806,0.6866455078125,1.40380859375,-0.213623046875
11.809999900000001,0.9672574996948242,-9.708487510681152,-0.8331822156906128,0.48828125,2.7618408203125,1.251220703125
11.8299999,0.9552865028381348,-9.725247383117676,-0.8044517636299133,-2.0904541015625,0.0762939453125,0.1068115234375
11.8499999,0.950498104095459,-9.710882186889648,-0.7996633648872375,10.9100341796875,0.1220703125,0.2899169921875
11.8699999,0.9289502501487732,-9.674968719482422,-0.8810662031173706,-9.3841552734375,-1.8463134765625,1.9683837890625
11.889999900000001,0.9361328482627869,-9.684545516967773,-0.8858546018600464,-21.0113525390625,4.9591064453125,-0.030517578125
11.9099999,0.9145850539207458,-9.694122314453125,-0.9648633003234863,-11.993408203125,-1.373291015625,6.744384765625
11.9299999,0.912190854549408,-9.761159896850586,-0.9289502501487732,-4.6539306640625,-0.762939453125,0.48828125
11.9499999,0.9002198576927185,-9.852140426635742,-0.8810662031173706,0,0.06103515625,2.6092529296875
11.969999900000001,0.8858546018600464,-9.955090522766113,-0.8307880163192749,2.1514892578125,-0.9765625,0.701904296875
11.9899999,0.8834604024887085,-10.04846477508545,-0.8044517636299133,9.1552734375,-2.3345947265625,-2.6397705078125
12.0099999,0.8786720037460327,-10.105925559997559,-0.7876923680305481,12.6800537109375,-1.190185546875,-3.2958984375
12.0299999,0.8762778043746948,-10.110713958740234,-0.7757213711738586,10.284423828125,-0.1068115234375,-3.021240234375
12.049999900000001,0.8475474119186401,-10.053253173828125,-0.7972691655158997,10.5133056640625,-2.655029296875,-3.47900390625
12.069999900000001,0.828393816947937,-9.962273597717285,-0.7469909191131592,0.06103515625,-3.72314453125,-2.838134765625
12.0899999,0.8092401623725891,-9.885659217834473,-0.7469909191131592,3.0517578125,-6.4697265625,-1.220703125
12.1099999,0.8212111592292786,-9.84256362915039,-0.7182605266571045,0.946044921875,-6.6070556640625,-1.2359619140625
12.129999900000001,0.8427590131759644,-9.821015357971191,-0.751779317855835,-1.4801025390625,-7.354736328125,-3.4332275390625
12.149999900000001,0.8762778043746948,-9.816226959228516,-0.7637503147125244,-2.62451171875,-5.1422119140625,-3.7994384765625
12.1699999,0.8882488012313843,-9.78989028930664,-0.8068459630012512,13.00048828125,-3.753662109375,-3.2806396484375
12.1899999,0.8930372595787048,-9.718064308166504,-0.8164227604866028,16.54052734375,-4.39453125,-1.922607421875
12.209999900000001,0.8834604024887085,-9.672574996948242,-0.8595184087753296,11.9781494140625,-4.5166015625,1.068115234375
12.229999900000001,0.8882488012313843,-9.627084732055664,-0.8379706144332886,1.3580322265625,-3.11279296875,1.3275146484375
12.2499999,0.8834604024887085,-9.610325813293457,-0.8643068075180054,3.631591796875,-4.4403076171875,-0.3204345703125
12.2699999,0.9217676520347595,-9.684545516967773,-0.8379706144332886,-0.30517578125,-5.2032470703125,2.5482177734375
12.289999900000002,0.9433154463768005,-9.713275909423828,-0.8092401623725891,-2.1820068359375,-5.4931640625,-0.823974609375
12.309999900000001,1.0103530883789062,-9.813833236694336,-0.8379706144332886,11.9781494140625,-6.2408447265625,-1.6632080078125
12.3299999,1.0654197931289673,-9.840168952941895,-0.8738836050033569,17.8375244140625,-4.21142578125,-2.74658203125
12.3499999,1.115697979927063,-9.86889934539795,-0.9552865028381348,17.364501953125,-0.8392333984375,-2.1514892578125
12.3699999,1.1563993692398071,-9.86889934539795,-0.9840168952941895,8.1939697265625,1.617431640625,-0.396728515625
12.389999900000001,1.1683704853057861,-9.861717224121094,-1.0223240852355957,1.03759765625,-2.1820068359375,-0.9613037109375
12.4099999,1.173158884048462,-9.8784761428833,-0.9816226959228516,-2.685546875,-1.89208984375,-0.1678466796875
12.4299999,1.1492167711257935,-9.892841339111328,-0.933738648891449,-6.6070556640625,0.6256103515625,-2.5177001953125
12.4499999,1.1085153818130493,-9.892841339111328,-0.849941611289978,-1.6021728515625,1.0833740234375,-2.86865234375
12.469999900000001,1.0558429956436157,-9.909601211547852,-0.7445967197418213,6.53076171875,1.3885498046875,-0.06103515625
12.4899999,1.0007762908935547,-9.926360130310059,-0.6512228846549988,8.4686279296875,0.1068115234375,0.6103515625
12.5099999,0.9624691009521484,-9.952696800231934,-0.5386953949928284,5.157470703125,1.6632080078125,-2.2735595703125
12.5299999,0.9457096457481384,-9.988609313964844,-0.4908113479614258,12.3748779296875,0.5645751953125,-4.57763671875
12.549999900000001,0.9481038451194763,-10.017339706420898,-0.4812345504760742,23.37646484375,0.2288818359375,-3.4942626953125
12.569999900000001,0.9696516990661621,-10.007762908935547,-0.47884035110473633,10.2996826171875,2.532958984375,-2.899169921875
12.5899999,1.0127472877502441,-10.012551307678223,-0.5051765441894531,2.3345947265625,2.9144287109375,-2.7313232421875
12.6099999,1.05105459690094,-10.007762908935547,-0.5339069962501526,13.5345458984375,3.143310546875,-3.7384033203125
12.629999900000001,1.0821791887283325,-10.02452278137207,-0.4836287498474121,4.1656494140625,5.523681640625,-3.2501220703125
12.649999900000001,1.0845733880996704,-10.019734382629395,-0.4141969084739685,-15.1214599609375,1.3275146484375,-4.5318603515625
12.6699999,1.0749965906143188,-10.019734382629395,-0.33758243918418884,-7.4920654296875,-2.5787353515625,-4.730224609375
12.6899999,1.0654197931289673,-9.981427192687988,-0.26575639843940735,-2.9449462890625,-2.0294189453125,-5.523681640625
12.709999900000001,1.0582371950149536,-9.921571731567383,-0.23702596127986908,0.6256103515625,-0.1983642578125,-6.2103271484375
12.729999900000001,1.070208191871643,-9.847352027893066,-0.24420857429504395,5.6915283203125,-0.701904296875,-5.31005859375
12.7499999,1.0773907899856567,-9.768342971801758,-0.24660277366638184,8.9569091796875,-2.62451171875,-6.1492919921875
12.7699999,1.0893617868423462,-9.694122314453125,-0.22266076505184174,7.9498291015625,-2.7313232421875,-7.2021484375
12.789999900000002,1.091755986213684,-9.624691009521484,-0.22744916379451752,7.080078125,-5.157470703125,-6.439208984375
12.809999900000001,1.0893617868423462,-9.557653427124023,-0.1843535304069519,4.547119140625,-2.1514892578125,-3.90625
12.8299999,1.0893617868423462,-9.5408935546875,-0.16519992053508759,5.79833984375,-0.6103515625,-0.823974609375
12.8499999,1.1109095811843872,-9.555258750915527,-0.11013327538967133,-3.5858154296875,-4.3182373046875,-0.6866455078125
12.8699999,1.1324573755264282,-9.610325813293457,-0.05985504388809204,-1.708984375,-4.913330078125,-3.1585693359375
12.889999900000001,1.1635819673538208,-9.706093788146973,-0.004788403399288654,2.899169921875,-4.21142578125,-1.6937255859375
12.9099999,1.1971008777618408,-9.785101890563965,0.06464344263076782,-2.5634765625,-5.2947998046875,-3.2196044921875
12.9299999,1.1994950771331787,-9.859322547912598,0.07661445438861847,17.181396484375,-5.9967041015625,-4.7454833984375
12.9499999,1.2090718746185303,-9.895236015319824,0.11252748221158981,22.9339599609375,-3.8604736328125,-3.204345703125
12.969999900000001,1.2306196689605713,-9.964667320251465,0.08858546614646912,-11.474609375,-7.1868896484375,-4.3182373046875
12.9899999,1.1971008777618408,-9.895236015319824,0.05985504388809204,9.1705322265625,-8.392333984375,-9.33837890625
13.0099999,1.2210428714752197,-9.940725326538086,0.05267243832349777,-4.6234130859375,-6.4239501953125,-0.8087158203125
13.0299999,1.1851298809051514,-9.856928825378418,0.05746084079146385,-8.544921875,-10.4827880859375,-7.293701171875
13.049999900000001,1.1851298809051514,-9.859322547912598,0.040701430290937424,-3.7994384765625,-12.1612548828125,-6.2713623046875
13.069999900000001,1.1971008777618408,-9.871294021606445,0.06224924325942993,-2.5634765625,-8.758544921875,-3.5247802734375
13.0899999,1.2210428714752197,-9.876082420349121,0.06224924325942993,-7.4310302734375,-10.80322265625,-8.0413818359375
13.1099999,1.278503656387329,-9.914389610290527,0.05027823522686958,-3.23486328125,-14.984130859375,-8.9874267578125
13.129999900000001,1.3335703611373901,-9.909601211547852,0.028730420395731926,-4.3487548828125,-16.7388916015625,-10.1776123046875
13.149999900000001,1.400607943534851,-9.931148529052734,-0.016759412363171577,-3.7384033203125,-13.5650634765625,-9.1094970703125
13.1699999,1.45806884765625,-9.940725326538086,-0.07422025501728058,0.8697509765625,-13.00048828125,-9.735107421875
13.1899999,1.4867992401123047,-9.931148529052734,-0.0933738648891449,-0.9307861328125,-15.7623291015625,-13.0462646484375
13.209999900000001,1.5083470344543457,-9.952696800231934,-0.09816227108240128,0.9002685546875,-16.204833984375,-9.063720703125
13.229999900000001,1.5155296325683594,-9.95748519897461,-0.07422025501728058,1.2359619140625,-16.2506103515625,-8.5296630859375
13.2499999,1.5298948287963867,-10.000580787658691,-0.040701430290937424,-4.486083984375,-16.7694091796875,-10.6964111328125
13.2699999,1.556231141090393,-10.086771965026855,0.016759412363171577,-5.6915283203125,-19.195556640625,-13.1683349609375
13.289999900000002,1.5610195398330688,-10.15141487121582,0.07900865375995636,-4.638671875,-23.0712890625,-15.7012939453125
13.309999900000001,1.5514427423477173,-10.232817649841309,0.18914192914962769,5.7220458984375,-22.5830078125,-13.5955810546875
13.3299999,1.5155296325683594,-10.27591323852539,0.30885201692581177,9.9639892578125,-25.1922607421875,-11.4898681640625
13.3499999,1.4748282432556152,-10.309432983398438,0.4141969084739685,14.6636962890625,-32.2265625,-14.4500732421875
13.3699999,1.4437036514282227,-10.323798179626465,0.524330198764801,19.53125,-35.5224609375,-16.571044921875
13.389999900000001,1.41257905960083,-10.292673110961914,0.5578489899635315,22.5372314453125,-39.2303466796875,-18.341064453125
13.4099999,1.3934253454208374,-10.189722061157227,0.5889736413955688,16.7999267578125,-40.8477783203125,-18.463134765625
13.4299999,1.3838485479354858,-10.050858497619629,0.6033388376235962,20.7366943359375,-43.4112548828125,-16.632080078125
13.4499999,1.4053963422775269,-9.904812812805176,0.5746083855628967,28.0609130859375,-48.553466796875,-15.5181884765625
13.469999900000001,1.4676456451416016,-9.763554573059082,0.5602431893348694,24.1546630859375,-50.4608154296875,-17.5933837890625
13.4899999,1.5514427423477173,-9.59835433959961,0.40462008118629456,31.7535400390625,-49.102783203125,-19.22607421875
13.5099999,1.6639702320098877,-9.437943458557129,0.272938996553421,17.63916015625,-50.140380859375,-17.4407958984375
13.5299999,1.7597382068634033,-9.227252960205078,0.11252748221158981,9.521484375,-47.1343994140625,-16.0980224609375
13.549999900000001,1.8579005002975464,-9.050082206726074,-0.004788403399288654,13.275146484375,-46.478271484375,-11.810302734375
13.569999900000001,1.9297266006469727,-8.901641845703125,-0.05027823522686958,4.180908203125,-46.0205078125,-13.092041015625
13.5899999,1.9967641830444336,-8.81784439086914,-0.07182604819536209,-6.927490234375,-48.5382080078125,-10.6658935546875
13.6099999,2.0446481704711914,-8.769960403442383,-0.10055647045373917,-3.326416015625,-51.5899658203125,-11.383056640625
13.629999900000001,2.1045033931732178,-8.786720275878906,-0.15801730751991272,0.54931640625,-51.4678955078125,-11.322021484375
13.649999900000001,2.1547815799713135,-8.827422142028809,-0.2322375625371933,-5.523681640625,-47.4853515625,-12.2833251953125
13.6699999,2.2170307636260986,-8.913613319396973,-0.31603461503982544,-0.1983642578125,-43.2891845703125,-8.36181640625
13.6899999,2.2601263523101807,-9.01895809173584,-0.363918662071228,7.720947265625,-45.3948974609375,-7.080078125
13.709999900000001,2.2697031497955322,-9.081207275390625,-0.3998316824436188,11.7340087890625,-50.4150390625,-11.6119384765625
13.729999900000001,2.298433542251587,-9.14345645904541,-0.45250412821769714,8.48388671875,-51.727294921875,-8.056640625
13.7499999,2.3080103397369385,-9.141061782836914,-0.5291185975074768,15.93017578125,-44.5098876953125,-3.0975341796875
13.7699999,2.3511061668395996,-9.174580574035645,-0.6488286852836609,3.2501220703125,-44.1436767578125,-1.03759765625
13.789999900000002,2.427720546722412,-9.258378028869629,-0.768538773059845,-10.8795166015625,-42.816162109375,-0.579833984375
13.809999900000001,2.494758129119873,-9.363722801208496,-0.8547300100326538,-10.2081298828125,-39.4134521484375,-4.6539306640625
13.8299999,2.5450363159179688,-9.497797966003418,-0.9050082564353943,-7.9803466796875,-39.61181640625,-3.265380859375
13.8499999,2.5665841102600098,-9.581595420837402,-0.9217676520347595,5.7830810546875,-38.51318359375,1.3427734375
13.8699999,2.5737667083740234,-9.660603523254395,-0.8834604024887085,17.2576904296875,-33.0657958984375,5.67626953125
13.889999900000001,2.5713725090026855,-9.744400978088379,-0.849941611289978,11.3677978515625,-36.8499755859375,4.3182373046875
13.9099999,2.564189910888672,-9.816226959228516,-0.7709329724311829,17.3797607421875,-39.1387939453125,0.8087158203125
13.9299999,2.5091233253479004,-9.84495735168457,-0.751779317855835,45.34912109375,-30.548095703125,0.823974609375
13.9499999,2.410961151123047,-9.837775230407715,-0.7254431247711182,51.94091796875,-11.474609375,8.9263916015625
13.969999900000001,2.279279947280884,-9.780313491821289,-0.37828385829925537,10.162353515625,-10.0860595703125,9.613037109375
13.9899999,2.1547815799713135,-9.727641105651855,-0.181959331035614,32.1502685546875,-55.6640625,-1.861572265625
14.0099999,2.0901381969451904,-9.706093788146973,0.05985504388809204,51.8341064453125,-60.028076171875,0.091552734375
14.0299999,2.1068975925445557,-9.734824180603027,0.08140286058187485,22.88818359375,-36.6058349609375,4.547119140625
14.049999900000001,2.1739351749420166,-9.6989107131958,-0.16759411990642548,0.885009765625,-31.8603515625,-1.77001953125
14.069999900000001,2.2625205516815186,-9.667786598205566,-0.4692635238170624,1.1444091796875,-38.787841796875,-5.035400390625
14.0899999,2.3535003662109375,-9.627084732055664,-0.6368576288223267,-4.150390625,-32.3944091796875,-1.28173828125
14.1099999,2.389413356781006,-9.57441234588623,-0.7326257228851318,-4.2877197265625,-32.012939453125,-3.6773681640625
14.129999900000001,2.403778553009033,-9.57441234588623,-0.727837324142456,0.18310546875,-32.9132080078125,-4.45556640625
14.149999900000001,2.3798365592956543,-9.579200744628906,-0.6560112833976746,4.3792724609375,-30.5633544921875,-3.8909912109375
14.1699999,2.3702597618103027,-9.624691009521484,-0.5506663918495178,-1.5869140625,-32.989501953125,-1.739501953125
14.1899999,2.3487119674682617,-9.610325813293457,-0.4836287498474121,7.4310302734375,-35.400390625,-4.974365234375
14.209999900000001,2.367865562438965,-9.646238327026367,-0.4141969084739685,4.0435791015625,-32.5927734375,-4.7149658203125
14.229999900000001,2.3774423599243164,-9.612719535827637,-0.40940847992897034,1.1444091796875,-31.982421875,-5.035400390625
14.2499999,2.3965959548950195,-9.557653427124023,-0.4213795065879822,6.988525390625,-32.6995849609375,-4.8675537109375
14.2699999,2.425326347351074,-9.531316757202148,-0.45489832758903503,4.638671875,-32.318115234375,-1.40380859375
14.289999900000002,2.4612393379211426,-9.509769439697266,-0.5267243981361389,3.4637451171875,-32.318115234375,-1.9378662109375
14.309999900000001,2.516305923461914,-9.552865028381348,-0.608127236366272,5.584716796875,-29.4189453125,-2.8533935546875
14.3299999,2.5737667083740234,-9.622296333312988,-0.6631938815116882,4.8675537109375,-24.0631103515625,-3.692626953125
14.3499999,2.6216509342193604,-9.703699111938477,-0.6703764796257019,5.18798828125,-23.2086181640625,-5.2642822265625
14.3699999,2.652775526046753,-9.744400978088379,-0.6512228846549988,12.1612548828125,-25.1007080078125,-4.638671875
14.389999900000001,2.6431987285614014,-9.730035781860352,-0.6320692300796509,17.9901123046875,-23.5595703125,-3.875732421875
14.4099999,2.631227731704712,-9.677363395690918,-0.5961562395095825,7.781982421875,-20.7672119140625,-4.3792724609375
14.4299999,2.58813214302063,-9.569623947143555,-0.5817909836769104,9.979248046875,-18.7530517578125,-4.3792724609375
14.4499999,2.561795711517334,-9.47146224975586,-0.5482721924781799,19.500732421875,-17.730712890625,-2.8839111328125
14.469999900000001,2.518700122833252,-9.344569206237793,-0.5147533416748047,13.8092041015625,-17.486572265625,-3.387451171875
14.4899999,2.4875755310058594,-9.260771751403809,-0.4596867263317108,3.90625,-15.4876708984375,-1.922607421875
14.5099999,2.454056739807129,-9.181763648986816,-0.3926490843296051,9.1094970703125,-13.1072998046875,0.1068115234375
14.5299999,2.43011474609375,-9.136273384094238,-0.26815059781074524,9.4146728515625,-12.4359130859375,0.5035400390625
14.549999900000001,2.4468741416931152,-9.205705642700195,-0.09576806426048279,4.730224609375,-15.7318115234375,2.9449462890625
14.569999900000001,2.4660277366638184,-9.277531623840332,0.028730420395731926,6.0272216796875,-21.728515625,1.3885498046875
14.5899999,2.4851813316345215,-9.361329078674316,0.10295066982507706,8.880615234375,-21.54541015625,-0.91552734375
14.6099999,2.5019407272338867,-9.442731857299805,0.12449848651885986,3.3721923828125,-17.4407958984375,2.2735595703125
14.629999900000001,2.516305923461914,-9.495404243469238,0.13168109953403473,3.4027099609375,-16.7694091796875,4.0130615234375
14.649999900000001,2.5234885215759277,-9.531316757202148,0.15562310814857483,3.936767578125,-21.8353271484375,1.5106201171875
14.6699999,2.561795711517334,-9.622296333312988,0.19632454216480255,11.23046875,-25.0244140625,1.40380859375
14.6899999,2.5953147411346436,-9.679757118225098,0.20111294090747833,13.5498046875,-24.0020751953125,1.2054443359375
14.709999900000001,2.6360161304473877,-9.72285270690918,0.15083470940589905,8.392333984375,-24.0631103515625,-0.3814697265625
14.729999900000001,2.6791117191314697,-9.739612579345703,0.07661445438861847,5.462646484375,-25.1922607421875,-0.5035400390625
14.7499999,2.717418909072876,-9.730035781860352,-0.06224924325942993,15.7470703125,-26.580810546875,-0.6256103515625
14.7699999,2.736572504043579,-9.68933391571045,-0.2298433631658554,19.95849609375,-23.956298828125,0.9002685546875
14.789999900000002,2.7293899059295654,-9.627084732055664,-0.40462008118629456,17.9443359375,-16.2506103515625,1.007080078125
14.809999900000001,2.698265314102173,-9.583989143371582,-0.47165772318840027,9.857177734375,-9.9945068359375,2.1209716796875
14.8299999,2.6360161304473877,-9.514557838439941,-0.395043283700943,7.99560546875,-11.932373046875,0.8544921875
14.8499999,2.585737943649292,-9.50498104095459,-0.22505496442317963,11.71875,-20.8892822265625,1.3885498046875
14.8699999,2.5258827209472656,-9.466673851013184,-0.05027823522686958,13.641357421875,-21.759033203125,0.1068115234375
14.889999900000001,2.47560453414917,-9.433155059814453,0.043095629662275314,12.054443359375,-15.0146484375,0
14.9099999,2.427720546722412,-9.378087997436523,0.07900865375995636,11.7950439453125,-10.5743408203125,2.2125244140625
14.9299999,2.3942017555236816,-9.327810287475586,0.12449848651885986,9.552001953125,-11.566162109375,2.899169921875
14.9499999,2.3726539611816406,-9.299078941345215,0.19871874153614044,6.6375732421875,-15.869140625,3.4027099609375
14.969999900000001,2.367865562438965,-9.279925346374512,0.2801215946674347,1.5716552734375,-18.890380859375,2.044677734375
14.9899999,2.3965959548950195,-9.327810287475586,0.31364041566848755,7.4005126953125,-18.6920166015625,4.119873046875
15.0099999,2.434903144836426,-9.387664794921875,0.2537853717803955,6.9732666015625,-20.3094482421875,4.1656494140625
15.0299999,2.4827871322631836,-9.469067573547363,0.1364694982767105,5.1422119140625,-17.730712890625,0.9002685546875
15.049999900000001,2.513911724090576,-9.53849983215332,0.011971008032560349,0.396728515625,-11.962890625,0.9307861328125
15.069999900000001,2.513911724090576,-9.5624418258667,-0.07422025501728058,5.4931640625,-10.43701171875,2.5177001953125
15.0899999,2.497152328491211,-9.569623947143555,-0.040701430290937424,2.86865234375,-11.5814208984375,3.8299560546875
15.1099999,2.47560453414917,-9.5624418258667,0.011971008032560349,8.9569091796875,-13.8702392578125,3.0975341796875
15.129999900000001,2.4636335372924805,-9.576807022094727,0.09816227108240128,7.7056884765625,-13.214111328125,2.105712890625
15.149999900000001,2.4660277366638184,-9.615114212036133,0.14365209639072418,5.615234375,-12.420654296875,0.9765625
15.1699999,2.470816135406494,-9.636661529541016,0.17717093229293823,3.90625,-11.71875,-0.2288818359375
15.1899999,2.497152328491211,-9.66299819946289,0.17717093229293823,4.0283203125,-14.892578125,-0.457763671875
15.209999900000001,2.5043349266052246,-9.617507934570312,0.15562310814857483,7.5836181640625,-14.0838623046875,-0.9918212890625
15.229999900000001,2.513911724090576,-9.586383819580078,0.12928688526153564,3.1890869140625,-10.5133056640625,1.190185546875
15.2499999,2.4827871322631836,-9.516951560974121,0.10055647045373917,0.42724609375,-10.2691650390625,1.6021728515625
15.2699999,2.43011474609375,-9.48343276977539,0.1604115068912506,1.2054443359375,-8.9263916015625,1.6326904296875
15.289999900000002,2.367865562438965,-9.488221168518066,0.2561795711517334,0.7171630859375,-11.474609375,2.899169921875
15.309999900000001,2.322375535964966,-9.509769439697266,0.3280056416988373,3.7384033203125,-16.78466796875,2.4566650390625
15.3299999,2.3104045391082764,-9.536105155944824,0.3663128614425659,1.953125,-13.885498046875,2.4261474609375
15.3499999,2.315192937850952,-9.560047149658203,0.304063618183136,-1.6937255859375,-13.1378173828125,2.197265625
15.3699999,2.341529369354248,-9.576807022094727,0.21547815203666687,-0.30517578125,-12.8021240234375,2.6397705078125
15.389999900000001,2.346317768096924,-9.57441234588623,0.12689268589019775,2.4566650390625,-11.6729736328125,2.0294189453125
15.4099999,2.3558945655822754,-9.583989143371582,0.05506663769483566,1.8463134765625,-12.725830078125,2.6092529296875
15.4299999,2.367865562438965,-9.588777542114258,0.06703764945268631,-2.716064453125,-9.9639892578125,3.509521484375
15.4499999,2.4181437492370605,-9.646238327026367,0.07661445438861847,0.274658203125,-11.8560791015625,3.41796875
15.469999900000001,2.449268341064453,-9.684545516967773,0.13407529890537262,7.0648193359375,-11.383056640625,1.46484375
15.4899999,2.4612393379211426,-9.6989107131958,0.26096799969673157,0.5035400390625,-8.2244873046875,-1.1749267578125
15.5099999,2.427720546722412,-9.68694019317627,0.31364041566848755,2.13623046875,-14.58740234375,2.197265625
15.5299999,2.3798365592956543,-9.696516990661621,0.2992752194404602,7.99560546875,-18.463134765625,5.2947998046875
15.549999900000001,2.33913516998291,-9.696516990661621,0.23942017555236816,7.232666015625,-8.8043212890625,1.6326904296875
15.569999900000001,2.3343467712402344,-9.749189376831055,0.10773907601833344,8.1024169921875,-5.126953125,-0.6256103515625
15.5899999,2.3582887649536133,-9.775525093078613,0.021547814831137657,5.767822265625,-9.8114013671875,0.091552734375
15.6099999,2.3798365592956543,-9.761159896850586,-0.040701430290937424,5.096435546875,-12.969970703125,-0.5645751953125
15.629999900000001,2.365471363067627,-9.651026725769043,-0.05506663769483566,3.936767578125,-9.1400146484375,-2.655029296875
15.649999900000001,2.3487119674682617,-9.53849983215332,-0.08140286058187485,1.8157958984375,-8.2550048828125,-0.244140625
15.6699999,2.319981336593628,-9.440337181091309,-0.19871874153614044,6.072998046875,-13.763427734375,4.119873046875
15.6899999,2.3056161403656006,-9.41639518737793,-0.33997663855552673,2.227783203125,-9.185791015625,3.2958984375
15.709999900000001,2.3319525718688965,-9.502586364746094,-0.43335050344467163,-2.9144287109375,3.4027099609375,1.5411376953125
15.729999900000001,2.3798365592956543,-9.639056205749512,-0.4572925269603729,-0.2899169921875,2.593994140625,0.396728515625
15.7499999,2.427720546722412,-9.763554573059082,-0.33758243918418884,1.6326904296875,-5.79833984375,-0.2593994140625
15.7699999,2.4444799423217773,-9.813833236694336,-0.13168109953403473,-2.9449462890625,-6.7138671875,-1.9378662109375
15.789999900000002,2.4396915435791016,-9.797073364257812,0.05267243832349777,-3.41796875,-4.2572021484375,-2.01416015625
15.809999900000001,2.4013843536376953,-9.715670585632324,0.15801730751991272,1.64794921875,-5.3863525390625,-0.091552734375
15.8299999,2.3558945655822754,-9.622296333312988,0.22026655077934265,0.1373291015625,-5.7220458984375,0.5645751953125
15.8499999,2.319981336593628,-9.550470352172852,0.2777273952960968,-3.3416748046875,-2.899169921875,0.7476806640625
15.869999900000002,2.2888567447662354,-9.514557838439941,0.2944868206977844,-0.244140625,-4.4403076171875,-0.030517578125
15.889999900000001,2.248155355453491,-9.490615844726562,0.30885201692581177,3.0517578125,-7.8582763671875,-1.2359619140625
15.9099999,2.2146365642547607,-9.493009567260742,0.3447650372982025,0.762939453125,-3.692626953125,0.4119873046875
15.9299999,2.169146776199341,-9.476250648498535,0.28730419278144836,4.7760009765625,-5.0201416015625,0.732421875
15.9499999,2.1499931812286377,-9.502586364746094,0.2298433631658554,4.57763671875,-5.889892578125,1.251220703125
15.969999900000001,2.1523873805999756,-9.53849983215332,0.17956513166427612,2.1209716796875,0.1068115234375,1.6632080078125
15.9899999,2.183511972427368,-9.588777542114258,0.12449848651885986,3.814697265625,-1.3885498046875,0.7781982421875
16.0099999,2.2409727573394775,-9.62947940826416,0.08379705995321274,7.476806640625,-4.2266845703125,0.9918212890625
16.0299999,2.3032219409942627,-9.660603523254395,0.05267243832349777,3.875732421875,-3.0670166015625,1.28173828125
16.0499999,2.360682964324951,-9.667786598205566,-0.026336219161748886,1.9989013671875,-1.5106201171875,0.244140625
16.0699999,2.4205379486083984,-9.694122314453125,-0.043095629662275314,0.4730224609375,3.082275390625,1.3885498046875
16.089999900000002,2.451662540435791,-9.684545516967773,0,-1.2359619140625,3.2806396484375,-0.4119873046875
16.109999900000002,2.4827871322631836,-9.718064308166504,0.10295066982507706,1.373291015625,-1.8310546875,0.5950927734375
16.1299999,2.4827871322631836,-9.732429504394531,0.21787235140800476,0.54931640625,-3.35693359375,0.213623046875
16.1499999,2.4612393379211426,-9.746794700622559,0.3232172429561615,-2.655029296875,0.0762939453125,-1.8157958984375
16.1699999,2.410961151123047,-9.744400978088379,0.42856210470199585,-5.43212890625,1.8463134765625,-2.044677734375
16.1899999,2.367865562438965,-9.739612579345703,0.49559974670410156,1.068115234375,-4.45556640625,-0.5340576171875
16.2099999,2.33913516998291,-9.6989107131958,0.5578489899635315,3.6163330078125,-4.852294921875,-0.79345703125
16.2299999,2.3367409706115723,-9.641449928283691,0.5339069962501526,2.86865234375,-2.86865234375,-2.8839111328125
16.249999900000002,2.3582887649536133,-9.5624418258667,0.45250412821769714,-0.67138671875,-2.105712890625,-1.922607421875
16.269999900000002,2.3798365592956543,-9.457097053527832,0.31603461503982544,1.7852783203125,-2.6092529296875,-0.885009765625
16.2899999,2.3965959548950195,-9.35654067993164,0.22026655077934265,2.1514892578125,-0.3814697265625,-0.1373291015625
16.3099999,2.403778553009033,-9.277531623840332,0.1412578970193863,0.5035400390625,1.3427734375,0.4119873046875
16.3299999,2.425326347351074,-9.265560150146484,0.15801730751991272,2.3345947265625,2.777099609375,2.3651123046875
16.3499999,2.451662540435791,-9.301473617553711,0.24420857429504395,0.3814697265625,1.3275146484375,2.2125244140625
16.3699999,2.4803929328918457,-9.390059471130371,0.31124621629714966,2.471923828125,-4.6844482421875,0.732421875
16.3899999,2.5019407272338867,-9.493009567260742,0.40222588181495667,2.0904541015625,-1.220703125,-0.48828125
16.4099999,2.499546527862549,-9.569623947143555,0.45250412821769714,-1.953125,0.67138671875,-1.007080078125
16.429999900000002,2.470816135406494,-9.588777542114258,0.4213795065879822,-0.0762939453125,-5.706787109375,-1.0833740234375
16.4499999,2.43011474609375,-9.588777542114258,0.38307225704193115,2.8228759765625,-4.7149658203125,0.6256103515625
16.4699999,2.3774423599243164,-9.569623947143555,0.2777273952960968,0.30517578125,-1.0833740234375,1.007080078125
16.4899999,2.33913516998291,-9.583989143371582,0.16998831927776337,-2.532958984375,0.79345703125,0.8087158203125
16.5099999,2.3271639347076416,-9.648633003234863,0.10773907601833344,-3.2501220703125,0.8697509765625,1.495361328125
16.5299999,2.3271639347076416,-9.706093788146973,0.11971008777618408,-4.2877197265625,-0.213623046875,-0.640869140625
16.5499999,2.343923568725586,-9.763554573059082,0.17717093229293823,-1.373291015625,-1.3580322265625,-1.9989013671875
16.5699999,2.360682964324951,-9.775525093078613,0.21547815203666687,1.6021728515625,-3.3111572265625,-1.0833740234375
16.589999900000002,2.3774423599243164,-9.780313491821289,0.2106897532939911,3.1890869140625,-2.471923828125,-0.0152587890625
16.609999900000002,2.389413356781006,-9.77791976928711,0.14604631066322327,3.0059814453125,-0.6561279296875,-1.2359619140625
16.6299999,2.4133553504943848,-9.821015357971191,0.08858546614646912,1.8768310546875,2.4566650390625,-2.38037109375
16.6499999,2.4157495498657227,-9.830592155456543,0.08619125932455063,1.8310546875,2.50244140625,-4.9285888671875
16.6699999,2.4181437492370605,-9.830592155456543,0.12449848651885986,4.57763671875,-1.4495849609375,-4.94384765625
16.6899999,2.406172752380371,-9.768342971801758,0.181959331035614,4.8675537109375,-3.2501220703125,-4.5013427734375
16.7099999,2.389413356781006,-9.653421401977539,0.19871874153614044,1.77001953125,-0.518798828125,-5.6610107421875
16.7299999,2.3965959548950195,-9.536105155944824,0.20350714027881622,1.4495849609375,2.9754638671875,-3.8909912109375
16.749999900000002,2.3989901542663574,-9.41400146484375,0.2561795711517334,3.2501220703125,5.55419921875,-2.471923828125
16.769999900000002,2.4013843536376953,-9.32302188873291,0.33758243918418884,6.1492919921875,1.5716552734375,-3.0059814453125
16.7899999,2.3989901542663574,-9.299078941345215,0.47644615173339844,7.110595703125,0.4730224609375,-1.007080078125
16.8099999,2.3726539611816406,-9.296685218811035,0.6440402865409851,5.3558349609375,3.753662109375,-1.9683837890625
16.8299999,2.3295583724975586,-9.313444137573242,0.768538773059845,7.1868896484375,-0.3814697265625,-2.5634765625
16.8499999,2.2912509441375732,-9.337387084960938,0.8068459630012512,10.3912353515625,-7.4310302734375,-0.732421875
16.8699999,2.2601263523101807,-9.339780807495117,0.7445967197418213,7.99560546875,-4.5318603515625,0.1373291015625
16.8899999,2.252943754196167,-9.342175483703613,0.5889736413955688,-1.1444091796875,1.64794921875,0.2899169921875
16.9099999,2.276885747909546,-9.370905876159668,0.3998316824436188,-4.791259765625,2.349853515625,1.8463134765625
16.929999900000002,2.31758713722229,-9.394847869873047,0.3016694188117981,-3.570556640625,2.3651123046875,1.739501953125
16.9499999,2.3750481605529785,-9.457097053527832,0.28969839215278625,-3.3416748046875,2.1514892578125,1.861572265625
16.9699999,2.4396915435791016,-9.5408935546875,0.33039984107017517,-5.401611328125,0.18310546875,1.983642578125
16.9899999,2.499546527862549,-9.624691009521484,0.3902548849582672,-6.744384765625,-0.701904296875,0.2288818359375
17.0099999,2.557007312774658,-9.732429504394531,0.42616790533065796,-6.3018798828125,0.640869140625,0.8392333984375
17.0299999,2.58813214302063,-9.799467086791992,0.45489832758903503,-3.082275390625,2.1514892578125,-0.732421875
17.0499999,2.5953147411346436,-9.835380554199219,0.4908113479614258,0.244140625,1.190185546875,-1.89208984375
17.0699999,2.5713725090026855,-9.80904483795166,0.5219359993934631,7.568359375,-1.6326904296875,-1.9989013671875
17.089999900000002,2.5306711196899414,-9.737217903137207,0.5195417404174805,11.90185546875,-1.983642578125,-1.8310546875
17.109999900000002,2.4827871322631836,-9.62947940826416,0.47644615173339844,0.213623046875,0.3204345703125,-1.5869140625
17.1299999,2.4396915435791016,-9.526528358459473,0.3926490843296051,-10.8642578125,0.518798828125,-1.0986328125
17.1499999,2.4181437492370605,-9.44752025604248,0.3974374830722809,-7.110595703125,4.6539306640625,-0.4425048828125
17.1699999,2.408566951751709,-9.39245319366455,0.44771572947502136,7.1258544921875,3.204345703125,0.1678466796875
17.1899999,2.410961151123047,-9.349357604980469,0.5602431893348694,15.350341796875,-2.25830078125,-1.3275146484375
17.2099999,2.425326347351074,-9.320627212524414,0.6871358752250671,12.39013671875,-0.1983642578125,-0.1220703125
17.2299999,2.4420857429504395,-9.311050415039062,0.7230489253997803,14.16015625,-1.2664794921875,0.8087158203125
17.249999900000002,2.4420857429504395,-9.315838813781738,0.6943184733390808,12.5579833984375,-0.518798828125,1.15966796875
17.269999900000002,2.434903144836426,-9.349357604980469,0.6607996821403503,-2.3345947265625,3.8299560546875,1.5411376953125
17.2899999,2.408566951751709,-9.397241592407227,0.6344634294509888,-10.833740234375,3.021240234375,3.60107421875
17.3099999,2.387019157409668,-9.44752025604248,0.646434485912323,-5.7220458984375,-1.5716552734375,4.08935546875
17.3299999,2.3582887649536133,-9.461885452270508,0.6655880808830261,4.39453125,-3.4332275390625,-0.6103515625
17.3499999,2.360682964324951,-9.476250648498535,0.6105214357376099,10.589599609375,-1.0833740234375,1.739501953125
17.3699999,2.3702597618103027,-9.469067573547363,0.5482721924781799,7.75146484375,5.523681640625,4.2572021484375
17.3899999,2.387019157409668,-9.464279174804688,0.47165772318840027,-0.701904296875,4.2724609375,2.838134765625
17.409999900000003,2.406172752380371,-9.48343276977539,0.4141969084739685,-1.2664794921875,-1.5869140625,3.173828125
17.429999900000002,2.425326347351074,-9.526528358459473,0.40701428055763245,-4.852294921875,-0.9307861328125,6.3934326171875
17.4499999,2.434903144836426,-9.569623947143555,0.3663128614425659,-6.2103271484375,-0.946044921875,4.57763671875
17.4699999,2.4420857429504395,-9.605537414550781,0.2944868206977844,-9.1094970703125,-3.936767578125,2.2125244140625
17.4899999,2.4612393379211426,-9.627084732055664,0.16759411990642548,-22.4456787109375,-6.6070556640625,3.4027099609375
17.5099999,2.4875755310058594,-9.653421401977539,0.026336219161748886,-60.211181640625,-5.4779052734375,0.8697509765625
17.5299999,2.537853717803955,-9.677363395690918,-0.2561795711517334,-78.094482421875,-9.4451904296875,-3.0059814453125
17.5499999,2.612074136734009,-9.794678688049316,-0.6799532771110535,-84.716796875,-13.275146484375,-3.936767578125
17.5699999,2.715024709701538,-9.897629737854004,-1.2641384601593018,-80.7342529296875,0.91552734375,-8.72802734375
17.589999900000002,2.786850690841675,-9.959878921508789,-1.9847931861877441,-63.41552734375,16.4642333984375,-14.2059326171875
17.609999900000002,2.894589900970459,-10.022128105163574,-2.7437551021575928,-36.865234375,26.91650390625,-8.758544921875
17.6299999,2.9161376953125,-9.90241813659668,-3.584120035171509,-17.8375244140625,27.587890625,-10.43701171875
17.6499999,2.942473888397217,-9.797073364257812,-4.446032524108887,-21.484375,33.9813232421875,-12.2528076171875
17.6699999,2.8993782997131348,-9.615114212036133,-5.30076265335083,-21.9268798828125,54.962158203125,-10.8184814453125
17.6899999,2.8131868839263916,-9.442731857299805,-6.069301128387451,-10.101318359375,71.7315673828125,-6.2255859375
17.7099999,2.6575639247894287,-9.294290542602539,-6.588842868804932,1.0528564453125,82.6568603515625,-1.9073486328125
17.7299999,2.454056739807129,-9.263166427612305,-6.821080684661865,7.232666015625,100.067138671875,3.2196044921875
17.749999900000002,2.22660756111145,-9.332598686218262,-6.782773494720459,3.936767578125,110.2752685546875,0.9307861328125
17.769999900000002,1.9632453918457031,-9.490615844726562,-6.521805286407471,11.04736328125,121.002197265625,-3.4942626953125
17.7899999,1.6879122257232666,-9.710882186889648,-6.086060523986816,-2.655029296875,129.364013671875,-2.8533935546875
17.8099999,1.381454348564148,-9.904812812805176,-5.5329999923706055,-6.1798095703125,140.3045654296875,-0.5340576171875
17.8299999,1.0295066833496094,-9.983820915222168,-4.888959884643555,6.4544677734375,151.2908935546875,-1.800537109375
17.8499999,0.7038952708244324,-10.043676376342773,-4.173093795776367,2.13623046875,154.3426513671875,-0.3814697265625
17.8699999,0.3926490843296051,-10.046070098876953,-3.450044631958008,-5.7830810546875,152.130126953125,0.4730224609375
17.8899999,0.181959331035614,-10.065223693847656,-2.7509377002716064,-17.486572265625,152.862548828125,-2.7008056640625
17.909999900000003,-0.05267243832349777,-9.952696800231934,-2.1763293743133545,-16.5557861328125,153.62548828125,-11.688232421875
17.929999900000002,-0.23702596127986908,-9.840168952941895,-1.7310078144073486,-12.969970703125,160.247802734375,-4.8980712890625
17.9499999,-0.4908113479614258,-9.667786598205566,-1.2952631711959839,-3.47900390625,173.4619140625,3.11279296875
17.9699999,-0.8068459630012512,-9.533711433410645,-0.727837324142456,-6.7901611328125,185.638427734375,1.28173828125
17.9899999,-1.1037269830703735,-9.533711433410645,0.23702596127986908,-47.943115234375,186.21826171875,-2.0294189453125
18.0099999,-1.335964560508728,-9.653421401977539,1.414973258972168,-46.7681884765625,156.7535400390625,0.0152587890625
18.0299999,-1.403002142906189,-9.763554573059082,2.609679937362671,-16.845703125,127.2735595703125,-4.364013671875
18.0499999,-1.3215993642807007,-9.761159896850586,3.3710360527038574,6.1187744140625,120.4071044921875,-7.232666015625
18.0699999,-1.1228805780410767,-9.63187313079834,3.6607344150543213,-1.251220703125,130.0201416015625,-5.9661865234375
18.089999900000002,-0.8690952062606812,-9.378087997436523,3.529053211212158,-22.8729248046875,134.4757080078125,5.2032470703125
18.109999900000002,-0.6919242739677429,-9.026140213012695,3.292027235031128,-37.65869140625,125.5340576171875,5.9051513671875
18.1299999,-0.5793967843055725,-8.702922821044922,3.1866824626922607,-42.022705078125,123.3367919921875,12.9547119140625
18.1499999,-0.5602431893348694,-8.456320762634277,3.2393548488616943,-53.5125732421875,121.4752197265625,26.2603759765625
18.1699999,-0.5674257874488831,-8.29590892791748,3.5218706130981445,-68.8629150390625,116.8670654296875,34.2559814453125
18.1899999,-0.5746083855628967,-8.418013572692871,3.9647979736328125,-73.0438232421875,105.3009033203125,41.3360595703125
18.2099999,-0.49559974670410156,-8.868123054504395,4.4939165115356445,-58.868408203125,88.1195068359375,39.1082763671875
18.2299999,-0.3519476354122162,-9.528923034667969,5.051765441894531,-73.8525390625,75.1953125,30.3955078125
18.249999900000002,-0.17956513166427612,-10.27591323852539,5.504269599914551,-61.0198974609375,65.155029296875,27.83203125
18.269999900000002,0,-10.886435508728027,5.722142219543457,-59.4940185546875,47.6531982421875,26.0009765625
18.2899999,0.2106897532939911,-11.257535934448242,5.731719017028809,-84.991455078125,25.32958984375,18.6309814453125
18.3099999,0.37828385829925537,-11.372458457946777,5.394136428833008,-66.7572021484375,8.7432861328125,4.8828125
18.3299999,0.5985504388809204,-11.386823654174805,4.800374507904053,-40.5426025390625,-7.1258544921875,5.6304931640625
18.3499999,0.8355764150619507,-11.291055679321289,3.9049429893493652,-13.97705078125,-8.7738037109375,2.899169921875
18.3699999,1.1013327836990356,-11.125855445861816,2.8443117141723633,15.8538818359375,-4.5318603515625,-5.0048828125
18.3899999,1.335964560508728,-10.836156845092773,1.7118542194366455,28.1524658203125,1.8310546875,-12.603759765625
18.409999900000003,1.525106430053711,-10.498574256896973,0.7110779285430908,32.684326171875,4.1351318359375,-3.631591796875
18.429999900000002,1.6376339197158813,-10.141838073730469,-0.06703764945268631,38.1927490234375,7.50732421875,4.302978515625
18.4499999,1.6735470294952393,-9.825803756713867,-0.5315127968788147,30.3192138671875,8.1024169921875,2.8076171875
18.4699999,1.6855180263519287,-9.634267807006836,-0.7254431247711182,22.216796875,8.1787109375,4.5623779296875
18.4899999,1.6639702320098877,-9.576807022094727,-0.7086837291717529,43.670654296875,10.25390625,6.805419921875
18.5099999,1.6304513216018677,-9.600749015808105,-0.5482721924781799,40.8782958984375,9.521484375,3.021240234375
18.5299999,1.580173134803772,-9.658209800720215,-0.3926490843296051,33.416748046875,6.9122314453125,2.62451171875
18.5499999,1.5322890281677246,-9.720458984375,-0.2346317619085312,31.2347412109375,12.02392578125,7.2784423828125
18.5699999,1.4844050407409668,-9.744400978088379,-0.11971008777618408,10.101318359375,8.514404296875,10.3607177734375
18.589999900000002,1.4460978507995605,-9.761159896850586,-0.016759412363171577,-4.2724609375,3.0975341796875,8.1939697265625
18.609999900000002,1.4389152526855469,-9.835380554199219,0.07661445438861847,-4.4403076171875,1.953125,5.67626953125
18.6299999,1.4628572463989258,-9.976638793945312,0.15083470940589905,-14.617919921875,0.091552734375,4.1961669921875
18.6499999,1.4987702369689941,-10.103530883789062,0.17717093229293823,-13.9312744140625,0.5645751953125,0.6256103515625
18.6699999,1.5203180313110352,-10.168174743652344,0.17477671802043915,-0.091552734375,3.997802734375,-0.3204345703125
18.6899999,1.5155296325683594,-10.17296314239502,0.18914192914962769,6.317138671875,6.6070556640625,0.6561279296875
18.7099999,1.482010841369629,-10.11550235748291,0.2106897532939911,-0.5340576171875,2.74658203125,-0.9613037109375
18.7299999,1.4173674583435059,-10.010157585144043,0.27054479718208313,1.5411376953125,2.349853515625,-3.0059814453125
18.749999900000002,1.381454348564148,-9.986215591430664,0.3447650372982025,6.8206787109375,3.4027099609375,0.335693359375
18.769999900000002,1.3431471586227417,-9.952696800231934,0.3926490843296051,3.47900390625,-0.3204345703125,-1.8463134765625
18.7899999,1.3287819623947144,-9.964667320251465,0.4884171485900879,0.885009765625,1.3580322265625,-3.753662109375
18.8099999,1.3263877630233765,-9.99100399017334,0.5099649429321289,4.119873046875,-1.251220703125,-2.99072265625
18.8299999,1.3335703611373901,-9.995792388916016,0.5626373887062073,4.6844482421875,-2.0294189453125,-4.1046142578125
18.8499999,1.3335703611373901,-9.967061996459961,0.5793967843055725,1.9378662109375,-1.556396484375,-6.16455078125
18.8699999,1.3407529592514038,-9.904812812805176,0.5746083855628967,3.4637451171875,-2.5634765625,-5.0506591796875
18.8899999,1.3407529592514038,-9.825803756713867,0.5291185975074768,3.692626953125,-4.39453125,-2.4261474609375
18.909999900000003,1.3479355573654175,-9.739612579345703,0.47165772318840027,-3.997802734375,-3.387451171875,-2.4261474609375
18.929999900000002,1.3718775510787964,-9.710882186889648,0.40701428055763245,0.885009765625,-0.3509521484375,-2.2125244140625
18.9499999,1.3958195447921753,-9.706093788146973,0.36152446269989014,6.40869140625,-0.213623046875,-2.685546875
18.9699999,1.414973258972168,-9.734824180603027,0.3663128614425659,6.5460205078125,-0.823974609375,-3.1280517578125
18.9899999,1.4173674583435059,-9.742006301879883,0.3734954595565796,4.974365234375,-1.678466796875,-3.0975341796875
19.0099999,1.4077905416488647,-9.739612579345703,0.3878606855869293,3.0364990234375,-1.220703125,-2.044677734375
19.0299999,1.4077905416488647,-9.718064308166504,0.35434186458587646,2.5177001953125,-1.15966796875,-0.8392333984375
19.0499999,1.4197616577148438,-9.706093788146973,0.33758243918418884,0.6103515625,0.0762939453125,-0.9613037109375
19.0699999,1.4413094520568848,-9.68694019317627,0.31364041566848755,-0.3204345703125,0.823974609375,-2.197265625
19.089999900000002,1.4628572463989258,-9.672574996948242,0.3232172429561615,2.1820068359375,0.396728515625,-1.7242431640625
19.109999900000002,1.4724340438842773,-9.646238327026367,0.33039984107017517,5.3558349609375,-0.42724609375,-0.91552734375
19.1299999,1.4748282432556152,-9.610325813293457,0.3447650372982025,-0.3204345703125,-0.0457763671875,-0.48828125
19.1499999,1.4724340438842773,-9.567230224609375,0.3447650372982025,1.9378662109375,2.685546875,0.3662109375
19.1699999,1.460463047027588,-9.521739959716797,0.3471592366695404,4.6539306640625,3.7384033203125,1.3275146484375
19.1899999,1.460463047027588,-9.500192642211914,0.3711012601852417,0.0762939453125,2.99072265625,1.6937255859375
19.2099999,1.4676456451416016,-9.526528358459473,0.40940847992897034,-2.38037109375,2.8839111328125,2.3040771484375
19.2299999,1.4724340438842773,-9.557653427124023,0.45010992884635925,-4.5013427734375,2.1820068359375,-0.2288818359375
19.249999900000002,1.4891934394836426,-9.62947940826416,0.47884035110473633,-1.7852783203125,3.2501220703125,0.54931640625
19.269999900000002,1.4939818382263184,-9.674968719482422,0.43335050344467163,-1.983642578125,3.143310546875,2.197265625
19.2899999,1.4891934394836426,-9.694122314453125,0.3878606855869293,-5.7373046875,8.148193359375,2.5177001953125
19.3099999,1.479616641998291,-9.6989107131958,0.3423708379268646,-5.5999755859375,11.5814208984375,3.4332275390625
19.3299999,1.4628572463989258,-9.706093788146973,0.3208230137825012,-3.3416748046875,7.720947265625,3.7689208984375
19.3499999,1.4460978507995605,-9.706093788146973,0.31364041566848755,-4.486083984375,6.9580078125,3.9825439453125
19.3699999,1.4508862495422363,-9.744400978088379,0.22026655077934265,-12.4664306640625,11.53564453125,4.2877197265625
19.3899999,1.4437036514282227,-9.737217903137207,0.10534487664699554,-22.0794677734375,22.03369140625,2.2125244140625
19.409999900000003,1.4460978507995605,-9.770736694335938,0.05985504388809204,-20.1263427734375,29.541015625,5.767822265625
19.429999900000002,1.4077905416488647,-9.763554573059082,0.1604115068912506,-6.8206787109375,23.0865478515625,4.9591064453125
19.4499999,1.338358759880066,-9.758766174316406,0.3663128614425659,11.5203857421875,13.1683349609375,1.861572265625
19.4699999,1.278503656387329,-9.758766174316406,0.6488286852836609,10.528564453125,10.1470947265625,2.0294189453125
19.4899999,1.2186486721038818,-9.77791976928711,0.8331822156906128,19.256591796875,10.5133056640625,0.579833984375
19.5099999,1.1994950771331787,-9.775525093078613,0.9576807022094727,5.2490234375,2.593994140625,0.732421875
19.5299999,1.2090718746185303,-9.801861763000488,0.9696516990661621,20.6146240234375,-0.457763671875,0.3662109375
19.5499999,1.2401964664459229,-9.828198432922363,0.9552865028381348,15.2130126953125,1.7852783203125,1.312255859375
19.5699999,1.2856862545013428,-9.864110946655273,0.8571242094039917,11.3677978515625,0.30517578125,-0.640869140625
19.589999900000002,1.314416766166687,-9.861717224121094,0.8092401623725891,6.16455078125,0.5645751953125,-3.3111572265625
19.609999900000002,1.3287819623947144,-9.847352027893066,0.7924807667732239,5.31005859375,0.732421875,-1.64794921875
19.6299999,1.316810965538025,-9.81143856048584,0.8140285611152649,4.730224609375,-3.753662109375,1.0528564453125
19.6499999,1.292868971824646,-9.792284965515137,0.8978256583213806,4.57763671875,-2.25830078125,1.251220703125
19.6699999,1.2713210582733154,-9.787496566772461,0.9481038451194763,0.8392333984375,-5.06591796875,-1.1444091796875
19.6899999,1.259350061416626,-9.81143856048584,0.9864110946655273,-1.1138916015625,-6.7901611328125,-0.7476806640625
19.7099999,1.2497732639312744,-9.81143856048584,0.9888052940368652,-6.8359375,-5.7220458984375,-0.1220703125
19.7299999,1.235408067703247,-9.797073364257812,0.9768342971801758,-6.2408447265625,-5.2947998046875,-0.030517578125
19.749999900000002,1.2258312702178955,-9.768342971801758,0.9528923034667969,2.5177001953125,-4.791259765625,1.0986328125
19.769999900000002,1.2210428714752197,-9.744400978088379,0.933738648891449,4.9591064453125,-6.317138671875,1.861572265625
19.7899999,1.2330138683319092,-9.742006301879883,0.8810662031173706,1.4801025390625,-7.3089599609375,2.685546875
19.8099999,1.2473790645599365,-9.732429504394531,0.8164227604866028,2.960205078125,-5.1422119140625,2.3345947265625
19.8299999,1.2713210582733154,-9.713275909423828,0.7326257228851318,4.21142578125,-2.25830078125,2.471923828125
19.8499999,1.290474772453308,-9.715670585632324,0.6488286852836609,6.011962890625,-3.3111572265625,5.767822265625
19.8699999,1.3096283674240112,-9.718064308166504,0.6200982332229614,-0.274658203125,-3.1280517578125,3.9520263671875
19.8899999,1.3311761617660522,-9.75397777557373,0.5722141861915588,1.1444091796875,-4.7607421875,0.885009765625
19.909999900000003,1.3455413579940796,-9.794678688049316,0.5817909836769104,4.7607421875,-2.5177001953125,-0.732421875
19.929999900000002,1.3646949529647827,-9.837775230407715,0.5602431893348694,3.96728515625,-3.1585693359375,0.9918212890625
19.9499999,1.3694833517074585,-9.888052940368652,0.5626373887062073,6.805419921875,-2.899169921875,1.1749267578125
19.9699999,1.359906554222107,-9.904812812805176,0.6153098344802856,5.9356689453125,0.091552734375,-2.74658203125
19.9899999,1.3503297567367554,-9.923966407775879,0.6703764796257019,12.8021240234375,-2.593994140625,-2.4871826171875
20.0099999,1.3239935636520386,-9.888052940368652,0.7398083209991455,15.869140625,-5.1116943359375,-1.40380859375
20.0299999,1.3072341680526733,-9.854534149169922,0.8092401623725891,10.6048583984375,-2.960205078125,-0.9613037109375
20.0499999,1.2880805730819702,-9.806650161743164,0.8571242094039917,11.322021484375,-1.9683837890625,-2.1514892578125
20.0699999,1.278503656387329,-9.765948295593262,0.9002198576927185,11.627197265625,-4.33349609375,-3.0517578125
20.089999900000002,1.2880805730819702,-9.75397777557373,0.912190854549408,14.923095703125,-4.8370361328125,-0.6866455078125
20.109999900000002,1.292868971824646,-9.725247383117676,0.9361328482627869,5.79833984375,-1.4190673828125,-0.9307861328125
20.1299999,1.316810965538025,-9.727641105651855,0.9528923034667969,-1.678466796875,-0.8087158203125,-1.0528564453125
20.1499999,1.3287819623947144,-9.744400978088379,1.0055646896362305,3.3721923828125,-2.62451171875,-1.2054443359375
20.1699999,1.3311761617660522,-9.761159896850586,1.0965443849563599,-1.9683837890625,-5.43212890625,-1.4190673828125
20.1899999,1.3215993642807007,-9.780313491821289,1.1899182796478271,-1.861572265625,-6.28662109375,-1.5106201171875
20.2099999,1.3096283674240112,-9.785101890563965,1.2473790645599365,-0.3662109375,-6.7901611328125,-1.556396484375
20.2299999,1.2952631711959839,-9.770736694335938,1.2737152576446533,-1.6021728515625,-6.6680908203125,-1.8463134765625
20.249999900000002,1.2880805730819702,-9.75637149810791,1.2832920551300049,0.8392333984375,-6.591796875,-0.48828125
20.269999900000002,1.2689268589019775,-9.72285270690918,1.3048399686813354,10.7574462890625,-4.6844482421875,0.6256103515625
20.2899999,1.2425906658172607,-9.706093788146973,1.3455413579940796,12.603759765625,-7.6751708984375,1.5411376953125
