# Time (seconds),Accel_X,Accel_Y,Accel_Z,Gyro_X,Gyro_Y,Gyro_Z
0.0099999,1.9129672050476074,-9.895236015319824,0.33518823981285095,4.2266845703125,0.2593994140625,-2.2125244140625
0.029999900000000003,1.886630892753601,-9.78989028930664,0.35913026332855225,4.4403076171875,0.1373291015625,-2.3193359375
0.0499999,1.8602946996688843,-9.682151794433594,0.3519476354122162,2.13623046875,0.335693359375,-1.708984375
0.0699999,1.843535304069519,-9.59835433959961,0.3519476354122162,0.9918212890625,1.739501953125,-0.335693359375
0.08999990000000001,1.8291701078414917,-9.543288230895996,0.33997663855552673,1.9683837890625,2.01416015625,-0.4119873046875
0.10999990000000001,1.8339585065841675,-9.5408935546875,0.36152446269989014,2.197265625,1.251220703125,-0.54931640625
0.1299999,1.8411411046981812,-9.57441234588623,0.3758896589279175,3.7689208984375,0.67138671875,-0.54931640625
0.14999990000000002,1.8483237028121948,-9.619902610778809,0.3687070608139038,1.983642578125,0.3204345703125,-1.373291015625
0.1699999,1.8531121015548706,-9.667786598205566,0.3758896589279175,0.762939453125,3.8909912109375,-1.1749267578125
0.1899999,1.8555063009262085,-9.694122314453125,0.38067805767059326,-0.030517578125,3.84521484375,-0.732421875
0.20999990000000002,1.8602946996688843,-9.706093788146973,0.4118026793003082,2.716064453125,1.800537109375,-0.3509521484375
0.2299999,1.8722656965255737,-9.706093788146973,0.47405192255973816,1.2054443359375,1.6632080078125,-0.2288818359375
0.2499999,1.900996208190918,-9.720458984375,0.48602294921875,3.387451171875,0.79345703125,-0.3204345703125
0.2699999,1.9321208000183105,-9.725247383117676,0.48602294921875,0.9307861328125,3.0670166015625,-1.5869140625
0.28999990000000003,1.9488801956176758,-9.718064308166504,0.47405192255973816,-0.9765625,5.279541015625,-1.5716552734375
0.3099999,1.9488801956176758,-9.710882186889648,0.47165772318840027,2.44140625,4.5318603515625,0.1068115234375
0.3299999,1.9177556037902832,-9.679757118225098,0.5434837937355042,1.9073486328125,4.5623779296875,-0.6256103515625
0.34999990000000003,1.8770540952682495,-9.66539192199707,0.6129156351089478,2.74658203125,2.4261474609375,-0.42724609375
0.3699999,1.8387469053268433,-9.667786598205566,0.6871358752250671,1.495361328125,1.8157958984375,-0.48828125
0.3899999,1.8052281141281128,-9.660603523254395,0.7038952708244324,2.0904541015625,2.532958984375,-1.6021728515625
0.40999990000000003,1.7884687185287476,-9.648633003234863,0.706289529800415,0.1068115234375,3.570556640625,-1.220703125
0.4299999,1.7884687185287476,-9.62947940826416,0.6991068720817566,0.42724609375,3.4332275390625,-0.244140625
0.4499999,1.8052281141281128,-9.634267807006836,0.6847416758537292,-0.2593994140625,1.2359619140625,0.48828125
0.4699999,1.8387469053268433,-9.648633003234863,0.6919242739677429,0.9307861328125,2.227783203125,-0.6866455078125
0.4899999,1.8698714971542358,-9.66299819946289,0.6823474764823914,-1.3427734375,2.3345947265625,-2.01416015625
0.5099999,1.8986018896102905,-9.684545516967773,0.6584054827690125,0.79345703125,1.4190673828125,-0.18310546875
0.5299999,1.9105730056762695,-9.68933391571045,0.667982280254364,-0.1220703125,2.4871826171875,0.6866455078125
0.5499999,1.9129672050476074,-9.68933391571045,0.6512228846549988,-0.1220703125,0.9613037109375,-0.640869140625
0.5699999,1.9153614044189453,-9.703699111938477,0.6799532771110535,-2.0294189453125,1.4495849609375,-0.823974609375
0.5899998999999999,1.9177556037902832,-9.720458984375,0.667982280254364,-3.9520263671875,0.2593994140625,-0.8087158203125
0.6099998999999999,1.9129672050476074,-9.734824180603027,0.6512228846549988,-1.64794921875,0.18310546875,-1.312255859375
0.6299999,1.8986018896102905,-9.730035781860352,0.6248866319656372,-2.5634765625,1.7547607421875,-1.9073486328125
0.6499999,1.8818424940109253,-9.718064308166504,0.586579442024231,-0.457763671875,1.1749267578125,-0.6256103515625
0.6699999,1.8626888990402222,-9.677363395690918,0.5626373887062073,-2.1514892578125,0.0457763671875,-0.1678466796875
0.6899999,1.8579005002975464,-9.639056205749512,0.5339069962501526,-0.42724609375,0.0152587890625,0.42724609375
0.7099999,1.8794482946395874,-9.610325813293457,0.4884171485900879,0.67138671875,1.3580322265625,0.3204345703125
0.7299998999999999,1.9129672050476074,-9.586383819580078,0.4620809257030487,1.312255859375,3.3416748046875,-0.0762939453125
0.7499998999999999,1.9488801956176758,-9.59596061706543,0.4381389021873474,-0.6866455078125,3.2806396484375,1.1749267578125
0.7699999,1.9728221893310547,-9.600749015808105,0.4668693244457245,-0.8697509765625,2.8076171875,1.2054443359375
0.7899999,1.9752163887023926,-9.63187313079834,0.5051765441894531,0.335693359375,2.6092529296875,0.6561279296875
0.8099999,1.9560627937316895,-9.655815124511719,0.545877993106842,0.732421875,2.044677734375,0.213623046875
0.8299999,1.9297266006469727,-9.670180320739746,0.5746083855628967,1.64794921875,2.4261474609375,0
0.8499998999999999,1.9033904075622559,-9.667786598205566,0.5674257874488831,4.364013671875,2.8533935546875,0.0762939453125
0.8699998999999999,1.8842366933822632,-9.651026725769043,0.5722141861915588,1.0833740234375,3.96728515625,0.48828125
0.8899999,1.8746598958969116,-9.646238327026367,0.5722141861915588,-0.701904296875,2.9449462890625,1.2969970703125
0.9099999,1.867477297782898,-9.634267807006836,0.6009446382522583,1.068115234375,2.227783203125,0.54931640625
0.9299999,1.8698714971542358,-9.655815124511719,0.629675030708313,-0.732421875,0.213623046875,1.03759765625
0.9499999,1.8746598958969116,-9.674968719482422,0.6368576288223267,-1.8463134765625,0.274658203125,0.701904296875
0.9699998999999999,1.8914192914962769,-9.696516990661621,0.6320692300796509,-1.0986328125,1.3580322265625,0
0.9899998999999999,1.9153614044189453,-9.72285270690918,0.5913678407669067,0.732421875,1.434326171875,-0.06103515625
1.0099999,1.9321208000183105,-9.732429504394531,0.5578489899635315,3.570556640625,1.9989013671875,-0.3662109375
1.0299999,1.946485996246338,-9.739612579345703,0.5434837937355042,0.823974609375,3.4942626953125,0.0762939453125
1.0499999,1.944091796875,-9.732429504394531,0.5578489899635315,-2.1820068359375,1.9073486328125,-0.457763671875
1.0699999,1.9345149993896484,-9.734824180603027,0.586579442024231,-2.4566650390625,0.9765625,0.1220703125
1.0899999,1.9105730056762695,-9.713275909423828,0.6320692300796509,0.67138671875,0.8697509765625,-0.8697509765625
1.1099999,1.8818424940109253,-9.701305389404297,0.6607996821403503,-0.6561279296875,1.495361328125,-0.6103515625
1.1299999,1.8579005002975464,-9.694122314453125,0.6703764796257019,-0.91552734375,0.48828125,0.4730224609375
1.1499999,1.8387469053268433,-9.679757118225098,0.6703764796257019,-1.9989013671875,0.06103515625,-0.244140625
1.1699998999999999,1.843535304069519,-9.684545516967773,0.6488286852836609,-0.0457763671875,0.06103515625,-0.030517578125
1.1899998999999999,1.8555063009262085,-9.682151794433594,0.5937620401382446,1.03759765625,0.3509521484375,-0.457763671875
1.2099999,1.8698714971542358,-9.672574996948242,0.5602431893348694,-0.6103515625,2.227783203125,-0.79345703125
1.2299999,1.8842366933822632,-9.66539192199707,0.524330198764801,0,2.9296875,0.152587890625
1.2499999,1.889025092124939,-9.646238327026367,0.5602431893348694,-1.800537109375,1.8310546875,0
1.2699999,1.8938134908676147,-9.639056205749512,0.5817909836769104,0.2899169921875,-1.03759765625,0.3204345703125
1.2899999,1.889025092124939,-9.62947940826416,0.6153098344802856,0.5035400390625,-0.5950927734375,0.1068115234375
1.3099999,1.886630892753601,-9.627084732055664,0.6105214357376099,-0.0762939453125,0.9613037109375,0.1678466796875
1.3299999,1.8818424940109253,-9.617507934570312,0.586579442024231,-1.7852783203125,0.9765625,0.2899169921875
1.3499999,1.8818424940109253,-9.62947940826416,0.5554547905921936,-0.5340576171875,-0.4425048828125,1.4495849609375
1.3699999,1.8794482946395874,-9.636661529541016,0.5410895943641663,-1.2664794921875,0.9307861328125,0.5950927734375
1.3899999,1.8842366933822632,-9.667786598205566,0.5195417404174805,0.5035400390625,1.46484375,-0.0457763671875
1.4099999,1.8842366933822632,-9.694122314453125,0.5195417404174805,-0.3662109375,2.50244140625,0.0762939453125
1.4299998999999999,1.8842366933822632,-9.713275909423828,0.5434837937355042,0.0457763671875,2.0751953125,-0.1373291015625
1.4499999,1.889025092124939,-9.732429504394531,0.5722141861915588,1.6021728515625,1.4190673828125,0.1678466796875
1.4699999,1.900996208190918,-9.732429504394531,0.5913678407669067,1.3580322265625,-0.030517578125,-0.54931640625
1.4899999,1.920149803161621,-9.739612579345703,0.5841852426528931,0.9307861328125,1.556396484375,-0.5035400390625
1.5099999,1.9321208000183105,-9.732429504394531,0.5434837937355042,1.0833740234375,2.532958984375,-0.6103515625
1.5299999,1.9273324012756348,-9.708487510681152,0.5051765441894531,-0.579833984375,3.173828125,-1.0986328125
1.5499999,1.9129672050476074,-9.691728591918945,0.5051765441894531,-0.823974609375,2.7008056640625,0.1373291015625
1.5699999,1.8938134908676147,-9.694122314453125,0.5291185975074768,-0.42724609375,1.5411376953125,0.9765625
1.5899999,1.8794482946395874,-9.701305389404297,0.5674257874488831,0.701904296875,0.335693359375,-0.67138671875
1.6099999,1.8842366933822632,-9.744400978088379,0.5889736413955688,-0.54931640625,1.40380859375,-1.1138916015625
1.6299999,1.8962076902389526,-9.768342971801758,0.6033388376235962,-1.5106201171875,3.143310546875,-1.251220703125
1.6499999,1.9177556037902832,-9.782708168029785,0.6129156351089478,0.244140625,2.2735595703125,-1.1749267578125
1.6699999,1.9369091987609863,-9.787496566772461,0.6344634294509888,0.1220703125,1.220703125,-1.0833740234375
1.6899998999999999,1.946485996246338,-9.768342971801758,0.6440402865409851,1.251220703125,0.8544921875,-2.1820068359375
1.7099999,1.944091796875,-9.737217903137207,0.667982280254364,0.3509521484375,2.4871826171875,-2.105712890625
1.7299999,1.9249382019042969,-9.682151794433594,0.6655880808830261,-0.8544921875,0.91552734375,-1.6632080078125
1.7499999,1.9057846069335938,-9.63187313079834,0.6847416758537292,1.3427734375,1.4801025390625,-0.6866455078125
1.7699999,1.889025092124939,-9.600749015808105,0.6847416758537292,1.5106201171875,0.0762939453125,-0.335693359375
1.7899999,1.8794482946395874,-9.593565940856934,0.6871358752250671,-0.1068115234375,0.3204345703125,-1.03759765625
1.8099999,1.8770540952682495,-9.593565940856934,0.6751648783683777,0.2899169921875,0.6103515625,-1.190185546875
1.8299999,1.8770540952682495,-9.591172218322754,0.6631938815116882,1.190185546875,0.1373291015625,-0.335693359375
1.8499999,1.8794482946395874,-9.579200744628906,0.6224924325942993,0.1678466796875,-1.129150390625,0.1983642578125
1.8699999,1.886630892753601,-9.57201862335205,0.5841852426528931,-0.518798828125,0.0152587890625,0.1068115234375
1.8899999,1.8986018896102905,-9.576807022094727,0.5315127968788147,1.2054443359375,1.46484375,0.3662109375
1.9099999,1.9129672050476074,-9.583989143371582,0.5003881454467773,0.9002685546875,1.220703125,-0.2288818359375
1.9299998999999999,1.9297266006469727,-9.603142738342285,0.4812345504760742,0.18310546875,0.732421875,0.5950927734375
1.9499999,1.944091796875,-9.615114212036133,0.4596867263317108,-0.946044921875,0.5340576171875,0.1373291015625
1.9699999,1.9512743949890137,-9.622296333312988,0.45010992884635925,-1.0986328125,2.0904541015625,-0.030517578125
1.9899999,1.9608511924743652,-9.658209800720215,0.45010992884635925,1.0223388671875,3.265380859375,1.40380859375
2.0099999,1.9608511924743652,-9.68933391571045,0.4692635238170624,1.52587890625,2.4871826171875,0.274658203125
2.0299999,1.9608511924743652,-9.730035781860352,0.5195417404174805,0.7781982421875,2.197265625,-0.9918212890625
2.0499999,1.9560627937316895,-9.758766174316406,0.5674257874488831,0.0762939453125,2.0294189453125,-0.6103515625
2.0699999,1.946485996246338,-9.751583099365234,0.608127236366272,-0.6103515625,2.0904541015625,-0.396728515625
2.0899999,1.9393033981323242,-9.742006301879883,0.6272808313369751,0.8544921875,2.3956298828125,-0.06103515625
2.1099999,1.9321208000183105,-9.715670585632324,0.6560112833976746,0.4730224609375,3.3721923828125,-0.7171630859375
2.1299999,1.9321208000183105,-9.703699111938477,0.6703764796257019,0.457763671875,1.953125,-0.6256103515625
2.1499999,1.9321208000183105,-9.677363395690918,0.6847416758537292,-0.091552734375,0.9307861328125,-0.9613037109375
2.1699999,1.9273324012756348,-9.660603523254395,0.6871358752250671,1.7242431640625,1.678466796875,-0.335693359375
2.1899999,1.920149803161621,-9.651026725769043,0.6823474764823914,1.3427734375,2.838134765625,0.1068115234375
2.2099999,1.9105730056762695,-9.641449928283691,0.706289529800415,0.152587890625,3.35693359375,-1.1138916015625
2.2299999,1.9081788063049316,-9.651026725769043,0.727837324142456,1.5869140625,0.91552734375,-0.3204345703125
2.2499999,1.9081788063049316,-9.646238327026367,0.7589619159698486,1.03759765625,-0.732421875,-0.1678466796875
2.2699999,1.922544002532959,-9.651026725769043,0.7469909191131592,0.4119873046875,0.1068115234375,0.0152587890625
2.2899999,1.9345149993896484,-9.641449928283691,0.7182605266571045,0.2593994140625,1.4801025390625,-0.3814697265625
2.3099999,1.9560627937316895,-9.646238327026367,0.6631938815116882,2.0751953125,1.5411376953125,0.1220703125
2.3299999,1.965639591217041,-9.634267807006836,0.6392518281936646,1.28173828125,1.64794921875,-0.18310546875
2.3499999,1.9632453918457031,-9.62947940826416,0.6392518281936646,1.4801025390625,1.7547607421875,-0.2593994140625
2.3699999,1.946485996246338,-9.619902610778809,0.646434485912323,2.6702880859375,0.9002685546875,0.396728515625
2.3899999,1.9273324012756348,-9.615114212036133,0.6655880808830261,1.8310546875,0.91552734375,0.30517578125
2.4099999,1.9081788063049316,-9.605537414550781,0.6751648783683777,1.5869140625,2.166748046875,-0.1220703125
2.4299999,1.8986018896102905,-9.59835433959961,0.6823474764823914,2.1820068359375,1.6937255859375,0.030517578125
2.4499999,1.8962076902389526,-9.586383819580078,0.6823474764823914,0.9307861328125,0.9307861328125,0.8697509765625
2.4699999,1.8986018896102905,-9.581595420837402,0.6871358752250671,-0.2288818359375,1.4190673828125,1.4190673828125
2.4899999,1.9105730056762695,-9.605537414550781,0.6799532771110535,0.3662109375,1.953125,1.373291015625
2.5099999,1.920149803161621,-9.634267807006836,0.7038952708244324,0.8392333984375,3.387451171875,0.2593994140625
2.5299999,1.9321208000183105,-9.672574996948242,0.7398083209991455,0.823974609375,2.227783203125,0.18310546875
2.5499999,1.9369091987609863,-9.708487510681152,0.7781155705451965,0.640869140625,0.3204345703125,0.8544921875
2.5699999,1.9369091987609863,-9.739612579345703,0.8068459630012512,1.03759765625,0.6866455078125,0.4425048828125
2.5899999,1.9321208000183105,-9.763554573059082,0.8236053586006165,0.2288818359375,1.89208984375,-0.4730224609375
2.6099999,1.9249382019042969,-9.782708168029785,0.8259995579719543,0.4730224609375,1.0528564453125,-0.7476806640625
2.6299999,1.9273324012756348,-9.794678688049316,0.8044517636299133,0.48828125,-0.7476806640625,-0.91552734375
2.6499999,1.9297266006469727,-9.763554573059082,0.7852981686592102,-1.64794921875,0.5950927734375,-1.5716552734375
2.6699999,1.944091796875,-9.732429504394531,0.751779317855835,-1.5716552734375,1.8463134765625,-1.5716552734375
2.6899999,1.9632453918457031,-9.691728591918945,0.727837324142456,0.8392333984375,1.7242431640625,-0.2899169921875
2.7099999,1.9800047874450684,-9.651026725769043,0.727837324142456,0.3814697265625,0.79345703125,-0.640869140625
2.7299999,1.9919757843017578,-9.622296333312988,0.730231523513794,-0.7476806640625,0.946044921875,-1.2969970703125
2.7499999,1.987187385559082,-9.603142738342285,0.7613561153411865,-1.922607421875,2.3345947265625,-0.457763671875
2.7699999,1.968033790588379,-9.579200744628906,0.7709329724311829,-0.4425048828125,0.640869140625,-0.2593994140625
2.7899999,1.941697597503662,-9.57201862335205,0.8068459630012512,0.48828125,0.18310546875,0.3814697265625
2.8099999,1.9105730056762695,-9.560047149658203,0.8140285611152649,0.3814697265625,0.06103515625,0.1068115234375
2.8299999,1.886630892753601,-9.555258750915527,0.8068459630012512,1.1138916015625,0.3204345703125,0.0152587890625
2.8499999,1.8722656965255737,-9.557653427124023,0.790086567401886,-1.4801025390625,1.28173828125,1.0528564453125
2.8699999,1.867477297782898,-9.557653427124023,0.7589619159698486,-1.678466796875,0.3509521484375,1.0986328125
2.8899999,1.8722656965255737,-9.576807022094727,0.7493851184844971,-0.9307861328125,0.54931640625,1.312255859375
2.9099999,1.886630892753601,-9.622296333312988,0.7374141216278076,-0.640869140625,0.48828125,1.800537109375
2.9299999,1.8962076902389526,-9.646238327026367,0.7493851184844971,-1.0223388671875,-0.030517578125,0.1678466796875
2.9499999,1.9081788063049316,-9.670180320739746,0.7326257228851318,-0.67138671875,-1.40380859375,0.3814697265625
2.9699999,1.9177556037902832,-9.660603523254395,0.7110779285430908,1.4495849609375,-0.4730224609375,1.6021728515625
2.9899999,1.9297266006469727,-9.653421401977539,0.6607996821403503,1.89208984375,1.9073486328125,1.861572265625
3.0099999,1.941697597503662,-9.660603523254395,0.6344634294509888,1.4495849609375,3.0975341796875,1.434326171875
3.0299999,1.9584569931030273,-9.68694019317627,0.6344634294509888,1.0986328125,1.556396484375,0.457763671875
3.0499999,1.9704279899597168,-9.72285270690918,0.6607996821403503,0.3204345703125,0.30517578125,0.3509521484375
3.0699999,1.9752163887023926,-9.739612579345703,0.6847416758537292,-1.5716552734375,0.579833984375,0.1068115234375
3.0899999,1.9728221893310547,-9.746794700622559,0.706289529800415,-0.5950927734375,2.1820068359375,0.335693359375
3.1099999,1.9512743949890137,-9.732429504394531,0.7206547260284424,-0.67138671875,1.7242431640625,-0.2899169921875
3.1299999,1.922544002532959,-9.710882186889648,0.7350199222564697,0.1068115234375,0.42724609375,-0.18310546875
3.1499999,1.889025092124939,-9.68694019317627,0.768538773059845,-1.4801025390625,0.9307861328125,0.457763671875
3.1699999,1.8626888990402222,-9.674968719482422,0.7757213711738586,-1.1444091796875,0.1983642578125,0.6561279296875
3.1899999,1.8483237028121948,-9.672574996948242,0.7876923680305481,-0.1068115234375,0.5645751953125,0.2288818359375
3.2099999,1.8483237028121948,-9.68694019317627,0.7805097699165344,1.1138916015625,0.2899169921875,-0.0762939453125
3.2299999,1.8602946996688843,-9.696516990661621,0.7613561153411865,-0.274658203125,-0.091552734375,-0.1373291015625
3.2499999,1.8770540952682495,-9.696516990661621,0.7254431247711182,0.1373291015625,0.06103515625,-0.457763671875
3.2699999,1.8914192914962769,-9.691728591918945,0.6967126727104187,0.8697509765625,1.220703125,-0.3204345703125
3.2899999,1.8962076902389526,-9.667786598205566,0.6655880808830261,1.129150390625,0.732421875,-0.3814697265625
3.3099999,1.8962076902389526,-9.641449928283691,0.6584054827690125,0.1678466796875,0.640869140625,-0.244140625
3.3299999000000002,1.8938134908676147,-9.619902610778809,0.6607996821403503,1.800537109375,0.396728515625,0.4425048828125
3.3499999,1.8914192914962769,-9.617507934570312,0.6727706789970398,2.105712890625,0.640869140625,0.6103515625
3.3699999,1.8938134908676147,-9.627084732055664,0.6799532771110535,3.265380859375,0.4730224609375,0.091552734375
3.3899999,1.8938134908676147,-9.648633003234863,0.6871358752250671,2.471923828125,0.79345703125,-0.213623046875
3.4099999,1.8914192914962769,-9.660603523254395,0.6943184733390808,2.1820068359375,1.373291015625,0
3.4299999,1.886630892753601,-9.66539192199707,0.7015010714530945,1.9378662109375,1.1138916015625,0.335693359375
3.4499999,1.886630892753601,-9.660603523254395,0.706289529800415,2.044677734375,0.9002685546875,0.1983642578125
3.4699999,1.889025092124939,-9.651026725769043,0.7086837291717529,2.4261474609375,1.1444091796875,0.030517578125
3.4899999,1.8914192914962769,-9.648633003234863,0.7134721279144287,2.01416015625,2.2125244140625,0.79345703125
3.5099999,1.8986018896102905,-9.66539192199707,0.7326257228851318,1.953125,2.8839111328125,0.8697509765625
3.5299999,1.8986018896102905,-9.684545516967773,0.7637503147125244,2.13623046875,2.2430419921875,-0.091552734375
3.5499999,1.9033904075622559,-9.715670585632324,0.8164227604866028,1.9683837890625,1.5411376953125,-0.518798828125
3.5699999,1.9081788063049316,-9.739612579345703,0.8595184087753296,2.13623046875,1.373291015625,-0.06103515625
3.5899999,1.9081788063049316,-9.737217903137207,0.8858546018600464,1.8310546875,0.9002685546875,-0.640869140625
3.6099999,1.9105730056762695,-9.720458984375,0.8978256583213806,1.5411376953125,1.64794921875,-0.7171630859375
3.6299999,1.9129672050476074,-9.6989107131958,0.8858546018600464,0.5035400390625,1.2359619140625,-0.213623046875
3.6499999,1.9129672050476074,-9.672574996948242,0.8690952062606812,0.30517578125,0.946044921875,-0.152587890625
3.6699999,1.9105730056762695,-9.651026725769043,0.8547300100326538,0.823974609375,1.983642578125,-0.579833984375
3.6899999,1.9057846069335938,-9.62947940826416,0.849941611289978,0.457763671875,1.9378662109375,-0.6561279296875
3.7099999,1.900996208190918,-9.610325813293457,0.8571242094039917,0.457763671875,0.9613037109375,0.091552734375
3.7299999,1.900996208190918,-9.593565940856934,0.8667010068893433,0.06103515625,0.7781982421875,0.2593994140625
3.7499999,1.8986018896102905,-9.593565940856934,0.871489405632019,0.396728515625,1.2969970703125,0.213623046875
3.7699999,1.8986018896102905,-9.59835433959961,0.8595184087753296,0.9765625,1.4190673828125,-0.030517578125
3.7899999,1.8962076902389526,-9.605537414550781,0.8595184087753296,0.79345703125,1.922607421875,-0.18310546875
3.8099999,1.8842366933822632,-9.610325813293457,0.8547300100326538,1.0833740234375,1.9073486328125,0.640869140625
3.8299999000000002,1.8818424940109253,-9.617507934570312,0.8690952062606812,1.556396484375,1.3275146484375,1.007080078125
3.8499999,1.8794482946395874,-9.634267807006836,0.8762778043746948,0.7476806640625,1.2664794921875,0.274658203125
3.8699999,1.8842366933822632,-9.667786598205566,0.8978256583213806,1.4495849609375,2.1820068359375,0.244140625
3.8899999,1.886630892753601,-9.684545516967773,0.9097966551780701,0.48828125,1.739501953125,-0.6256103515625
3.9099999,1.8842366933822632,-9.691728591918945,0.9217676520347595,1.4801025390625,0.9307861328125,-0.2899169921875
3.9299999,1.8722656965255737,-9.670180320739746,0.9217676520347595,1.129150390625,0.67138671875,0.30517578125
3.9499999,1.86508309841156,-9.651026725769043,0.912190854549408,-0.1220703125,0.9307861328125,0.6866455078125
3.9699999,1.86508309841156,-9.634267807006836,0.8954314589500427,0.0457763671875,2.197265625,0.48828125
3.9899999,1.8794482946395874,-9.636661529541016,0.8882488012313843,2.1820068359375,1.953125,0.274658203125
4.0099999,1.8986018896102905,-9.651026725769043,0.8834604024887085,2.1820068359375,0.823974609375,0.2899169921875
4.029999900000001,1.9129672050476074,-9.66299819946289,0.8882488012313843,0.579833984375,0.79345703125,0.06103515625
4.0499999,1.920149803161621,-9.674968719482422,0.8882488012313843,0.9002685546875,1.4801025390625,0.18310546875
4.069999900000001,1.9105730056762695,-9.672574996948242,0.8954314589500427,0.6561279296875,1.4495849609375,0.1678466796875
4.0899999000000005,1.8962076902389526,-9.674968719482422,0.8978256583213806,0.42724609375,0.5340576171875,0.54931640625
4.1099999,1.8794482946395874,-9.677363395690918,0.9169792532920837,-0.0152587890625,0.7171630859375,0.8087158203125
4.1299999000000005,1.867477297782898,-9.679757118225098,0.9265560507774353,0.0152587890625,0.8392333984375,0.2899169921875
4.1499999,1.86508309841156,-9.672574996948242,0.9289502501487732,0.5645751953125,0.1983642578125,-0.030517578125
4.1699999000000005,1.8626888990402222,-9.646238327026367,0.9241618514060974,-0.0762939453125,0.1983642578125,-0.0762939453125
4.1899999,1.8626888990402222,-9.622296333312988,0.8930372595787048,1.0833740234375,0.0152587890625,1.2359619140625
4.209999900000001,1.8579005002975464,-9.59835433959961,0.8667010068893433,2.0904541015625,1.40380859375,0.9765625
4.2299999,1.8483237028121948,-9.59596061706543,0.8595184087753296,3.265380859375,2.2735595703125,0.42724609375
4.249999900000001,1.8411411046981812,-9.622296333312988,0.8643068075180054,5.828857421875,1.6021728515625,0.8087158203125
4.2699999,1.8339585065841675,-9.641449928283691,0.912190854549408,2.9449462890625,1.64794921875,0.457763671875
4.289999900000001,1.8363527059555054,-9.672574996948242,0.9385270476341248,4.5318603515625,0.1678466796875,0.518798828125
4.3099999,1.8363527059555054,-9.684545516967773,0.9672574996948242,3.23486328125,1.6021728515625,-0.244140625
4.329999900000001,1.8555063009262085,-9.703699111938477,0.993593692779541,-0.1068115234375,1.495361328125,0.335693359375
4.3499999,1.867477297782898,-9.710882186889648,1.0271124839782715,1.983642578125,1.0223388671875,0.06103515625
4.369999900000001,1.886630892753601,-9.713275909423828,1.0319008827209473,8.3770751953125,1.03759765625,-0.5035400390625
4.3899999,1.8986018896102905,-9.718064308166504,1.0678139925003052,6.4544677734375,0.8087158203125,-0.5645751953125
4.409999900000001,1.9129672050476074,-9.732429504394531,1.0630255937576294,3.23486328125,1.8310546875,-0.06103515625
4.4299999,1.920149803161621,-9.730035781860352,1.0869675874710083,1.5869140625,1.1444091796875,-1.0223388671875
4.449999900000001,1.9177556037902832,-9.725247383117676,1.0989385843276978,-1.03759765625,1.15966796875,-1.3427734375
4.4699999,1.9105730056762695,-9.715670585632324,1.1300631761550903,-0.48828125,0.8697509765625,-0.3662109375
4.489999900000001,1.8986018896102905,-9.691728591918945,1.1444283723831177,1.9073486328125,0.5645751953125,-0.732421875
4.5099999,1.8818424940109253,-9.66539192199707,1.1563993692398071,0.885009765625,0.640869140625,-1.800537109375
4.529999900000001,1.86508309841156,-9.634267807006836,1.1444283723831177,-1.8768310546875,0.640869140625,-1.220703125
4.5499999,1.8531121015548706,-9.605537414550781,1.1037269830703735,-2.8533935546875,0.4119873046875,-0.54931640625
4.569999900000001,1.843535304069519,-9.57201862335205,1.0869675874710083,-3.3416748046875,2.50244140625,-0.701904296875
4.5899999000000005,1.843535304069519,-9.5624418258667,1.0558429956436157,-0.518798828125,1.5716552734375,-0.2288818359375
4.609999900000001,1.8531121015548706,-9.5624418258667,1.05105459690094,-1.8310546875,0.8087158203125,-0.3662109375
4.6299999000000005,1.867477297782898,-9.59596061706543,1.0606313943862915,-2.838134765625,1.6632080078125,-0.1068115234375
4.6499999,1.8794482946395874,-9.612719535827637,1.072602391242981,-2.166748046875,1.3885498046875,-1.0986328125
4.6699999000000005,1.8914192914962769,-9.636661529541016,1.070208191871643,-0.3662109375,-0.3814697265625,-0.885009765625
4.6899999,1.8962076902389526,-9.62947940826416,1.0678139925003052,-0.4119873046875,0.091552734375,-0.152587890625
4.709999900000001,1.8962076902389526,-9.612719535827637,1.048660397529602,-1.64794921875,0.7476806640625,-0.244140625
4.7299999,1.8986018896102905,-9.603142738342285,1.0342950820922852,-1.03759765625,0.4425048828125,0.701904296875
4.749999900000001,1.8986018896102905,-9.615114212036133,1.0103530883789062,0,-0.79345703125,0.42724609375
4.7699999,1.9057846069335938,-9.636661529541016,0.9983820915222168,0.885009765625,-0.0762939453125,-0.30517578125
4.789999900000001,1.9129672050476074,-9.670180320739746,0.9648633003234863,-0.30517578125,1.0528564453125,-0.5340576171875
4.8099999,1.9249382019042969,-9.696516990661621,0.9576807022094727,-1.6326904296875,2.38037109375,-0.1220703125
4.829999900000001,1.9249382019042969,-9.708487510681152,0.9528923034667969,-2.0904541015625,1.373291015625,-0.5950927734375
4.8499999,1.922544002532959,-9.713275909423828,0.9888052940368652,-1.495361328125,0.7171630859375,-0.7781982421875
4.869999900000001,1.9153614044189453,-9.706093788146973,1.0199298858642578,-0.518798828125,0.3662109375,-0.457763671875
4.8899999,1.9129672050476074,-9.694122314453125,1.0223240852355957,0.7476806640625,-0.640869140625,-1.190185546875
4.909999900000001,1.9081788063049316,-9.670180320739746,1.0055646896362305,0.2899169921875,1.6021728515625,-1.6632080078125
4.9299999,1.900996208190918,-9.63187313079834,0.9696516990661621,-0.244140625,2.5634765625,-0.9613037109375
4.949999900000001,1.8914192914962769,-9.583989143371582,0.9576807022094727,-0.9613037109375,1.8768310546875,0
4.9699999,1.8818424940109253,-9.552865028381348,0.9528923034667969,0.8697509765625,0.1373291015625,1.2969970703125
4.989999900000001,1.886630892753601,-9.552865028381348,0.9457096457481384,0.42724609375,-0.1678466796875,0.8392333984375
5.0099999,1.9033904075622559,-9.586383819580078,0.9576807022094727,-1.7547607421875,2.7313232421875,-0.1983642578125
5.029999900000001,1.9249382019042969,-9.63187313079834,0.9409212470054626,-1.3580322265625,1.9683837890625,-0.9613037109375
5.0499999,1.9369091987609863,-9.651026725769043,0.9792284965515137,-2.8533935546875,1.9683837890625,-1.28173828125
5.069999900000001,1.9345149993896484,-9.651026725769043,0.9888052940368652,-0.4730224609375,0.5035400390625,-0.274658203125
5.0899999000000005,1.9153614044189453,-9.62947940826416,1.0079588890075684,-0.9765625,0.8087158203125,0.091552734375
5.109999900000001,1.8938134908676147,-9.59835433959961,1.0127472877502441,-1.9378662109375,2.13623046875,-0.06103515625
5.1299999000000005,1.8842366933822632,-9.59596061706543,1.0127472877502441,-2.349853515625,1.7242431640625,0.6561279296875
5.1499999,1.8794482946395874,-9.607931137084961,1.0079588890075684,-1.220703125,0.030517578125,0.6866455078125
5.1699999000000005,1.8938134908676147,-9.646238327026367,1.0079588890075684,-0.732421875,0.885009765625,0.030517578125
5.1899999,1.9129672050476074,-9.684545516967773,0.9840168952941895,-1.434326171875,0.9765625,-0.4425048828125
5.209999900000001,1.9369091987609863,-9.713275909423828,0.9624691009521484,-0.9765625,1.953125,-0.1678466796875
5.2299999,1.9512743949890137,-9.72285270690918,0.9528923034667969,-2.62451171875,1.89208984375,-0.0457763671875
5.249999900000001,1.9632453918457031,-9.713275909423828,0.9361328482627869,-0.48828125,0.1068115234375,-0.3509521484375
5.2699999,1.9632453918457031,-9.694122314453125,0.9217676520347595,-0.701904296875,0.79345703125,-0.7781982421875
5.289999900000001,1.9632453918457031,-9.677363395690918,0.9026140570640564,-0.9765625,2.3193359375,-0.457763671875
5.3099999,1.9560627937316895,-9.658209800720215,0.9002198576927185,-2.044677734375,3.4942626953125,-0.5645751953125
5.329999900000001,1.941697597503662,-9.643844604492188,0.912190854549408,-0.1220703125,1.5869140625,-0.732421875
5.3499999,1.9273324012756348,-9.624691009521484,0.9361328482627869,-0.396728515625,0.8697509765625,-0.6561279296875
5.369999900000001,1.9081788063049316,-9.59596061706543,0.9552865028381348,0.1678466796875,1.6021728515625,-0.396728515625
5.3899999,1.889025092124939,-9.567230224609375,0.9720458984375,-0.4119873046875,3.11279296875,0.213623046875
5.409999900000001,1.8746598958969116,-9.528923034667969,0.9840168952941895,-0.3814697265625,1.922607421875,0.213623046875
5.4299999,1.8722656965255737,-9.521739959716797,0.9983820915222168,-0.701904296875,0.6866455078125,1.0223388671875
5.449999900000001,1.8770540952682495,-9.528923034667969,1.015141487121582,-0.4119873046875,1.2664794921875,1.129150390625
5.4699999,1.889025092124939,-9.5624418258667,1.015141487121582,0.42724609375,1.52587890625,0.457763671875
5.489999900000001,1.9033904075622559,-9.619902610778809,1.0199298858642578,0.640869140625,1.64794921875,0.67138671875
5.5099999,1.9153614044189453,-9.66299819946289,1.0199298858642578,-0.457763671875,0.8087158203125,0.091552734375
5.529999900000001,1.9249382019042969,-9.694122314453125,1.0055646896362305,-0.640869140625,0.335693359375,-0.0457763671875
5.5499999,1.9345149993896484,-9.715670585632324,0.9792284965515137,0.79345703125,0.54931640625,0.18310546875
5.569999900000001,1.941697597503662,-9.718064308166504,0.9433154463768005,1.617431640625,1.3427734375,-0.6866455078125
5.5899999000000005,1.9488801956176758,-9.72285270690918,0.9481038451194763,-3.7689208984375,2.899169921875,-0.3814697265625
5.609999900000001,1.9560627937316895,-9.730035781860352,0.9361328482627869,-1.1749267578125,-0.7476806640625,-0.3509521484375
5.6299999000000005,1.9560627937316895,-9.725247383117676,0.9576807022094727,1.46484375,-0.457763671875,-0.579833984375
5.6499999,1.946485996246338,-9.703699111938477,0.9552865028381348,3.7994384765625,0.6103515625,-1.0833740234375
5.6699999000000005,1.9297266006469727,-9.66299819946289,0.950498104095459,1.2969970703125,1.0528564453125,-0.9307861328125
5.6899999,1.9153614044189453,-9.619902610778809,0.9313444495201111,-1.0833740234375,-0.335693359375,0.0762939453125
5.709999900000001,1.9105730056762695,-9.588777542114258,0.9097966551780701,0.0457763671875,-0.4730224609375,0.274658203125
5.7299999,1.9177556037902832,-9.576807022094727,0.8810662031173706,0.3662109375,0.885009765625,-0.396728515625
5.749999900000001,1.9273324012756348,-9.593565940856934,0.8571242094039917,0.18310546875,2.2125244140625,-0.8087158203125
5.7699999,1.9369091987609863,-9.619902610778809,0.8643068075180054,1.0528564453125,2.6397705078125,-0.1373291015625
5.789999900000001,1.9369091987609863,-9.643844604492188,0.9002198576927185,0.732421875,1.617431640625,-0.213623046875
5.8099999,1.9321208000183105,-9.670180320739746,0.9648633003234863,-0.0457763671875,1.007080078125,-0.152587890625
5.829999900000001,1.9297266006469727,-9.68933391571045,1.0007762908935547,0.3204345703125,0,-0.335693359375
5.8499999,1.9321208000183105,-9.691728591918945,1.0223240852355957,2.9144287109375,1.52587890625,-1.1138916015625
5.869999900000001,1.9345149993896484,-9.672574996948242,1.036689281463623,0.640869140625,2.8076171875,-1.03759765625
5.8899999,1.9369091987609863,-9.66299819946289,1.0295066833496094,-0.8087158203125,0.5950927734375,0.18310546875
5.909999900000001,1.9273324012756348,-9.639056205749512,1.036689281463623,-0.274658203125,-0.3814697265625,-0.213623046875
5.9299999,1.920149803161621,-9.624691009521484,1.036689281463623,1.5411376953125,0.8697509765625,-0.9918212890625
5.949999900000001,1.9129672050476074,-9.610325813293457,1.0103530883789062,1.708984375,0.6866455078125,-0.4119873046875
5.9699999,1.9105730056762695,-9.588777542114258,0.9983820915222168,-0.2288818359375,1.220703125,-0.1068115234375
5.989999900000001,1.9105730056762695,-9.569623947143555,0.9648633003234863,-1.068115234375,0.9918212890625,-0.0762939453125
6.0099999,1.9129672050476074,-9.550470352172852,0.9457096457481384,-0.4425048828125,1.0986328125,-0.30517578125
6.029999900000001,1.9153614044189453,-9.5408935546875,0.9265560507774353,-0.91552734375,2.13623046875,0.4425048828125
6.0499999,1.9129672050476074,-9.53849983215332,0.9265560507774353,-1.434326171875,2.2735595703125,0.885009765625
6.069999900000001,1.9081788063049316,-9.550470352172852,0.9457096457481384,-0.48828125,2.3651123046875,0.9765625
6.0899999000000005,1.8986018896102905,-9.57441234588623,0.9864110946655273,0.701904296875,1.46484375,0.9765625
6.109999900000001,1.889025092124939,-9.59596061706543,1.01753568649292,1.312255859375,0.5035400390625,0.91552734375
6.1299999000000005,1.8818424940109253,-9.617507934570312,1.0247182846069336,0.213623046875,0.1678466796875,1.1444091796875
6.149999900000001,1.8770540952682495,-9.624691009521484,1.01753568649292,-0.42724609375,2.3193359375,1.03759765625
6.1699999000000005,1.8722656965255737,-9.617507934570312,0.9888052940368652,-0.8544921875,2.0599365234375,0.640869140625
6.1899999,1.8698714971542358,-9.603142738342285,0.9816226959228516,-1.2054443359375,1.5106201171875,1.617431640625
6.209999900000001,1.8746598958969116,-9.59596061706543,0.9576807022094727,-0.7781982421875,0.3814697265625,2.166748046875
6.2299999,1.886630892753601,-9.600749015808105,0.9600749015808105,-0.213623046875,1.5869140625,1.6937255859375
6.249999900000001,1.900996208190918,-9.63187313079834,0.9457096457481384,0.030517578125,1.9378662109375,1.220703125
6.2699999,1.9153614044189453,-9.672574996948242,0.9576807022094727,-1.52587890625,1.983642578125,1.40380859375
6.289999900000001,1.922544002532959,-9.710882186889648,0.9672574996948242,-1.4495849609375,0.6866455078125,1.0528564453125
6.3099999,1.9273324012756348,-9.75397777557373,0.9888052940368652,-1.2664794921875,1.0223388671875,0.6256103515625
6.329999900000001,1.9273324012756348,-9.78989028930664,0.993593692779541,0.8697509765625,1.7852783203125,-0.30517578125
6.3499999,1.9249382019042969,-9.80904483795166,1.0007762908935547,-1.6021728515625,1.983642578125,-0.3814697265625
6.369999900000001,1.922544002532959,-9.816226959228516,0.9959878921508789,-0.2899169921875,0.5950927734375,-0.0762939453125
6.3899999,1.9129672050476074,-9.804255485534668,1.0127472877502441,0.762939453125,1.800537109375,-0.0457763671875
6.409999900000001,1.9105730056762695,-9.785101890563965,0.9911994934082031,4.0435791015625,0.732421875,-0.5340576171875
6.4299999,1.9081788063049316,-9.758766174316406,0.9911994934082031,1.52587890625,1.77001953125,-0.8544921875
6.449999900000001,1.9033904075622559,-9.72285270690918,0.9648633003234863,-0.5950927734375,1.52587890625,-1.0528564453125
6.4699999,1.8986018896102905,-9.677363395690918,0.9648633003234863,-2.532958984375,1.6632080078125,-0.6866455078125
6.489999900000001,1.8842366933822632,-9.63187313079834,0.9696516990661621,-0.48828125,1.2664794921875,-0.4730224609375
6.5099999,1.8746598958969116,-9.610325813293457,0.9864110946655273,0.6256103515625,1.0833740234375,0.3509521484375
6.529999900000001,1.8698714971542358,-9.607931137084961,1.0007762908935547,-0.3814697265625,1.0986328125,-0.5950927734375
6.5499999,1.8698714971542358,-9.62947940826416,0.9864110946655273,-1.2359619140625,0.7781982421875,-1.129150390625
6.569999900000001,1.8722656965255737,-9.646238327026367,0.9792284965515137,-0.9613037109375,2.105712890625,-1.1444091796875
6.5899999000000005,1.8794482946395874,-9.651026725769043,0.9696516990661621,-0.244140625,2.288818359375,-0.6561279296875
6.609999900000001,1.889025092124939,-9.648633003234863,0.9433154463768005,0.1678466796875,-0.1068115234375,0.1678466796875
6.6299999000000005,1.9057846069335938,-9.648633003234863,0.9361328482627869,-0.8697509765625,0.9613037109375,-0.2899169921875
6.649999900000001,1.922544002532959,-9.646238327026367,0.9217676520347595,-2.8228759765625,2.25830078125,-0.762939453125
6.6699999000000005,1.9369091987609863,-9.66299819946289,0.912190854549408,-1.800537109375,0.762939453125,-0.30517578125
6.6899999,1.941697597503662,-9.670180320739746,0.9026140570640564,-0.274658203125,0.1068115234375,-0.2288818359375
6.709999900000001,1.9345149993896484,-9.66299819946289,0.9097966551780701,0.30517578125,2.166748046875,-1.52587890625
6.7299999,1.922544002532959,-9.648633003234863,0.9169792532920837,-1.2054443359375,2.62451171875,-1.2359619140625
6.749999900000001,1.8986018896102905,-9.617507934570312,0.9289502501487732,-4.0435791015625,0,-0.0152587890625
6.7699999,1.8722656965255737,-9.583989143371582,0.9457096457481384,-6.622314453125,-0.8544921875,0.5645751953125
6.789999900000001,1.843535304069519,-9.545681953430176,0.9576807022094727,-7.9498291015625,0.0152587890625,0.4119873046875
6.8099999,1.824381709098816,-9.524134635925293,0.9600749015808105,-8.148193359375,0.48828125,0.7171630859375
6.829999900000001,1.8124107122421265,-9.521739959716797,0.950498104095459,-6.8511962890625,-0.2593994140625,1.5716552734375
6.8499999,1.821987509727478,-9.550470352172852,0.9433154463768005,-3.692626953125,0.48828125,1.068115234375
6.869999900000001,1.845929503440857,-9.59835433959961,0.9241618514060974,-1.40380859375,1.312255859375,0.1983642578125
6.8899999,1.8770540952682495,-9.651026725769043,0.8978256583213806,-1.9073486328125,1.4801025390625,0.2593994140625
6.909999900000001,1.9105730056762695,-9.682151794433594,0.8571242094039917,-2.6702880859375,0.54931640625,0.6103515625
6.9299999,1.941697597503662,-9.701305389404297,0.8164227604866028,-1.861572265625,1.556396484375,1.0528564453125
6.949999900000001,1.9632453918457031,-9.715670585632324,0.7733271718025208,-1.007080078125,2.410888671875,0.2593994140625
6.9699999,1.9728221893310547,-9.730035781860352,0.7445967197418213,-0.54931640625,2.4566650390625,-0.152587890625
6.989999900000001,1.9752163887023926,-9.751583099365234,0.7661445140838623,-1.0833740234375,2.471923828125,0.2288818359375
7.0099999,1.968033790588379,-9.768342971801758,0.7709329724311829,0.6103515625,0.18310546875,-0.213623046875
7.029999900000001,1.9584569931030273,-9.770736694335938,0.7924807667732239,0.0457763671875,0.8544921875,-1.4801025390625
7.0499999,1.9488801956176758,-9.746794700622559,0.7757213711738586,-1.8463134765625,1.983642578125,-2.044677734375
7.069999900000001,1.9321208000183105,-9.696516990661621,0.7637503147125244,-4.302978515625,2.471923828125,-0.8392333984375
7.0899999000000005,1.9153614044189453,-9.62947940826416,0.7541735172271729,-6.1187744140625,0.8544921875,0.4119873046875
7.109999900000001,1.8938134908676147,-9.579200744628906,0.7541735172271729,-9.6588134765625,-0.6866455078125,0.8544921875
7.1299999000000005,1.8794482946395874,-9.543288230895996,0.7350199222564697,-11.9476318359375,-1.3580322265625,0.3814697265625
7.149999900000001,1.86508309841156,-9.516951560974121,0.689530074596405,-7.50732421875,1.007080078125,0.1373291015625
7.1699999000000005,1.8507179021835327,-9.497797966003418,0.6536170840263367,-6.6070556640625,2.685546875,1.617431640625
7.1899999,1.843535304069519,-9.500192642211914,0.6105214357376099,-2.9296875,1.8310546875,2.86865234375
7.209999900000001,1.8411411046981812,-9.545681953430176,0.6272808313369751,0.54931640625,2.9754638671875,2.532958984375
7.2299999,1.843535304069519,-9.617507934570312,0.6631938815116882,-0.7781982421875,3.0364990234375,0.8392333984375
7.249999900000001,1.8555063009262085,-9.708487510681152,0.7015010714530945,-1.8463134765625,0.701904296875,0.579833984375
7.2699999,1.8602946996688843,-9.768342971801758,0.7254431247711182,-2.8533935546875,0.7171630859375,0.8087158203125
7.289999900000001,1.8602946996688843,-9.792284965515137,0.7230489253997803,-1.3275146484375,2.0294189453125,0.2899169921875
7.3099999,1.8555063009262085,-9.780313491821289,0.7182605266571045,1.2664794921875,3.3721923828125,0.30517578125
7.329999900000001,1.8483237028121948,-9.75397777557373,0.6991068720817566,0.152587890625,1.28173828125,0.946044921875
7.3499999,1.8387469053268433,-9.727641105651855,0.6943184733390808,-2.1209716796875,0.3662109375,0.885009765625
7.369999900000001,1.8339585065841675,-9.6989107131958,0.667982280254364,-5.3253173828125,0.6561279296875,0.1678466796875
7.3899999,1.824381709098816,-9.653421401977539,0.6368576288223267,-7.9498291015625,0.885009765625,0.1373291015625
7.409999900000001,1.821987509727478,-9.617507934570312,0.5961562395095825,-8.056640625,0.9765625,2.1514892578125
7.4299999,1.821987509727478,-9.600749015808105,0.5554547905921936,-7.2784423828125,0.1373291015625,3.0364990234375
7.449999900000001,1.8291701078414917,-9.617507934570312,0.5363011956214905,-4.5928955078125,1.678466796875,1.6632080078125
7.4699999,1.8315643072128296,-9.667786598205566,0.524330198764801,-1.8310546875,1.739501953125,0.4730224609375
7.489999900000001,1.8291701078414917,-9.715670585632324,0.5267243981361389,-2.74658203125,0.579833984375,0.7781982421875
7.5099999,1.8171991109848022,-9.749189376831055,0.5219359993934631,-4.21142578125,0.152587890625,1.3427734375
7.529999900000001,1.8076223134994507,-9.763554573059082,0.524330198764801,-3.7384033203125,0.885009765625,0.9613037109375
7.5499999,1.802833914756775,-9.770736694335938,0.49799394607543945,-0.91552734375,0.3814697265625,0.3204345703125
7.569999900000001,1.8052281141281128,-9.768342971801758,0.4644751250743866,-0.518798828125,-0.1220703125,0.1068115234375
7.5899999000000005,1.8100165128707886,-9.761159896850586,0.42616790533065796,-0.0152587890625,1.5106201171875,0.3204345703125
7.609999900000001,1.821987509727478,-9.758766174316406,0.3926490843296051,-0.1373291015625,1.8157958984375,0.701904296875
7.6299999000000005,1.8363527059555054,-9.768342971801758,0.38067805767059326,2.1209716796875,1.3885498046875,0.30517578125
7.649999900000001,1.8483237028121948,-9.773131370544434,0.38307225704193115,2.0294189453125,0.67138671875,-0.9002685546875
7.6699999000000005,1.8531121015548706,-9.763554573059082,0.3926490843296051,2.044677734375,1.0223388671875,-1.5106201171875
7.6899999,1.8507179021835327,-9.734824180603027,0.395043283700943,0.9613037109375,1.8310546875,-0.4425048828125
7.709999900000001,1.8387469053268433,-9.684545516967773,0.40701428055763245,0.8697509765625,1.800537109375,-0.396728515625
7.7299999,1.824381709098816,-9.62947940826416,0.4141969084739685,2.532958984375,1.6326904296875,-0.7781982421875
7.749999900000001,1.8052281141281128,-9.579200744628906,0.42616790533065796,2.105712890625,1.3427734375,-0.18310546875
7.7699999,1.7932571172714233,-9.560047149658203,0.4357447028160095,1.03759765625,2.471923828125,1.3275146484375
7.789999900000001,1.7836803197860718,-9.560047149658203,0.45010992884635925,0.518798828125,2.685546875,1.0223388671875
7.8099999,1.7884687185287476,-9.605537414550781,0.47165772318840027,3.0670166015625,2.410888671875,0.396728515625
7.829999900000001,1.7956513166427612,-9.648633003234863,0.5051765441894531,2.3040771484375,1.373291015625,-0.1983642578125
7.8499999,1.802833914756775,-9.672574996948242,0.5003881454467773,2.5177001953125,0.396728515625,-1.1444091796875
7.869999900000001,1.802833914756775,-9.677363395690918,0.5027823448181152,-4.69970703125,1.861572265625,0.946044921875
7.8899999,1.802833914756775,-9.66539192199707,0.4692635238170624,-1.9378662109375,2.3956298828125,1.5106201171875
7.909999900000001,1.8052281141281128,-9.66539192199707,0.4908113479614258,-1.7852783203125,3.11279296875,1.52587890625
7.9299999,1.8100165128707886,-9.68694019317627,0.507570743560791,2.9754638671875,1.1444091796875,0.7781982421875
7.949999900000001,1.821987509727478,-9.739612579345703,0.5674257874488831,2.8839111328125,2.1209716796875,0.67138671875
7.9699999,1.8267759084701538,-9.785101890563965,0.608127236366272,0.9918212890625,1.708984375,-0.1373291015625
7.989999900000001,1.824381709098816,-9.832986831665039,0.6488286852836609,-1.922607421875,1.1138916015625,-0.3509521484375
8.0099999,1.8148049116134644,-9.84495735168457,0.6560112833976746,-1.373291015625,-0.1373291015625,-0.6256103515625
8.0299999,1.800439715385437,-9.830592155456543,0.6560112833976746,0.1373291015625,0.42724609375,-0.946044921875
8.049999900000001,1.7836803197860718,-9.785101890563965,0.6153098344802856,1.495361328125,0.640869140625,-0.6103515625
8.069999900000001,1.7693150043487549,-9.720458984375,0.5650315880775452,0.1678466796875,0.3509521484375,-0.5645751953125
8.0899999,1.7621324062347412,-9.674968719482422,0.5195417404174805,-1.8157958984375,0.9307861328125,0.67138671875
8.1099999,1.764526605606079,-9.655815124511719,0.4812345504760742,-0.1220703125,0.8544921875,0.762939453125
8.129999900000001,1.7764976024627686,-9.66299819946289,0.4620809257030487,0.732421875,1.068115234375,-0.5645751953125
8.149999900000001,1.7980455160140991,-9.68933391571045,0.4572925269603729,0.579833984375,0.9002685546875,-0.8697509765625
8.1699999,1.8195933103561401,-9.713275909423828,0.4644751250743866,-1.03759765625,1.434326171875,-0.1678466796875
8.1899999,1.8315643072128296,-9.718064308166504,0.47644615173339844,-0.885009765625,0.8697509765625,-0.396728515625
8.2099999,1.8411411046981812,-9.725247383117676,0.48602294921875,1.3275146484375,1.068115234375,-0.42724609375
8.229999900000001,1.8363527059555054,-9.708487510681152,0.5003881454467773,0.0762939453125,1.5411376953125,-0.9918212890625
8.2499999,1.8267759084701538,-9.694122314453125,0.507570743560791,-0.1220703125,1.77001953125,-0.4730224609375
8.2699999,1.8100165128707886,-9.684545516967773,0.5099649429321289,-1.190185546875,1.0528564453125,0.48828125
8.2899999,1.7956513166427612,-9.68694019317627,0.5291185975074768,0.091552734375,1.8157958984375,-0.1220703125
8.309999900000001,1.7884687185287476,-9.701305389404297,0.5506663918495178,-1.678466796875,1.220703125,-0.732421875
8.3299999,1.7956513166427612,-9.725247383117676,0.5602431893348694,-1.007080078125,-0.1983642578125,-0.6256103515625
8.3499999,1.8148049116134644,-9.739612579345703,0.5530605912208557,1.068115234375,0.2593994140625,-0.396728515625
8.3699999,1.8363527059555054,-9.744400978088379,0.5339069962501526,0.4119873046875,2.166748046875,-1.190185546875
8.389999900000001,1.8483237028121948,-9.744400978088379,0.5267243981361389,-0.3662109375,2.7313232421875,-1.15966796875
8.4099999,1.845929503440857,-9.727641105651855,0.5339069962501526,-0.2899169921875,0.640869140625,-1.251220703125
8.4299999,1.8387469053268433,-9.710882186889648,0.5410895943641663,1.800537109375,-0.18310546875,-0.5950927734375
8.4499999,1.8315643072128296,-9.691728591918945,0.5291185975074768,1.3885498046875,1.0528564453125,-0.79345703125
8.469999900000001,1.821987509727478,-9.670180320739746,0.5051765441894531,0.518798828125,3.173828125,-1.64794921875
8.4899999,1.8148049116134644,-9.648633003234863,0.5051765441894531,-0.0152587890625,3.143310546875,-0.9765625
8.5099999,1.8076223134994507,-9.617507934570312,0.5099649429321289,0.5340576171875,0.48828125,-0.1678466796875
8.5299999,1.8076223134994507,-9.600749015808105,0.5530605912208557,1.2359619140625,0.762939453125,0.3509521484375
8.549999900000001,1.8100165128707886,-9.607931137084961,0.5674257874488831,1.3580322265625,1.6326904296875,0.091552734375
8.569999900000001,1.8195933103561401,-9.639056205749512,0.6009446382522583,-0.762939453125,2.38037109375,-0.3204345703125
8.5899999,1.8267759084701538,-9.672574996948242,0.6057330369949341,0.7171630859375,0.91552734375,-0.946044921875
8.6099999,1.8363527059555054,-9.701305389404297,0.629675030708313,0.8087158203125,0.1220703125,-0.3662109375
8.629999900000001,1.845929503440857,-9.72285270690918,0.6200982332229614,1.6937255859375,0.152587890625,0.213623046875
8.649999900000001,1.8507179021835327,-9.737217903137207,0.6153098344802856,0.48828125,0.885009765625,-0.3204345703125
8.6699999,1.8579005002975464,-9.75397777557373,0.5889736413955688,1.8310546875,0.1983642578125,-1.068115234375
8.6899999,1.8602946996688843,-9.75637149810791,0.569819986820221,0.30517578125,0.152587890625,-1.251220703125
8.709999900000001,1.8555063009262085,-9.737217903137207,0.545877993106842,-0.2288818359375,0.152587890625,-1.190185546875
8.729999900000001,1.845929503440857,-9.706093788146973,0.5291185975074768,0.18310546875,0.6561279296875,-0.4730224609375
8.7499999,1.8411411046981812,-9.674968719482422,0.5147533416748047,0.30517578125,0.1373291015625,0
8.7699999,1.8387469053268433,-9.651026725769043,0.5123591423034668,1.0223388671875,0.54931640625,-0.732421875
8.7899999,1.845929503440857,-9.634267807006836,0.5051765441894531,0.18310546875,0.5950927734375,-1.03759765625
8.809999900000001,1.8531121015548706,-9.619902610778809,0.5099649429321289,-1.4190673828125,1.5869140625,-0.396728515625
8.8299999,1.8602946996688843,-9.610325813293457,0.524330198764801,0.244140625,1.64794921875,0.1373291015625
8.8499999,1.8602946996688843,-9.615114212036133,0.5410895943641663,1.251220703125,0.9765625,-0.0152587890625
8.8699999,1.8579005002975464,-9.619902610778809,0.5650315880775452,1.9989013671875,0.79345703125,-0.6256103515625
8.889999900000001,1.8507179021835327,-9.615114212036133,0.5602431893348694,0.4119873046875,0.823974609375,-0.4119873046875
8.9099999,1.845929503440857,-9.615114212036133,0.5578489899635315,-1.2664794921875,1.7242431640625,0.7171630859375
8.9299999,1.8411411046981812,-9.603142738342285,0.5363011956214905,0.18310546875,2.0904541015625,0.6561279296875
8.9499999,1.8387469053268433,-9.603142738342285,0.545877993106842,0.3509521484375,2.2430419921875,0.152587890625
8.969999900000001,1.843535304069519,-9.627084732055664,0.5626373887062073,0.1678466796875,1.953125,0.8544921875
8.9899999,1.8507179021835327,-9.655815124511719,0.5961562395095825,-0.0152587890625,1.3885498046875,0.732421875
9.0099999,1.8531121015548706,-9.682151794433594,0.6320692300796509,1.5716552734375,1.46484375,-0.06103515625
9.0299999,1.8531121015548706,-9.701305389404297,0.6631938815116882,1.0223388671875,1.068115234375,-0.1068115234375
9.049999900000001,1.843535304069519,-9.703699111938477,0.6655880808830261,0.0152587890625,0.030517578125,0.579833984375
9.069999900000001,1.8291701078414917,-9.68694019317627,0.6607996821403503,-0.6866455078125,1.15966796875,0.3204345703125
9.0899999,1.8171991109848022,-9.658209800720215,0.6416460275650024,2.288818359375,2.9144287109375,0.9765625
9.1099999,1.8052281141281128,-9.622296333312988,0.6607996821403503,0.18310546875,2.3651123046875,1.251220703125
9.129999900000001,1.8052281141281128,-9.615114212036133,0.6727706789970398,0.640869140625,-0.823974609375,2.1820068359375
9.149999900000001,1.8124107122421265,-9.610325813293457,0.6943184733390808,-0.762939453125,-1.068115234375,1.4190673828125
9.1699999,1.821987509727478,-9.622296333312988,0.6871358752250671,0.06103515625,-0.18310546875,0.030517578125
9.1899999,1.8339585065841675,-9.641449928283691,0.6512228846549988,-0.9613037109375,1.15966796875,1.1749267578125
9.209999900000001,1.8339585065841675,-9.643844604492188,0.6272808313369751,-2.01416015625,0.885009765625,1.5716552734375
9.229999900000001,1.8339585065841675,-9.672574996948242,0.6057330369949341,-1.373291015625,0.2288818359375,2.166748046875
9.2499999,1.8267759084701538,-9.691728591918945,0.6129156351089478,-0.823974609375,0.3204345703125,1.0223388671875
9.2699999,1.8267759084701538,-9.730035781860352,0.608127236366272,-0.5340576171875,0.152587890625,0.5645751953125
9.2899999,1.8267759084701538,-9.768342971801758,0.608127236366272,-0.823974609375,0.42724609375,1.4190673828125
9.309999900000001,1.824381709098816,-9.799467086791992,0.586579442024231,-2.5482177734375,0.1068115234375,1.0528564453125
9.3299999,1.824381709098816,-9.825803756713867,0.5889736413955688,-3.173828125,0.9765625,0.244140625
9.3499999,1.821987509727478,-9.840168952941895,0.5674257874488831,-1.0223388671875,-0.1068115234375,-0.1068115234375
9.3699999,1.824381709098816,-9.84256362915039,0.5578489899635315,-0.213623046875,-0.091552734375,0.06103515625
9.389999900000001,1.821987509727478,-9.828198432922363,0.5386953949928284,0.30517578125,0.946044921875,-0.5340576171875
9.4099999,1.8171991109848022,-9.804255485534668,0.5123591423034668,-1.1138916015625,0.9307861328125,-0.946044921875
9.4299999,1.8052281141281128,-9.765948295593262,0.5003881454467773,-1.922607421875,0.6103515625,-0.6866455078125
9.4499999,1.7956513166427612,-9.727641105651855,0.49320554733276367,-0.0762939453125,1.0986328125,-0.1678466796875
9.469999900000001,1.7884687185287476,-9.68933391571045,0.4836287498474121,0.5950927734375,0.8087158203125,-0.244140625
9.4899999,1.7908629179000854,-9.682151794433594,0.47644615173339844,-0.5340576171875,1.251220703125,-0.579833984375
9.5099999,1.7932571172714233,-9.670180320739746,0.47405192255973816,-0.06103515625,2.105712890625,-0.946044921875
9.5299999,1.7956513166427612,-9.658209800720215,0.47884035110473633,0.7781982421875,1.3427734375,-0.7171630859375
9.549999900000001,1.7908629179000854,-9.641449928283691,0.4836287498474121,0.6866455078125,0.5645751953125,0.2288818359375
9.569999900000001,1.7860745191574097,-9.627084732055664,0.49799394607543945,-0.30517578125,1.5106201171875,0.67138671875
9.5899999,1.778891921043396,-9.610325813293457,0.507570743560791,-1.1138916015625,1.861572265625,-0.0152587890625
9.6099999,1.778891921043396,-9.624691009521484,0.5291185975074768,0.2899169921875,1.5411376953125,0.457763671875
9.629999900000001,1.7836803197860718,-9.63187313079834,0.5410895943641663,2.105712890625,0.640869140625,0.30517578125
9.649999900000001,1.7908629179000854,-9.636661529541016,0.5602431893348694,1.3580322265625,1.556396484375,-0.2288818359375
9.6699999,1.8052281141281128,-9.653421401977539,0.5410895943641663,1.861572265625,1.28173828125,0.7476806640625
9.6899999,1.8171991109848022,-9.672574996948242,0.5386953949928284,1.0528564453125,2.25830078125,1.556396484375
9.709999900000001,1.8267759084701538,-9.701305389404297,0.5339069962501526,0.823974609375,2.3040771484375,0.274658203125
9.729999900000001,1.8363527059555054,-9.744400978088379,0.5722141861915588,1.4801025390625,2.288818359375,0.213623046875
9.7499999,1.8411411046981812,-9.782708168029785,0.6009446382522583,1.7242431640625,0.4425048828125,0.0762939453125
9.7699999,1.8411411046981812,-9.799467086791992,0.6368576288223267,1.40380859375,0.06103515625,-0.4119873046875
9.7899999,1.8411411046981812,-9.81143856048584,0.6392518281936646,1.556396484375,1.7242431640625,-0.335693359375
9.809999900000001,1.8411411046981812,-9.804255485534668,0.6224924325942993,1.068115234375,1.5869140625,-0.8392333984375
9.8299999,1.8363527059555054,-9.78989028930664,0.6200982332229614,-0.8392333984375,2.13623046875,-0.91552734375
9.8499999,1.8315643072128296,-9.770736694335938,0.6129156351089478,-0.1983642578125,1.1444091796875,-0.9765625
9.8699999,1.821987509727478,-9.761159896850586,0.6224924325942993,0.762939453125,1.220703125,-0.9613037109375
9.889999900000001,1.8100165128707886,-9.737217903137207,0.6392518281936646,0.54931640625,1.89208984375,-1.434326171875
9.9099999,1.7980455160140991,-9.713275909423828,0.6536170840263367,0.6256103515625,1.312255859375,-1.3580322265625
9.9299999,1.7908629179000854,-9.694122314453125,0.6584054827690125,0.6866455078125,0.396728515625,-0.3509521484375
9.9499999,1.7836803197860718,-9.660603523254395,0.6536170840263367,1.129150390625,0.9613037109375,-1.190185546875
9.969999900000001,1.7836803197860718,-9.636661529541016,0.6368576288223267,1.1444091796875,1.953125,-1.2054443359375
9.9899999,1.7836803197860718,-9.615114212036133,0.629675030708313,-0.6561279296875,1.739501953125,-0.5340576171875
10.0099999,1.7908629179000854,-9.600749015808105,0.6177040338516235,-0.885009765625,0.0152587890625,0.1373291015625
10.0299999,1.7956513166427612,-9.581595420837402,0.5961562395095825,-0.0762939453125,-0.2593994140625,-0.3204345703125
10.049999900000001,1.8052281141281128,-9.581595420837402,0.5817909836769104,-0.6561279296875,1.89208984375,-0.0762939453125
10.069999900000001,1.8100165128707886,-9.59835433959961,0.5554547905921936,-0.4425048828125,2.471923828125,0.8087158203125
10.0899999,1.8148049116134644,-9.612719535827637,0.5674257874488831,0,2.0751953125,0.0152587890625
10.1099999,1.8171991109848022,-9.636661529541016,0.5913678407669067,-0.4119873046875,1.1749267578125,-0.152587890625
10.129999900000001,1.8124107122421265,-9.651026725769043,0.6177040338516235,-0.6561279296875,0.3662109375,0.4425048828125
10.149999900000001,1.8100165128707886,-9.660603523254395,0.6344634294509888,-0.4425048828125,1.1138916015625,0.823974609375
10.1699999,1.802833914756775,-9.660603523254395,0.6248866319656372,1.3580322265625,1.4190673828125,0.48828125
10.1899999,1.8052281141281128,-9.660603523254395,0.6272808313369751,-0.030517578125,1.9073486328125,0.396728515625
10.209999900000001,1.8124107122421265,-9.674968719482422,0.5937620401382446,0.274658203125,0.9002685546875,1.1749267578125
10.229999900000001,1.8195933103561401,-9.684545516967773,0.6057330369949341,0.2288818359375,2.74658203125,0.5340576171875
10.2499999,1.8291701078414917,-9.713275909423828,0.6248866319656372,0.1373291015625,3.35693359375,0.30517578125
10.2699999,1.8267759084701538,-9.730035781860352,0.6655880808830261,1.2969970703125,0.6866455078125,0.3509521484375
10.2899999,1.824381709098816,-9.742006301879883,0.7206547260284424,0.6103515625,-0.1220703125,0.3509521484375
10.309999900000001,1.8171991109848022,-9.737217903137207,0.730231523513794,0.244140625,0.030517578125,0.2899169921875
10.3299999,1.8195933103561401,-9.749189376831055,0.7326257228851318,-0.274658203125,2.105712890625,1.0833740234375
10.3499999,1.821987509727478,-9.758766174316406,0.7254431247711182,0.5645751953125,1.983642578125,0.48828125
10.3699999,1.8339585065841675,-9.787496566772461,0.7326257228851318,0.67138671875,-0.1220703125,-0.762939453125
10.389999900000001,1.8387469053268433,-9.801861763000488,0.7445967197418213,0.701904296875,-1.5106201171875,-1.1444091796875
10.4099999,1.8363527059555054,-9.787496566772461,0.7326257228851318,0.4425048828125,-1.0833740234375,-1.3885498046875
10.4299999,1.824381709098816,-9.732429504394531,0.6847416758537292,-0.2288818359375,-0.06103515625,-1.2664794921875
10.4499999,1.802833914756775,-9.672574996948242,0.6344634294509888,-1.28173828125,1.1138916015625,0.152587890625
10.469999900000001,1.778891921043396,-9.600749015808105,0.5937620401382446,-1.6937255859375,1.312255859375,-0.0457763671875
10.4899999,1.7597382068634033,-9.555258750915527,0.5937620401382446,-1.312255859375,0.7781982421875,0.274658203125
10.5099999,1.7501614093780518,-9.543288230895996,0.5985504388809204,0.335693359375,0.3814697265625,1.2359619140625
10.5299999,1.7501614093780518,-9.552865028381348,0.608127236366272,-0.030517578125,0.3204345703125,1.129150390625
10.549999900000001,1.7549498081207275,-9.588777542114258,0.6153098344802856,-1.4190673828125,1.9073486328125,0.6561279296875
10.569999900000001,1.764526605606079,-9.624691009521484,0.6272808313369751,-1.8310546875,1.861572265625,0.518798828125
10.5899999,1.7741034030914307,-9.660603523254395,0.6392518281936646,-0.2288818359375,0.1068115234375,0.91552734375
10.6099999,1.7812861204147339,-9.674968719482422,0.6560112833976746,-0.8392333984375,0.152587890625,0.79345703125
10.629999900000001,1.7812861204147339,-9.670180320739746,0.6320692300796509,-0.518798828125,-0.274658203125,0.4425048828125
10.649999900000001,1.7812861204147339,-9.660603523254395,0.5913678407669067,-0.885009765625,1.1444091796875,1.2969970703125
10.6699999,1.7812861204147339,-9.655815124511719,0.5578489899635315,-1.46484375,2.593994140625,1.922607421875
10.6899999,1.7812861204147339,-9.672574996948242,0.5554547905921936,-0.396728515625,1.89208984375,1.434326171875
10.709999900000001,1.778891921043396,-9.701305389404297,0.5746083855628967,-0.3662109375,0.244140625,0.54931640625
10.729999900000001,1.7812861204147339,-9.734824180603027,0.6129156351089478,0.213623046875,0.0457763671875,0.7781982421875
10.7499999,1.7884687185287476,-9.770736694335938,0.6224924325942993,0.8392333984375,0.9765625,1.6632080078125
10.7699999,1.7956513166427612,-9.804255485534668,0.6248866319656372,0.2288818359375,1.556396484375,0.732421875
10.7899999,1.8052281141281128,-9.830592155456543,0.629675030708313,-0.5340576171875,1.6021728515625,-1.0833740234375
10.809999900000001,1.8076223134994507,-9.837775230407715,0.6200982332229614,1.03759765625,-0.0762939453125,-1.4190673828125
10.8299999,1.802833914756775,-9.813833236694336,0.6224924325942993,-0.274658203125,0.6103515625,-0.3662109375
10.8499999,1.7956513166427612,-9.78989028930664,0.6057330369949341,0.0457763671875,0.91552734375,0.67138671875
10.8699999,1.7812861204147339,-9.758766174316406,0.5985504388809204,1.1749267578125,1.4495849609375,-0.3814697265625
10.889999900000001,1.7693150043487549,-9.734824180603027,0.5985504388809204,1.861572265625,1.1138916015625,-1.1749267578125
10.9099999,1.7525556087493896,-9.696516990661621,0.6200982332229614,-0.1220703125,1.3885498046875,-0.5035400390625
10.9299999,1.742978811264038,-9.634267807006836,0.6655880808830261,-0.5950927734375,1.15966796875,0.5340576171875
10.9499999,1.7549498081207275,-9.576807022094727,0.6943184733390808,0.8697509765625,-0.030517578125,1.3275146484375
10.969999900000001,1.7836803197860718,-9.497797966003418,0.7445967197418213,2.9754638671875,0.335693359375,1.0833740234375
10.9899999,1.8914192914962769,-9.459490776062012,0.7876923680305481,4.2572021484375,0.946044921875,2.899169921875
11.0099999,2.1787235736846924,-9.612719535827637,0.950498104095459,-1.3275146484375,0.518798828125,8.697509765625
11.0299999,2.7030537128448486,-10.467450141906738,0.6536170840263367,22.4151611328125,-15.93017578125,25.2838134765625
11.049999900000001,3.3949780464172363,-11.868058204650879,0.5003881454467773,49.8504638671875,13.763427734375,17.9290771484375
11.069999900000001,4.036623954772949,-13.773842811584473,0.33997663855552673,58.7158203125,53.0853271484375,-4.4403076171875
11.0899999,4.469974517822266,-15.909470558166504,0.667982280254364,71.7620849609375,49.86572265625,-10.4217529296875
11.1099999,4.496310710906982,-17.37711524963379,1.7573440074920654,35.64453125,22.88818359375,-44.952392578125
11.129999900000001,4.230554580688477,-18.114530563354492,2.9089550971984863,7.9345703125,-29.0985107421875,-79.681396484375
11.149999900000001,3.8379054069519043,-18.059463500976562,3.8091750144958496,2.410888671875,-43.853759765625,-86.5478515625
11.1699999,3.4356794357299805,-17.290924072265625,3.8594532012939453,-16.2811279296875,-35.614013671875,-95.428466796875
11.1899999,3.1723172664642334,-16.237476348876953,3.2130186557769775,-16.937255859375,-26.9317626953125,-105.89599609375
11.209999900000001,3.0526070594787598,-15.205574989318848,2.2864625453948975,-20.08056640625,-10.589599609375,-111.2213134765625
11.229999900000001,3.023876667022705,-14.369998931884766,1.4077905416488647,-10.5133056640625,-8.2244873046875,-116.0888671875
11.2499999,3.0334534645080566,-13.713987350463867,0.8643068075180054,-1.0833740234375,-7.5225830078125,-124.8779296875
11.2699999,3.026270866394043,-13.223176002502441,0.6224924325942993,0.091552734375,-9.7503662109375,-134.6435546875
11.2899999,2.9975404739379883,-12.835315704345703,0.5937620401382446,-0.9765625,-13.2293701171875,-139.22119140625
11.309999900000001,2.937685489654541,-12.425907135009766,0.5410895943641663,3.0975341796875,-18.37158203125,-147.03369140625
11.3299999,2.913743495941162,-11.954249382019043,0.47644615173339844,16.6168212890625,-11.2152099609375,-154.815673828125
11.3499999,2.896984100341797,-11.434707641601562,0.4357447028160095,13.0615234375,1.3885498046875,-156.3873291015625
11.3699999,2.937685489654541,-10.953473091125488,0.42616790533065796,2.655029296875,-6.6986083984375,-155.6243896484375
11.389999900000001,3.023876667022705,-10.395624160766602,0.5315127968788147,16.815185546875,-8.30078125,-161.7279052734375
11.4099999,3.138798475265503,-10.002974510192871,0.7852981686592102,18.402099609375,-1.8463134765625,-164.4439697265625
11.4299999,3.2321722507476807,-9.57201862335205,1.0007762908935547,15.6707763671875,-5.157470703125,-167.29736328125
11.4499999,3.3039982318878174,-9.078812599182129,1.2761094570159912,20.8282470703125,-8.2550048828125,-174.957275390625
11.469999900000001,3.31118106842041,-8.427590370178223,1.5897499322891235,27.9388427734375,-4.5623779296875,-178.802490234375
11.4899999,3.2393548488616943,-7.489062786102295,1.8626888990402222,36.3922119140625,-11.688232421875,-182.3272705078125
11.5099999,3.1699230670928955,-6.229712963104248,2.118868589401245,38.726806640625,-18.2037353515625,-179.8095703125
11.5299999,3.0789434909820557,-4.78122091293335,2.207453966140747,50.750732421875,-22.308349609375,-169.1131591796875
11.549999900000001,3.0190882682800293,-3.220201253890991,2.1930887699127197,52.4749755859375,-27.2369384765625,-161.6058349609375
11.569999900000001,2.978386878967285,-1.5873557329177856,1.946485996246338,57.708740234375,-27.1759033203125,-161.6058349609375
11.5899999,2.9879636764526367,0.19393034279346466,1.7118542194366455,50.23193359375,-24.993896484375,-154.2205810546875
11.6099999,3.0813376903533936,2.0685901641845703,1.3407529592514038,20.01953125,-32.1502685546875,-129.2724609375
11.629999900000001,3.3039982318878174,3.8977603912353516,0.8619126081466675,-23.529052734375,-47.8973388671875,-95.39794921875
11.649999900000001,3.713406801223755,5.322310447692871,0.3926490843296051,-94.0093994140625,-38.818359375,-66.71142578125
11.6699999,4.326322555541992,6.030993938446045,-0.011971008032560349,-114.2730712890625,-28.1524658203125,-44.5404052734375
11.6899999,5.027823448181152,6.081272125244141,-0.1867477297782898,-73.5626220703125,-19.5770263671875,-37.139892578125
11.709999900000001,5.796362400054932,5.556941986083984,-0.2585737705230713,-22.003173828125,-19.500732421875,-26.336669921875
11.729999900000001,6.555324077606201,4.754884719848633,-0.07182604819536209,-51.26953125,-15.68603515625,-11.3983154296875
11.7499999,7.177816867828369,3.971980571746826,0.05267243832349777,-20.01953125,-10.80322265625,-9.6588134765625
11.7699999,7.726089000701904,3.2082302570343018,-0.047884032130241394,42.0989990234375,-18.9666748046875,-1.8463134765625
11.7899999,8.180987358093262,2.542642116546631,0.06224924325942993,5.3863525390625,-7.14111328125,10.345458984375
11.809999900000001,8.547300338745117,1.8770540952682495,-0.15083470940589905,14.4805908203125,-5.9661865234375,10.55908203125
11.8299999,8.87051773071289,1.2042834758758545,-0.2849099934101105,3.6468505859375,-15.411376953125,6.6070556640625
11.8499999,9.141061782836914,0.5339069962501526,-0.3687070608139038,-30.9295654296875,-11.383056640625,7.38525390625
11.8699999,9.361329078674316,-0.0071826050989329815,-0.5195417404174805,-21.0113525390625,-11.688232421875,7.62939453125
11.889999900000001,9.531316757202148,-0.33997663855552673,-0.6536170840263367,-21.5911865234375,-13.885498046875,7.1258544921875
11.9099999,9.677363395690918,-0.5291185975074768,-0.7637503147125244,-21.4385986328125,-9.246826171875,10.6048583984375
11.9299999,9.799467086791992,-0.6320692300796509,-0.8690952062606812,-6.3323974609375,-3.4332275390625,12.6953125
11.9499999,9.909601211547852,-0.7182605266571045,-0.9050082564353943,4.08935546875,-0.9765625,9.796142578125
11.969999900000001,10.007762908935547,-0.8547300100326538,-0.7972691655158997,6.5765380859375,1.6632080078125,6.0577392578125
11.9899999,10.091560363769531,-1.01753568649292,-0.6536170840263367,10.8184814453125,0.335693359375,4.69970703125
12.0099999,10.137049674987793,-1.1635819673538208,-0.4357447028160095,4.7149658203125,-0.0152587890625,3.0364990234375
12.0299999,10.144232749938965,-1.2425906658172607,-0.2777273952960968,-1.129150390625,-0.701904296875,0.5340576171875
12.049999900000001,10.11789608001709,-1.2761094570159912,-0.181959331035614,-4.9896240234375,-1.373291015625,-0.9002685546875
12.069999900000001,10.070012092590332,-1.2401964664459229,-0.17238251864910126,-8.5906982421875,1.708984375,0.732421875
12.0899999,10.012551307678223,-1.137245774269104,-0.16998831927776337,-10.4217529296875,5.5999755859375,0.4119873046875
12.1099999,9.959878921508789,-1.0414776802062988,-0.15322890877723694,-9.2010498046875,4.9591064453125,1.9683837890625
12.129999900000001,9.897629737854004,-0.9169792532920837,-0.10055647045373917,-7.8582763671875,0.91552734375,2.105712890625
12.149999900000001,9.837775230407715,-0.811634361743927,-0.026336219161748886,-4.1656494140625,1.0223388671875,2.0751953125
12.1699999,9.787496566772461,-0.7086837291717529,0.021547814831137657,-2.227783203125,2.1209716796875,2.532958984375
12.1899999,9.737217903137207,-0.6320692300796509,0.002394201699644327,1.89208984375,0.823974609375,1.8768310546875
12.209999900000001,9.710882186889648,-0.6105214357376099,-0.016759412363171577,1.1138916015625,4.3182373046875,3.2196044921875
12.229999900000001,9.694122314453125,-0.6057330369949341,-0.040701430290937424,-2.38037109375,6.4239501953125,1.0986328125
12.2499999,9.679757118225098,-0.6200982332229614,-0.033518824726343155,1.3885498046875,5.035400390625,-0.0457763671875
12.2699999,9.66539192199707,-0.6129156351089478,0.05027823522686958,0.8544921875,6.744384765625,1.953125
12.289999900000002,9.660603523254395,-0.5937620401382446,0.1604115068912506,-0.91552734375,3.0975341796875,4.0130615234375
12.309999900000001,9.643844604492188,-0.5602431893348694,0.2585737705230713,-3.570556640625,-0.0762939453125,4.302978515625
12.3299999,9.641449928283691,-0.5746083855628967,0.3064578175544739,-4.39453125,-0.48828125,6.8206787109375
12.3499999,9.639056205749512,-0.6153098344802856,0.2801215946674347,-7.9803466796875,1.52587890625,7.14111328125
12.3699999,9.62947940826416,-0.6536170840263367,0.24181437492370605,-7.476806640625,3.6773681640625,5.0201416015625
12.389999900000001,9.619902610778809,-0.6967126727104187,0.17477671802043915,-2.8076171875,1.861572265625,5.889892578125
12.4099999,9.59596061706543,-0.7110779285430908,0.16759411990642548,-2.0599365234375,2.197265625,7.26318359375
12.4299999,9.5624418258667,-0.6991068720817566,0.12449848651885986,-1.3427734375,1.9073486328125,7.5225830078125
12.4499999,9.533711433410645,-0.6775590777397156,0.10773907601833344,-0.2899169921875,3.11279296875,6.744384765625
12.469999900000001,9.512163162231445,-0.6775590777397156,0.10295066982507706,-3.60107421875,4.119873046875,8.7890625
12.4899999,9.490615844726562,-0.646434485912323,0.06464344263076782,1.0833740234375,1.8768310546875,9.1094970703125
12.5099999,9.481039047241211,-0.6320692300796509,0.06464344263076782,1.0986328125,3.6773681640625,9.8876953125
12.5299999,9.478644371032715,-0.6512228846549988,0.040701430290937424,-3.326416015625,5.3558349609375,13.24462890625
12.549999900000001,9.493009567260742,-0.6967126727104187,0.033518824726343155,-0.9765625,4.2724609375,13.4735107421875
12.569999900000001,9.524134635925293,-0.8212111592292786,0.090979665517807,-2.50244140625,5.0048828125,12.63427734375
12.5899999,9.567230224609375,-1.0199298858642578,0.14844051003456116,-0.9765625,2.2430419921875,14.0533447265625
12.6099999,9.619902610778809,-1.2761094570159912,0.22744916379451752,1.5106201171875,1.373291015625,12.939453125
12.629999900000001,9.674968719482422,-1.534683346748352,0.2825157940387726,2.4871826171875,2.9296875,9.6435546875
12.649999900000001,9.72285270690918,-1.7477672100067139,0.3447650372982025,3.5552978515625,3.96728515625,6.7901611328125
12.6699999,9.763554573059082,-1.8818424940109253,0.3926490843296051,1.617431640625,1.2969970703125,7.537841796875
12.6899999,9.782708168029785,-1.9488801956176758,0.4668693244457245,-0.8392333984375,-1.1138916015625,7.781982421875
12.709999900000001,9.806650161743164,-1.9919757843017578,0.5099649429321289,1.3580322265625,-3.0364990234375,6.011962890625
12.729999900000001,9.804255485534668,-1.9177556037902832,0.40222588181495667,5.889892578125,-7.5836181640625,-0.9918212890625
12.7499999,9.794678688049316,-1.7764976024627686,0.26336219906806946,-3.3416748046875,-3.631591796875,-1.1444091796875
12.7699999,9.75397777557373,-1.4939818382263184,0,-4.1351318359375,-0.2899169921875,3.4332275390625
12.789999900000002,9.706093788146973,-1.1875240802764893,-0.22505496442317963,-2.44140625,1.8310546875,8.2550048828125
12.809999900000001,9.670180320739746,-0.9744400978088379,-0.37828385829925537,-5.1422119140625,4.94384765625,11.6424560546875
12.8299999,9.66539192199707,-0.9002198576927185,-0.45489832758903503,-7.8582763671875,6.89697265625,11.5966796875
12.8499999,9.68933391571045,-1.0031704902648926,-0.4381389021873474,-9.4451904296875,9.8419189453125,13.5345458984375
12.8699999,9.715670585632324,-1.2186486721038818,-0.3711012601852417,-2.655029296875,12.8936767578125,15.1824951171875
12.889999900000001,9.715670585632324,-1.4508862495422363,-0.19393034279346466,2.2735595703125,17.486572265625,13.18359375
12.9099999,9.679757118225098,-1.6735470294952393,0.009576806798577309,3.173828125,17.181396484375,13.6566162109375
12.9299999,9.622296333312988,-1.8411411046981812,0.2849099934101105,-0.0457763671875,14.16015625,15.899658203125
12.9499999,9.550470352172852,-1.9297266006469727,0.5410895943641663,-2.01416015625,11.2762451171875,14.0533447265625
12.969999900000001,9.490615844726562,-1.9608511924743652,0.7613561153411865,3.509521484375,7.9193115234375,11.993408203125
12.9899999,9.425971984863281,-1.9560627937316895,0.8690952062606812,-2.716064453125,4.0283203125,13.519287109375
13.0099999,9.3828763961792,-1.920149803161621,0.8643068075180054,-7.110595703125,1.4801025390625,16.0980224609375
13.0299999,9.346963882446289,-1.9177556037902832,0.8355764150619507,-10.0250244140625,6.683349609375,16.7694091796875
13.049999900000001,9.349357604980469,-1.9704279899597168,0.7541735172271729,-2.4261474609375,3.1585693359375,15.4266357421875
13.069999900000001,9.378087997436523,-2.070984363555908,0.7350199222564697,-4.8065185546875,-1.89208984375,13.5650634765625
13.0899999,9.435548782348633,-2.205059766769409,0.7015010714530945,-8.4991455078125,-5.2337646484375,12.3748779296875
13.1099999,9.519346237182617,-2.3798365592956543,0.6344634294509888,-7.7972412109375,-5.3253173828125,12.4053955078125
13.129999900000001,9.600749015808105,-2.535459518432617,0.5147533416748047,-3.8604736328125,-3.692626953125,9.8876953125
13.149999900000001,9.670180320739746,-2.676717519760132,0.42856210470199585,-4.7454833984375,-0.274658203125,7.080078125
13.1699999,9.715670585632324,-2.7509377002716064,0.363918662071228,-2.1514892578125,-1.8463134765625,7.2174072265625
13.1899999,9.732429504394531,-2.7509377002716064,0.40940847992897034,-1.678466796875,-4.150390625,6.77490234375
13.209999900000001,9.725247383117676,-2.715024709701538,0.4668693244457245,-6.317138671875,-8.48388671875,6.011962890625
13.229999900000001,9.713275909423828,-2.7126305103302,0.4572925269603729,-5.3253173828125,-11.4288330078125,6.072998046875
13.2499999,9.691728591918945,-2.6862943172454834,0.38067805767059326,-0.18310546875,-6.0577392578125,3.570556640625
13.2699999,9.66539192199707,-2.676717519760132,0.2082955539226532,-0.3509521484375,-1.4495849609375,2.9754638671875
13.289999900000002,9.624691009521484,-2.5929205417633057,0.05267243832349777,-1.220703125,1.7852783203125,4.8828125
13.309999900000001,9.576807022094727,-2.5019407272338867,-0.0454898327589035,-4.119873046875,2.9296875,7.5225830078125
13.3299999,9.526528358459473,-2.3965959548950195,-0.028730420395731926,-2.8076171875,5.340576171875,8.9111328125
13.3499999,9.485827445983887,-2.3271639347076416,0.016759412363171577,-4.364013671875,2.2430419921875,7.2174072265625
13.3699999,9.459490776062012,-2.2673089504241943,0.09576806426048279,-2.9754638671875,3.3416748046875,7.965087890625
13.389999900000001,9.44991397857666,-2.2409727573394775,0.1843535304069519,-7.3089599609375,6.1492919921875,11.322021484375
13.4099999,9.452308654785156,-2.2242133617401123,0.2322375625371933,-8.1787109375,1.7242431640625,10.9100341796875
13.4299999,9.459490776062012,-2.233790159225464,0.2777273952960968,-6.6070556640625,0.9765625,10.3607177734375
13.4499999,9.469067573547363,-2.293645143508911,0.27054479718208313,-3.60107421875,0.946044921875,12.7410888671875
13.469999900000001,9.47146224975586,-2.365471363067627,0.24660277366638184,-5.0048828125,3.4027099609375,11.90185546875
13.4899999,9.466673851013184,-2.4444799423217773,0.22505496442317963,-5.2032470703125,2.349853515625,10.6964111328125
13.5099999,9.452308654785156,-2.537853717803955,0.19632454216480255,-3.6163330078125,0.2899169921875,11.5814208984375
13.5299999,9.41400146484375,-2.5953147411346436,0.2082955539226532,-3.387451171875,1.068115234375,12.51220703125
13.549999900000001,9.370905876159668,-2.6408045291900635,0.2346317619085312,-4.6844482421875,2.1209716796875,13.8092041015625
13.569999900000001,9.32541561126709,-2.691082715988159,0.26336219906806946,-6.9732666015625,-0.579833984375,13.8092041015625
13.5899999,9.29189682006836,-2.738966703414917,0.3016694188117981,-5.9661865234375,-2.7923583984375,12.176513671875
13.6099999,9.279925346374512,-2.7964274883270264,0.3519476354122162,-4.69970703125,-0.54931640625,12.054443359375
13.629999900000001,9.263166427612305,-2.8107926845550537,0.33758243918418884,1.190185546875,-3.204345703125,11.1236572265625
13.649999900000001,9.23682975769043,-2.7988216876983643,0.26336219906806946,-0.79345703125,-4.1046142578125,12.0086669921875
13.6699999,9.174580574035645,-2.7485435009002686,0.18914192914962769,-4.608154296875,2.105712890625,15.594482421875
13.6899999,9.069235801696777,-2.695871114730835,0.016759412363171577,1.0528564453125,2.6702880859375,17.3797607421875
13.709999900000001,8.913613319396973,-2.6168625354766846,-0.038307227194309235,3.4027099609375,8.7890625,19.7601318359375
13.729999900000001,8.760383605957031,-2.5713725090026855,-0.031124621629714966,12.1612548828125,13.61083984375,25.4669189453125
13.7499999,8.607154846191406,-2.5665841102600098,0.090979665517807,6.622314453125,9.0179443359375,29.23583984375
13.7699999,8.542511940002441,-2.6360161304473877,0.24660277366638184,5.7373046875,2.4261474609375,27.069091796875
13.789999900000002,8.506598472595215,-2.7317841053009033,0.40462008118629456,2.5787353515625,1.6937255859375,23.3612060546875
13.809999900000001,8.520963668823242,-2.853888511657715,0.3926490843296051,7.6446533203125,0.8544921875,28.3355712890625
13.8299999,8.53293514251709,-2.956839084625244,0.3423708379268646,14.7552490234375,7.9803466796875,36.4532470703125
13.8499999,8.537723541259766,-3.0573954582214355,0.23702596127986908,21.2249755859375,14.6636962890625,38.818359375
13.8699999,8.556877136230469,-3.2393548488616943,0.24420857429504395,18.8446044921875,15.9759521484375,40.283203125
13.889999900000001,8.583212852478027,-3.509899616241455,0.3423708379268646,14.1754150390625,8.5601806640625,39.3829345703125
13.9099999,8.60236644744873,-3.778050184249878,0.4812345504760742,12.6190185546875,2.74658203125,35.09521484375
13.9299999,8.628703117370605,-4.034229755401611,0.6344634294509888,6.744384765625,4.1961669921875,34.2864990234375
13.9499999,8.633491516113281,-4.230554580688477,0.6416460275650024,4.8675537109375,1.9989013671875,36.2396240234375
13.969999900000001,8.638279914855957,-4.3406877517700195,0.6105214357376099,9.8419189453125,3.692626953125,36.8499755859375
13.9899999,8.643068313598633,-4.438849925994873,0.5602431893348694,10.955810546875,7.9803466796875,37.689208984375
14.0099999,8.611943244934082,-4.54419469833374,0.4812345504760742,15.655517578125,6.622314453125,39.215087890625
14.0299999,8.583212852478027,-4.651933670043945,0.5291185975074768,14.22119140625,10.7269287109375,40.6646728515625
14.049999900000001,8.530540466308594,-4.836287498474121,0.6224924325942993,4.6844482421875,8.9874267578125,39.8712158203125
14.069999900000001,8.453926086425781,-5.011064052581787,0.7661445140838623,-3.7994384765625,2.0294189453125,35.7818603515625
14.0899999,8.370129585266113,-5.240907669067383,0.8858546018600464,-10.1165771484375,-1.2969970703125,33.7982177734375
14.1099999,8.255207061767578,-5.398924827575684,0.9145850539207458,-5.0048828125,0.5340576171875,32.53173828125
14.129999900000001,8.135497093200684,-5.473145008087158,0.8954314589500427,6.683349609375,7.843017578125,32.8826904296875
14.149999900000001,8.018181800842285,-5.473145008087158,0.8355764150619507,8.8348388671875,8.7432861328125,36.3616943359375
14.1699999,7.915230751037598,-5.406107425689697,0.8236053586006165,15.1519775390625,8.544921875,38.4368896484375
14.1899999,7.829039573669434,-5.377377033233643,0.828393816947937,12.2528076171875,7.8887939453125,38.5894775390625
14.209999900000001,7.757213592529297,-5.377377033233643,0.8427590131759644,3.47900390625,4.57763671875,35.8428955078125
14.229999900000001,7.718906402587891,-5.415684223175049,0.8786720037460327,2.7923583984375,7.0953369140625,35.5682373046875
14.2499999,7.706935405731201,-5.52821159362793,0.9002198576927185,1.8768310546875,4.669189453125,38.177490234375
14.2699999,7.714118003845215,-5.676652431488037,0.9026140570640564,0,0.2899169921875,37.4603271484375
14.289999900000002,7.7428483963012695,-5.899312973022461,0.8547300100326538,1.8463134765625,1.9989013671875,35.7666015625
14.309999900000001,7.773972988128662,-6.160281181335449,0.7757213711738586,1.2054443359375,4.5013427734375,35.58349609375
14.3299999,7.797914981842041,-6.4380083084106445,0.6991068720817566,-0.7781982421875,7.0953369140625,36.163330078125
14.3499999,7.7883381843566895,-6.715735912322998,0.6392518281936646,-1.5106201171875,4.5013427734375,34.8968505859375
14.3699999,7.754819393157959,-6.9695210456848145,0.6823474764823914,-2.4566650390625,7.415771484375,31.890869140625
14.389999900000001,7.68538761138916,-7.189787864685059,0.7948749661445618,-5.0811767578125,8.4228515625,29.144287109375
14.4099999,7.5848307609558105,-7.352593421936035,0.9433154463768005,-4.0283203125,1.678466796875,26.2298583984375
14.4299999,7.469909191131592,-7.450755596160889,1.113303780555725,-2.5482177734375,-1.0528564453125,24.688720703125
14.4499999,7.357381820678711,-7.496245384216309,1.2521674633026123,-0.244140625,-0.1373291015625,22.76611328125
14.469999900000001,7.240066051483154,-7.489062786102295,1.3024457693099976,0.9307861328125,-2.2430419921875,20.2484130859375
14.4899999,7.141903877258301,-7.443572998046875,1.3096283674240112,1.953125,-4.486083984375,20.44677734375
14.5099999,7.043741226196289,-7.359776020050049,1.2186486721038818,5.0201416015625,-3.631591796875,20.5230712890625
14.5299999,6.964732646942139,-7.24485445022583,1.0821791887283325,5.035400390625,-1.1749267578125,20.4925537109375
14.549999900000001,6.888118267059326,-7.132327079772949,0.9552865028381348,1.3580322265625,4.302978515625,21.1029052734375
14.569999900000001,6.842628479003906,-7.053318023681641,0.8523358106613159,3.204345703125,3.5247802734375,23.3001708984375
14.5899999,6.799532890319824,-7.0341644287109375,0.8690952062606812,1.9073486328125,3.35693359375,23.0255126953125
14.6099999,6.75883150100708,-7.084442615509033,0.9097966551780701,5.035400390625,1.4801025390625,21.3165283203125
14.629999900000001,6.71334171295166,-7.16584587097168,0.9983820915222168,6.988525390625,2.6702880859375,20.599365234375
14.649999900000001,6.665457725524902,-7.264008045196533,1.0558429956436157,6.7291259765625,1.5716552734375,21.30126953125
14.6699999,6.610390663146973,-7.347805023193359,1.0797849893569946,5.523681640625,0.9765625,21.3623046875
14.6899999,6.557718276977539,-7.41484260559082,1.070208191871643,7.1563720703125,1.64794921875,20.843505859375
14.709999900000001,6.5050458908081055,-7.47230339050293,1.0869675874710083,10.6353759765625,5.4168701171875,20.843505859375
14.729999900000001,6.435614109039307,-7.501033782958984,1.070208191871643,15.7012939453125,1.8157958984375,20.477294921875
14.7499999,6.368576526641846,-7.524975776672363,1.1109095811843872,8.575439453125,2.9296875,21.1944580078125
14.7699999,6.291962146759033,-7.553706169128418,1.115697979927063,10.25390625,2.4871826171875,21.636962890625
14.789999900000002,6.22731876373291,-7.5968017578125,1.1324573755264282,8.056640625,5.7525634765625,20.8282470703125
14.809999900000001,6.174646377563477,-7.668628215789795,1.139639973640442,3.5400390625,5.5694580078125,20.6146240234375
14.8299999,6.129156112670898,-7.762001991271973,1.1492167711257935,0.2899169921875,5.9814453125,20.3704833984375
14.8499999,6.090848922729492,-7.850587368011475,1.2066776752471924,3.4942626953125,9.185791015625,19.8211669921875
14.8699999,6.0405707359313965,-7.9415669441223145,1.3072341680526733,1.3885498046875,9.1552734375,19.3634033203125
14.889999900000001,5.980715751647949,-7.999027729034424,1.434126853942871,1.4801025390625,4.5318603515625,18.7835693359375
14.9099999,5.9088897705078125,-8.039729118347168,1.599326729774475,-0.5035400390625,2.8533935546875,19.04296875
14.9299999,5.825092792510986,-8.058882713317871,1.7046716213226318,1.922607421875,0.9765625,18.310546875
14.9499999,5.729324817657471,-8.054094314575195,1.723825216293335,4.8065185546875,-0.396728515625,16.4794921875
14.969999900000001,5.6191911697387695,-8.008605003356934,1.7046716213226318,3.204345703125,2.4871826171875,17.39501953125
14.9899999,5.504269599914551,-7.929595947265625,1.6041151285171509,7.1258544921875,2.593994140625,19.073486328125
15.0099999,5.367800235748291,-7.790732383728027,1.5418659448623657,6.8206787109375,4.119873046875,19.866943359375
15.0299999,5.243301868438721,-7.65186882019043,1.5155296325683594,8.8043212890625,5.523681640625,22.430419921875
15.049999900000001,5.1331682205200195,-7.5417351722717285,1.5442601442337036,9.9029541015625,4.45556640625,25.1007080078125
15.069999900000001,5.044582843780518,-7.474697589874268,1.577778935432434,7.01904296875,0.91552734375,25.421142578125
15.0899999,4.991910457611084,-7.491456985473633,1.580173134803772,7.3394775390625,0.8697509765625,26.336669921875
15.1099999,4.965574264526367,-7.568071365356445,1.5514427423477173,7.4005126953125,5.157470703125,28.5186767578125
15.129999900000001,4.9583916664123535,-7.702147006988525,1.4748282432556152,4.57763671875,5.889892578125,29.9530029296875
15.149999900000001,4.965574264526367,-7.8529815673828125,1.4269442558288574,6.561279296875,7.4920654296875,29.60205078125
15.1699999,4.9799394607543945,-8.039729118347168,1.381454348564148,9.8114013671875,7.9498291015625,30.8380126953125
15.1899999,5.0014872550964355,-8.267178535461426,1.3048399686813354,19.1497802734375,9.9029541015625,34.1033935546875
15.209999900000001,5.008669853210449,-8.47786808013916,1.3072341680526733,24.5361328125,20.782470703125,33.2183837890625
15.229999900000001,4.991910457611084,-8.681375503540039,1.3766659498214722,21.6217041015625,24.078369140625,30.609130859375
15.2499999,4.93923807144165,-8.856152534484863,1.53707754611969,20.1416015625,16.6015625,31.005859375
15.2699999,4.833893299102783,-8.927978515625,1.802833914756775,18.280029296875,14.129638671875,28.4423828125
15.289999900000002,4.692635536193848,-8.959102630615234,2.0207061767578125,11.77978515625,13.2293701171875,27.3284912109375
15.309999900000001,4.548983097076416,-8.968679428100586,2.22660756111145,3.5552978515625,11.505126953125,27.313232421875
15.3299999,4.417302131652832,-8.973467826843262,2.2242133617401123,7.2174072265625,6.195068359375,25.8026123046875
15.3499999,4.307168960571289,-8.990227699279785,2.2409727573394775,1.52587890625,10.5438232421875,23.5595703125
15.3699999,4.216189384460449,-8.978256225585938,2.1595699787139893,-0.6866455078125,14.1754150390625,21.6522216796875
15.389999900000001,4.125209331512451,-8.966285705566406,2.1308395862579346,-5.8441162109375,10.894775390625,23.040771484375
15.4099999,4.02465295791626,-8.937555313110352,2.1475989818573,-7.598876953125,7.476806640625,23.8037109375
15.4299999,3.93367338180542,-8.939949035644531,2.1499931812286377,-8.3160400390625,6.7138671875,22.2930908203125
15.4499999,3.8570590019226074,-8.99740982055664,2.1284453868865967,-14.892578125,10.284423828125,19.0277099609375
15.469999900000001,3.794809579849243,-9.047688484191895,2.1116859912872314,-22.2320556640625,12.0086669921875,15.472412109375
15.4899999,3.7469255924224854,-9.042900085449219,2.1116859912872314,-17.425537109375,9.6282958984375,14.892578125
15.5099999,3.6942532062530518,-8.99740982055664,2.231395959854126,-17.39501953125,4.2724609375,16.357421875
15.5299999,3.641580820083618,-8.951920509338379,2.343923568725586,-25.970458984375,-4.0130615234375,17.913818359375
15.549999900000001,3.6128504276275635,-8.990227699279785,2.3535003662109375,-20.9808349609375,-12.14599609375,18.8446044921875
15.569999900000001,3.6152446269989014,-9.126696586608887,2.2697031497955322,-12.9547119140625,-4.8828125,17.669677734375
15.5899999,3.643975019454956,-9.339780807495117,2.006340980529785,-5.7525634765625,-0.6561279296875,16.29638671875
15.6099999,3.663128614425659,-9.512163162231445,1.800439715385437,-2.105712890625,5.126953125,15.0146484375
15.629999900000001,3.646369218826294,-9.605537414550781,1.6400281190872192,-0.3814697265625,3.692626953125,14.5263671875
15.649999900000001,3.579331636428833,-9.588777542114258,1.5849615335464478,-0.823974609375,0.5645751953125,14.8162841796875
15.6699999,3.4763808250427246,-9.493009567260742,1.6424223184585571,0.7476806640625,4.119873046875,15.350341796875
15.6899999,3.3734302520751953,-9.38048267364502,1.702277421951294,-0.18310546875,3.204345703125,15.625
15.709999900000001,3.294421434402466,-9.279925346374512,1.745373010635376,-2.2735595703125,-1.556396484375,15.655517578125
15.729999900000001,3.2417490482330322,-9.224859237670898,1.7621324062347412,-2.685546875,0.9613037109375,15.7623291015625
15.7499999,3.205836057662964,-9.208099365234375,1.7334020137786865,-4.3792724609375,3.7841796875,15.0909423828125
15.7699999,3.1699230670928955,-9.2033109664917,1.6927006244659424,-7.62939453125,3.7841796875,14.70947265625
15.789999900000002,3.1292216777801514,-9.246406555175781,1.6663644313812256,-5.462646484375,3.021240234375,15.9912109375
15.809999900000001,3.0789434909820557,-9.282320022583008,1.6855180263519287,-5.8441162109375,4.2724609375,15.3350830078125
15.8299999,3.023876667022705,-9.342175483703613,1.702277421951294,-8.8958740234375,3.1890869140625,14.617919921875
15.8499999,2.9712042808532715,-9.402029991149902,1.7477672100067139,-6.9732666015625,2.899169921875,15.13671875
15.869999900000002,2.911349296569824,-9.44752025604248,1.7621324062347412,-6.7138671875,1.4190673828125,14.7247314453125
15.889999900000001,2.8562827110290527,-9.478644371032715,1.7597382068634033,-6.2103271484375,1.0986328125,14.068603515625
15.9099999,2.7988216876983643,-9.495404243469238,1.7118542194366455,-5.157470703125,2.74658203125,14.373779296875
15.9299999,2.7317841053009033,-9.488221168518066,1.644816517829895,-5.43212890625,4.0283203125,14.2974853515625
15.9499999,2.669534921646118,-9.457097053527832,1.5921441316604614,-4.150390625,5.5999755859375,14.617919921875
15.969999900000001,2.585737943649292,-9.399636268615723,1.5514427423477173,-2.7923583984375,3.72314453125,15.7470703125
15.9899999,2.5067291259765625,-9.35654067993164,1.5466543436050415,-1.3885498046875,3.448486328125,17.669677734375
16.0099999,2.4229321479797363,-9.315838813781738,1.525106430053711,-1.9378662109375,3.326416015625,17.7154541015625
16.0299999,2.3487119674682617,-9.313444137573242,1.5203180313110352,-3.0364990234375,4.5623779296875,16.6015625
16.0499999,2.2888567447662354,-9.32541561126709,1.5059528350830078,-5.7373046875,4.150390625,16.0064697265625
16.0699999,2.248155355453491,-9.373299598693848,1.5155296325683594,-6.1492919921875,3.021240234375,17.2882080078125
16.089999900000002,2.2194249629974365,-9.418789863586426,1.5490485429763794,-1.5716552734375,3.4942626953125,17.0440673828125
16.109999900000002,2.2194249629974365,-9.550470352172852,1.5514427423477173,-1.6326904296875,0.640869140625,17.6544189453125
16.1299999,2.233790159225464,-9.696516990661621,1.5634137392044067,-10.986328125,1.3275146484375,14.892578125
16.1499999,2.2601263523101807,-9.885659217834473,1.5298948287963867,-11.810302734375,2.2430419921875,13.2904052734375
16.1699999,2.2864625453948975,-10.091560363769531,1.4963760375976562,-14.0380859375,2.410888671875,13.4124755859375
16.1899999,2.298433542251587,-10.249577522277832,1.4867992401123047,-22.857666015625,1.7852783203125,11.566162109375
16.2099999,2.276885747909546,-10.345345497131348,1.482010841369629,-25.1312255859375,-0.30517578125,9.0789794921875
16.2299999,2.2457611560821533,-10.38604736328125,1.4532804489135742,-23.529052734375,-3.692626953125,9.8876953125
16.249999900000002,2.1978771686553955,-10.383652687072754,1.357512354850769,-18.798828125,-3.4027099609375,8.758544921875
16.269999900000002,2.142810583114624,-10.340557098388672,1.2401964664459229,-12.51220703125,2.2125244140625,5.401611328125
16.2899999,2.0805611610412598,-10.271124839782715,1.1085153818130493,-4.8065185546875,5.1116943359375,3.0670166015625
16.3099999,2.006340980529785,-10.134655952453613,1.05105459690094,-6.6375732421875,1.8157958984375,4.119873046875
16.3299999,1.9177556037902832,-9.947908401489258,1.039083480834961,-3.72314453125,-1.2359619140625,5.9967041015625
16.3499999,1.8339585065841675,-9.744400978088379,1.0654197931289673,1.2969970703125,-0.7171630859375,9.7198486328125
16.3699999,1.7549498081207275,-9.57441234588623,1.0749965906143188,-1.9378662109375,-0.701904296875,11.016845703125
16.3899999,1.6927006244659424,-9.433155059814453,1.0630255937576294,-5.9051513671875,-0.7781982421875,13.031005859375
16.4099999,1.6352397203445435,-9.363722801208496,1.0271124839782715,-7.598876953125,-2.9296875,15.869140625
16.429999900000002,1.5705963373184204,-9.390059471130371,0.9744400978088379,-9.033203125,-0.3204345703125,19.22607421875
16.4499999,1.5155296325683594,-9.502586364746094,0.8571242094039917,-5.615234375,1.2359619140625,17.8985595703125
16.4699999,1.4508862495422363,-9.670180320739746,0.7829039692878723,-7.3699951171875,6.1187744140625,12.847900390625
16.4899999,1.3886369466781616,-9.81143856048584,0.7565677165985107,-10.467529296875,7.62939453125,11.0321044921875
16.5099999,1.338358759880066,-9.897629737854004,0.8212111592292786,-6.988525390625,3.0517578125,13.18359375
16.5299999,1.2761094570159912,-9.871294021606445,0.9552865028381348,-8.7738037109375,-1.7242431640625,11.6119384765625
16.5499999,1.2497732639312744,-9.864110946655273,1.0773907899856567,-8.0108642578125,-5.584716796875,11.77978515625
16.5699999,1.235408067703247,-9.849745750427246,1.0678139925003052,-1.03759765625,-7.0037841796875,9.8114013671875
16.589999900000002,1.2521674633026123,-9.86889934539795,0.993593692779541,-1.861572265625,-3.2958984375,5.401611328125
16.609999900000002,1.2641384601593018,-9.876082420349121,0.8307880163192749,-1.89208984375,-2.3956298828125,4.3792724609375
16.6299999,1.2689268589019775,-9.854534149169922,0.706289529800415,-3.509521484375,-0.457763671875,3.7994384765625
16.6499999,1.2497732639312744,-9.78989028930664,0.6344634294509888,-2.3651123046875,-1.8310546875,4.39453125
16.6699999,1.2234370708465576,-9.744400978088379,0.6105214357376099,-0.4730224609375,-2.01416015625,4.7607421875
16.6899999,1.2018892765045166,-9.715670585632324,0.6224924325942993,-1.9073486328125,-0.4119873046875,4.364013671875
16.7099999,1.1827356815338135,-9.732429504394531,0.6224924325942993,-5.18798828125,-0.6561279296875,4.08935546875
16.7299999,1.170764684677124,-9.770736694335938,0.6392518281936646,-5.8135986328125,0.9765625,4.2724609375
16.749999900000002,1.161187767982483,-9.830592155456543,0.6488286852836609,-6.28662109375,1.0528564453125,5.5694580078125
16.769999900000002,1.161187767982483,-9.90241813659668,0.6775590777397156,-4.150390625,1.9378662109375,5.035400390625
16.7899999,1.1563993692398071,-9.959878921508789,0.6919242739677429,-4.2572021484375,0.6866455078125,2.7923583984375
16.8099999,1.1563993692398071,-10.007762908935547,0.7110779285430908,-7.01904296875,0.030517578125,3.4332275390625
16.8299999,1.1492167711257935,-10.02691650390625,0.6943184733390808,-8.5296630859375,-1.6021728515625,3.72314453125
16.8499999,1.139639973640442,-10.022128105163574,0.6560112833976746,-9.429931640625,-1.89208984375,3.1585693359375
16.8699999,1.1300631761550903,-10.014945983886719,0.6009446382522583,-11.9476318359375,-1.0528564453125,1.983642578125
16.8899999,1.1180921792984009,-9.986215591430664,0.5578489899635315,-12.4053955078125,-1.434326171875,1.1444091796875
16.9099999,1.113303780555725,-9.962273597717285,0.5219359993934631,-3.936767578125,-2.01416015625,0.3662109375
16.929999900000002,1.1061211824417114,-9.911994934082031,0.4908113479614258,0.42724609375,-2.9754638671875,-0.3509521484375
16.9499999,1.1013327836990356,-9.86889934539795,0.45489832758903503,-4.0740966796875,-1.983642578125,-0.701904296875
16.9699999,1.0893617868423462,-9.804255485534668,0.4118026793003082,-5.8746337890625,-1.28173828125,-0.3509521484375
16.9899999,1.070208191871643,-9.751583099365234,0.3758896589279175,-9.796142578125,-3.631591796875,2.1209716796875
17.0099999,1.048660397529602,-9.696516990661621,0.3663128614425659,-12.14599609375,-5.2947998046875,2.4566650390625
17.0299999,1.0223240852355957,-9.66539192199707,0.33518823981285095,-20.355224609375,-7.4005126953125,3.143310546875
17.0499999,1.0055646896362305,-9.677363395690918,0.3016694188117981,-24.3682861328125,-6.622314453125,4.302978515625
17.0699999,0.9888052940368652,-9.718064308166504,0.2082955539226532,-10.3302001953125,-3.4942626953125,2.838134765625
17.089999900000002,0.9768342971801758,-9.780313491821289,0.1364694982767105,-0.640869140625,0.5035400390625,0.518798828125
17.109999900000002,0.9672574996948242,-9.852140426635742,0.05746084079146385,-5.2337646484375,-0.6866455078125,-0.2593994140625
17.1299999,0.9624691009521484,-9.885659217834473,-0.002394201699644327,-7.232666015625,-0.9613037109375,-0.579833984375
17.1499999,0.9624691009521484,-9.895236015319824,-0.016759412363171577,-7.6446533203125,1.0528564453125,-0.2899169921875
17.1699999,0.9648633003234863,-9.8784761428833,-0.009576806798577309,-1.007080078125,3.173828125,-0.091552734375
17.1899999,0.9720458984375,-9.86889934539795,0.002394201699644327,7.32421875,1.9378662109375,-0.579833984375
17.2099999,0.9720458984375,-9.828198432922363,0.035913024097681046,10.345458984375,3.082275390625,-2.5634765625
17.2299999,0.9648633003234863,-9.782708168029785,0.08379705995321274,7.9803466796875,4.5928955078125,-1.007080078125
17.249999900000002,0.9624691009521484,-9.744400978088379,0.14365209639072418,5.37109375,3.1280517578125,0.6561279296875
17.269999900000002,0.9696516990661621,-9.739612579345703,0.22026655077934265,1.9989013671875,-0.4730224609375,1.2359619140625
17.2899999,0.9959878921508789,-9.77791976928711,0.2537853717803955,9.6435546875,-0.8392333984375,-1.190185546875
17.3099999,1.0127472877502441,-9.835380554199219,0.2537853717803955,6.8359375,1.5411376953125,-2.62451171875
17.3299999,1.0414776802062988,-9.880870819091797,0.22744916379451752,3.9520263671875,3.6468505859375,-1.0986328125
17.3499999,1.0295066833496094,-9.904812812805176,0.19393034279346466,6.2408447265625,1.4190673828125,-0.1220703125
17.3699999,1.0295066833496094,-9.923966407775879,0.1364694982767105,0.0457763671875,-1.4495849609375,0.06103515625
17.3899999,1.0199298858642578,-9.93354320526123,0.16998831927776337,-2.74658203125,5.950927734375,-2.777099609375
17.409999900000003,1.0199298858642578,-9.950302124023438,0.14365209639072418,11.1236572265625,4.8980712890625,-1.739501953125
17.429999900000002,1.0079588890075684,-9.950302124023438,0.21787235140800476,3.4332275390625,3.5400390625,-1.77001953125
17.4499999,1.0103530883789062,-9.938331604003906,0.3016694188117981,-0.91552734375,2.7618408203125,-1.9989013671875
17.4699999,1.0007762908935547,-9.890447616577148,0.3974374830722809,-2.74658203125,0.2593994140625,-1.4190673828125
17.4899999,1.0127472877502441,-9.876082420349121,0.4596867263317108,-5.0201416015625,-2.50244140625,1.190185546875
17.5099999,1.01753568649292,-9.804255485534668,0.49559974670410156,-1.1138916015625,-0.1373291015625,-1.9683837890625
17.5299999,1.0438719987869263,-9.799467086791992,0.47644615173339844,-6.1492919921875,-0.1983642578125,-0.8392333984375
17.5499999,1.05105459690094,-9.75397777557373,0.44532153010368347,-10.345458984375,-1.312255859375,-1.9989013671875
17.5699999,1.072602391242981,-9.75637149810791,0.45250412821769714,-13.00048828125,-0.823974609375,1.3580322265625
17.589999900000002,1.0821791887283325,-9.758766174316406,0.3902548849582672,2.7313232421875,-8.3770751953125,0.0152587890625
17.609999900000002,1.1037269830703735,-9.751583099365234,0.33279404044151306,9.765625,-9.27734375,-1.9073486328125
17.6299999,1.1276689767837524,-9.785101890563965,0.2585737705230713,1.40380859375,-1.861572265625,0.5035400390625
17.6499999,1.137245774269104,-9.770736694335938,0.15083470940589905,2.1514892578125,-3.8909912109375,-0.457763671875
17.6699999,1.1204863786697388,-9.751583099365234,0.1843535304069519,4.852294921875,-3.3416748046875,-2.2125244140625
17.6899999,1.0893617868423462,-9.718064308166504,0.15801730751991272,8.941650390625,-6.439208984375,0.54931640625
17.7099999,1.0271124839782715,-9.670180320739746,0.2753331959247589,-7.7667236328125,-3.9825439453125,3.753662109375
17.7299999,0.9959878921508789,-9.706093788146973,0.35434186458587646,-2.5634765625,-3.5858154296875,6.04248046875
17.749999900000002,0.9672574996948242,-9.710882186889648,0.3734954595565796,13.9617919921875,-6.744384765625,1.7547607421875
17.769999900000002,0.9911994934082031,-9.806650161743164,0.40701428055763245,0.1068115234375,-4.9591064453125,1.0223388671875
17.7899999,1.0271124839782715,-9.832986831665039,0.304063618183136,-4.2877197265625,-0.67138671875,-0.1068115234375
17.8099999,1.0749965906143188,-9.830592155456543,0.15562310814857483,2.166748046875,-1.3885498046875,-0.54931640625
17.8299999,1.094150185585022,-9.742006301879883,0.06224924325942993,-6.0577392578125,3.7078857421875,-1.983642578125
17.8499999,1.1037269830703735,-9.655815124511719,-0.043095629662275314,-12.2833251953125,0.8087158203125,3.021240234375
17.8699999,1.0989385843276978,-9.550470352172852,-0.07661445438861847,-13.3056640625,0.5645751953125,3.8299560546875
17.8899999,1.091755986213684,-9.516951560974121,-0.11971008777618408,-8.392333984375,2.166748046875,2.4261474609375
17.909999900000003,1.0869675874710083,-9.533711433410645,-0.1173158809542656,-0.762939453125,7.354736328125,2.1820068359375
17.929999900000002,1.0654197931289673,-9.57201862335205,-0.1173158809542656,-2.74658203125,6.561279296875,2.960205078125
17.9499999,1.0295066833496094,-9.619902610778809,-0.10534487664699554,-3.173828125,3.0517578125,4.241943359375
17.9699999,0.993593692779541,-9.672574996948242,-0.05267243832349777,-10.8795166015625,4.57763671875,3.753662109375
17.9899999,0.9648633003234863,-9.737217903137207,-0.028730420395731926,-5.8135986328125,4.8065185546875,3.2958984375
18.0099999,0.9433154463768005,-9.804255485534668,-0.002394201699644327,-0.030517578125,3.692626953125,2.838134765625
18.0299999,0.9241618514060974,-9.8784761428833,0.021547814831137657,-1.9378662109375,4.5623779296875,2.9144287109375
18.0499999,0.9002198576927185,-9.943120002746582,0.019153613597154617,0.5340576171875,5.5694580078125,3.0975341796875
18.0699999,0.8786720037460327,-10.029311180114746,0.019153613597154617,-0.701904296875,7.8125,4.2572021484375
18.089999900000002,0.8523358106613159,-10.070012092590332,0.05985504388809204,-3.0517578125,8.9263916015625,0.1220703125
18.109999900000002,0.8355764150619507,-10.08437728881836,0.1412578970193863,-2.2430419921875,6.2713623046875,-0.823974609375
18.1299999,0.8331822156906128,-10.043676376342773,0.24660277366638184,-6.0882568359375,1.6326904296875,2.62451171875
18.1499999,0.8427590131759644,-9.93354320526123,0.31364041566848755,-10.009765625,-1.739501953125,1.708984375
18.1699999,0.8643068075180054,-9.821015357971191,0.2944868206977844,-8.7890625,-2.4261474609375,2.3651123046875
18.1899999,0.8954314589500427,-9.742006301879883,0.1604115068912506,-0.8087158203125,-0.762939453125,3.570556640625
18.2099999,0.9074024558067322,-9.730035781860352,0.004788403399288654,-4.241943359375,2.5177001953125,3.47900390625
18.2299999,0.8978256583213806,-9.758766174316406,-0.1388636976480484,-9.4757080078125,2.2735595703125,0.640869140625
18.249999900000002,0.8667010068893433,-9.825803756713867,-0.21308395266532898,-9.09423828125,-0.4119873046875,1.3885498046875
18.269999900000002,0.8188169598579407,-9.885659217834473,-0.22744916379451752,-5.859375,-1.2054443359375,3.173828125
18.2899999,0.7852981686592102,-9.938331604003906,-0.24420857429504395,-2.62451171875,-1.0528564453125,2.5482177734375
18.3099999,0.7637503147125244,-9.979032516479492,-0.24899697303771973,-1.068115234375,2.3956298828125,2.3651123046875
18.3299999,0.7469909191131592,-10.014945983886719,-0.20350714027881622,-6.134033203125,1.9073486328125,1.220703125
18.3499999,0.7565677165985107,-10.022128105163574,-0.2777273952960968,5.584716796875,-4.241943359375,1.8157958984375
18.3699999,0.7661445140838623,-10.002974510192871,-0.2298433631658554,-11.7950439453125,-0.4425048828125,2.105712890625
18.3899999,0.7757213711738586,-9.967061996459961,-0.2585737705230713,-1.739501953125,6.439208984375,-1.922607421875
18.409999900000003,0.8068459630012512,-9.928754806518555,-0.2849099934101105,4.8675537109375,-1.678466796875,0.701904296875
18.429999900000002,0.8212111592292786,-9.897629737854004,-0.2082955539226532,6.866455078125,0.54931640625,-0.1068115234375
18.4499999,0.8307880163192749,-9.86650562286377,-0.272938996553421,11.77978515625,-3.448486328125,-1.007080078125
18.4699999,0.8403648138046265,-9.856928825378418,-0.26096799969673157,-3.0059814453125,1.6937255859375,-0.8392333984375
18.4899999,0.8236053586006165,-9.801861763000488,-0.2082955539226532,-3.7994384765625,4.974365234375,-2.6092529296875
18.5099999,0.8140285611152649,-9.797073364257812,-0.1604115068912506,17.15087890625,-3.8299560546875,0.457763671875
18.5299999,0.7781155705451965,-9.6989107131958,0.07422025501728058,17.9595947265625,-5.67626953125,-0.5035400390625
18.5499999,0.7493851184844971,-9.63187313079834,0.28969839215278625,27.2674560546875,-9.124755859375,-0.18310546875
18.5699999,0.7350199222564697,-9.619902610778809,0.37828385829925537,62.6983642578125,-18.341064453125,9.8724365234375
18.589999900000002,0.7350199222564697,-9.658209800720215,0.38546648621559143,60.9283447265625,-12.298583984375,6.77490234375
18.609999900000002,0.751779317855835,-9.768342971801758,0.24899697303771973,29.0679931640625,-2.7313232421875,-1.3427734375
18.6299999,0.7781155705451965,-9.880870819091797,0.11013327538967133,12.02392578125,1.0986328125,-1.312255859375
18.6499999,0.7781155705451965,-9.921571731567383,0.0933738648891449,6.2713623046875,1.953125,1.4801025390625
18.6699999,0.7852981686592102,-9.938331604003906,0.21547815203666687,7.4462890625,1.007080078125,2.9296875
18.6899999,0.7709329724311829,-9.909601211547852,0.3471592366695404,14.007568359375,0.3814697265625,1.1444091796875
18.7099999,0.7781155705451965,-9.904812812805176,0.5123591423034668,2.01416015625,4.7454833984375,0.579833984375
18.7299999,0.7781155705451965,-9.86650562286377,0.6129156351089478,-8.331298828125,5.5084228515625,-0.8544921875
18.749999900000002,0.7924807667732239,-9.859322547912598,0.6751648783683777,-5.0201416015625,1.3885498046875,0.518798828125
18.769999900000002,0.8044517636299133,-9.835380554199219,0.7254431247711182,3.6163330078125,4.974365234375,0.7171630859375
18.7899999,0.8140285611152649,-9.828198432922363,0.7541735172271729,-0.06103515625,6.2408447265625,-0.54931640625
18.8099999,0.8164227604866028,-9.840168952941895,0.7493851184844971,-1.983642578125,3.8604736328125,0.457763671875
18.8299999,0.8068459630012512,-9.84256362915039,0.7206547260284424,5.55419921875,4.425048828125,0.1373291015625
18.8499999,0.790086567401886,-9.821015357971191,0.7182605266571045,5.7830810546875,7.75146484375,-1.9683837890625
18.8699999,0.7709329724311829,-9.797073364257812,0.7445967197418213,-4.913330078125,7.3394775390625,-1.220703125
18.8899999,0.7565677165985107,-9.775525093078613,0.7589619159698486,0.5340576171875,2.3651123046875,2.1820068359375
18.909999900000003,0.7493851184844971,-9.770736694335938,0.8236053586006165,1.2054443359375,2.3345947265625,1.77001953125
18.929999900000002,0.7493851184844971,-9.804255485534668,0.8667010068893433,-4.3487548828125,3.448486328125,-0.48828125
18.9499999,0.7709329724311829,-9.888052940368652,0.8930372595787048,1.617431640625,1.52587890625,0.1068115234375
18.9699999,0.7876923680305481,-9.945513725280762,0.8690952062606812,22.186279296875,2.4871826171875,-2.9296875
18.9899999,0.7996633648872375,-9.979032516479492,0.8595184087753296,18.8140869140625,5.3253173828125,-6.6680908203125
19.0099999,0.7972691655158997,-9.940725326538086,0.8690952062606812,2.3345947265625,7.2021484375,-4.8065185546875
19.0299999,0.7781155705451965,-9.859322547912598,0.9097966551780701,-0.3204345703125,0.8087158203125,-1.46484375
19.0499999,0.7637503147125244,-9.787496566772461,0.993593692779541,-1.6021728515625,-3.0517578125,1.800537109375
19.0699999,0.7589619159698486,-9.742006301879883,1.0342950820922852,2.3040771484375,-2.0294189453125,0.6103515625
19.089999900000002,0.7733271718025208,-9.746794700622559,1.0271124839782715,-1.434326171875,0.5035400390625,-1.9073486328125
19.109999900000002,0.7852981686592102,-9.768342971801758,0.9888052940368652,0.48828125,2.7313232421875,-0.8697509765625
19.1299999,0.7924807667732239,-9.765948295593262,0.9528923034667969,-2.3040771484375,0.2593994140625,-1.46484375
19.1499999,0.7924807667732239,-9.801861763000488,0.9361328482627869,8.0108642578125,1.0986328125,-1.251220703125
19.1699999,0.7852981686592102,-9.792284965515137,0.9433154463768005,7.049560546875,1.0986328125,-5.0201416015625
19.1899999,0.7852981686592102,-9.787496566772461,0.9385270476341248,0.6866455078125,0.1983642578125,1.068115234375
19.2099999,0.768538773059845,-9.734824180603027,0.9409212470054626,-1.28173828125,-0.5645751953125,0.7171630859375
19.2299999,0.7781155705451965,-9.72285270690918,0.9313444495201111,-4.57763671875,-2.044677734375,1.0223388671875
19.249999900000002,0.7781155705451965,-9.713275909423828,0.8882488012313843,0.457763671875,-1.1749267578125,1.190185546875
19.269999900000002,0.7829039692878723,-9.713275909423828,0.8690952062606812,-6.5460205078125,1.495361328125,-0.579833984375
19.2899999,0.7876923680305481,-9.720458984375,0.8451532125473022,-7.5225830078125,0.5340576171875,2.0294189453125
19.3099999,0.7805097699165344,-9.715670585632324,0.8427590131759644,-1.7547607421875,-1.9073486328125,2.9144287109375
19.3299999,0.7781155705451965,-9.739612579345703,0.8427590131759644,-4.5623779296875,-1.617431640625,2.3193359375
19.3499999,0.7829039692878723,-9.770736694335938,0.8068459630012512,-0.91552734375,0,1.9378662109375
19.3699999,0.790086567401886,-9.80904483795166,0.7445967197418213,-0.9918212890625,1.190185546875,1.3427734375
19.3899999,0.8020575642585754,-9.854534149169922,0.6919242739677429,-4.45556640625,2.197265625,2.0751953125
19.409999900000003,0.7948749661445618,-9.864110946655273,0.6703764796257019,-3.509521484375,3.509521484375,0.4730224609375
19.429999900000002,0.790086567401886,-9.876082420349121,0.6919242739677429,-4.69970703125,2.13623046875,0.457763671875
19.4499999,0.7781155705451965,-9.873687744140625,0.727837324142456,-1.4801025390625,0.7781982421875,2.8228759765625
19.4699999,0.768538773059845,-9.86650562286377,0.751779317855835,-0.8544921875,0.2899169921875,0.9002685546875
19.4899999,0.7661445140838623,-9.876082420349121,0.7374141216278076,2.86865234375,1.9989013671875,0.1220703125
19.5099999,0.7661445140838623,-9.8784761428833,0.7015010714530945,6.4239501953125,3.90625,-0.48828125
19.5299999,0.7661445140838623,-9.873687744140625,0.6775590777397156,8.7432861328125,5.615234375,-1.3275146484375
19.5499999,0.7661445140838623,-9.859322547912598,0.6823474764823914,7.6141357421875,4.150390625,-0.946044921875
19.5699999,0.7661445140838623,-9.84495735168457,0.727837324142456,4.6539306640625,2.838134765625,0.091552734375
19.589999900000002,0.7589619159698486,-9.816226959228516,0.7781155705451965,5.9814453125,2.899169921875,-0.4425048828125
19.609999900000002,0.7469909191131592,-9.77791976928711,0.8355764150619507,9.8876953125,4.150390625,-1.77001953125
19.6299999,0.7398083209991455,-9.761159896850586,0.8882488012313843,13.4429931640625,4.82177734375,-0.06103515625
19.6499999,0.730231523513794,-9.727641105651855,0.9289502501487732,22.6287841796875,5.5084228515625,-0.48828125
19.6699999,0.7206547260284424,-9.720458984375,1.0055646896362305,7.3089599609375,5.3558349609375,-1.220703125
19.6899999,0.7206547260284424,-9.706093788146973,1.0534487962722778,-0.579833984375,1.800537109375,0
19.7099999,0.7134721279144287,-9.703699111938477,1.0989385843276978,-4.57763671875,-1.190185546875,2.960205078125
19.7299999,0.7230489253997803,-9.706093788146973,1.1037269830703735,-8.36181640625,0.9765625,3.692626953125
19.749999900000002,0.730231523513794,-9.742006301879883,1.0797849893569946,-11.3067626953125,1.495361328125,2.74658203125
19.769999900000002,0.7445967197418213,-9.78989028930664,1.05105459690094,-6.8206787109375,2.655029296875,1.4801025390625
19.7899999,0.751779317855835,-9.816226959228516,1.0247182846069336,-4.150390625,0.7171630859375,-0.0457763671875
19.8099999,0.7637503147125244,-9.859322547912598,1.01753568649292,-5.1422119140625,0.1983642578125,3.0517578125
19.8299999,0.7613561153411865,-9.864110946655273,0.9911994934082031,2.0294189453125,1.251220703125,1.3580322265625
19.8499999,0.7805097699165344,-9.888052940368652,0.9672574996948242,0.152587890625,2.3193359375,1.2969970703125
19.8699999,0.8020575642585754,-9.921571731567383,0.9600749015808105,-0.4425048828125,3.6163330078125,0.4730224609375
19.8899999,0.8307880163192749,-9.955090522766113,0.9624691009521484,2.1514892578125,1.861572265625,-1.007080078125
19.909999900000003,0.8954314589500427,-10.012551307678223,0.9768342971801758,5.5999755859375,0.4730224609375,-0.8544921875
19.929999900000002,1.0271124839782715,-10.101137161254883,0.9911994934082031,1.9683837890625,1.5411376953125,-1.28173828125
19.9499999,1.2306196689605713,-10.326191902160645,1.0271124839782715,-5.584716796875,1.1138916015625,-0.18310546875
19.9699999,1.599326729774475,-10.843339920043945,1.0342950820922852,1.495361328125,-4.2877197265625,2.4261474609375
19.9899999,1.9943699836730957,-11.707646369934082,0.9241618514060974,32.501220703125,-2.6702880859375,-7.0648193359375
20.0099999,2.4372973442077637,-12.931083679199219,0.8954314589500427,15.5181884765625,12.6953125,-17.364501953125
20.0299999,2.7533318996429443,-14.302961349487305,1.0055646896362305,4.4403076171875,25.0244140625,-30.7464599609375
20.0499999,2.937685489654541,-15.576676368713379,1.434126853942871,5.889892578125,14.1143798828125,-32.5469970703125
20.0699999,3.0166940689086914,-16.546327590942383,2.0805611610412598,18.280029296875,-7.1563720703125,-38.726806640625
20.089999900000002,2.959233283996582,-17.063474655151367,2.609679937362671,0.335693359375,-22.5830078125,-62.8814697265625
20.109999900000002,2.87064790725708,-17.164031982421875,2.719813108444214,-18.49365234375,-26.30615234375,-77.5299072265625
20.1299999,2.719813108444214,-16.869544982910156,2.3750481605529785,-0.1983642578125,-7.598876953125,-85.9375
20.1499999,2.5115175247192383,-16.302120208740234,1.802833914756775,0.2288818359375,6.683349609375,-95.7183837890625
20.1699999,2.293645143508911,-15.626954078674316,1.2856862545013428,-0.48828125,5.9814453125,-103.6376953125
20.1899999,2.070984363555908,-14.966155052185059,0.9481038451194763,16.2353515625,1.7852783203125,-110.9771728515625
20.2099999,1.824381709098816,-14.326903343200684,0.7876923680305481,4.150390625,0.30517578125,-125.518798828125
20.2299999,1.580173134803772,-13.675680160522461,0.9002198576927185,-25.8331298828125,9.368896484375,-137.7105712890625
20.249999900000002,1.3718775510787964,-12.957419395446777,1.0845733880996704,-26.702880859375,4.0435791015625,-139.2822265625
20.269999900000002,1.1827356815338135,-12.009315490722656,1.2832920551300049,14.2669677734375,-9.6435546875,-143.8751220703125
20.2899999,1.1037269830703735,-11.027692794799805,1.5298948287963867,16.2811279296875,-4.69970703125,-146.026611328125
20.3099999,1.1348515748977661,-10.010157585144043,1.577778935432434,17.7764892578125,-4.39453125,-147.064208984375
20.3299999,1.3096283674240112,-9.040505409240723,1.4939818382263184,39.825439453125,-11.016845703125,-153.045654296875
20.3499999,1.5658079385757446,-8.219294548034668,1.3982137441635132,23.406982421875,-10.5133056640625,-154.205322265625
20.3699999,1.8962076902389526,-7.496245384216309,1.278503656387329,12.4664306640625,-7.568359375,-152.191162109375
20.3899999,2.250549554824829,-6.746860504150391,1.137245774269104,19.622802734375,-13.885498046875,-153.9154052734375
20.409999900000003,2.5665841102600098,-6.021417140960693,1.0821791887283325,30.670166015625,-4.08935546875,-146.8048095703125
20.429999900000002,2.9496564865112305,-5.276820659637451,1.1109095811843872,20.0347900390625,1.9073486328125,-130.9051513671875
20.4499999,3.3494882583618164,-4.575319290161133,1.05105459690094,29.1290283203125,-8.30078125,-130.9814453125
20.4699999,3.804386615753174,-4.07014274597168,0.9193734526634216,30.5328369140625,-5.3863525390625,-127.9754638671875
20.4899999,4.252102375030518,-3.6846764087677,0.5913678407669067,-7.781982421875,5.43212890625,-129.8828125
20.5099999,4.680664539337158,-3.2393548488616943,0.5315127968788147,-55.5877685546875,31.3568115234375,-132.781982421875
20.5299999,5.044582843780518,-2.738966703414917,0.6488286852836609,-51.9256591796875,22.125244140625,-119.0032958984375
20.5499999,5.372588634490967,-2.006340980529785,1.0558429956436157,-5.5389404296875,-7.1868896484375,-105.0262451171875
20.5699999,5.722142219543457,-1.292868971824646,1.4963760375976562,17.9443359375,-7.110595703125,-86.9140625
20.589999900000002,6.064512729644775,-0.7206547260284424,1.678335428237915,36.8194580078125,3.0059814453125,-69.1070556640625
20.609999900000002,6.4595561027526855,-0.395043283700943,1.5634137392044067,72.57080078125,7.26318359375,-61.3555908203125
20.6299999,6.845022678375244,-0.33518823981285095,1.3742717504501343,54.38232421875,-0.213623046875,-54.50439453125
