# Time (seconds),Accel_X,Accel_Y,Accel_Z,Gyro_X,Gyro_Y,Gyro_Z
0.0099999,6.821080684661865,-4.41969633102417,-4.489128112792969,140.7470703125,89.05029296875,-135.0250244140625
0.029999900000000003,6.62236213684082,-5.281609058380127,-4.869806289672852,189.544677734375,139.6484375,-97.869873046875
0.0499999,6.89530086517334,-5.647922039031982,-4.616020679473877,96.7864990234375,105.621337890625,4.364013671875
0.0699999,7.802703380584717,-5.233725070953369,-3.734954595565796,92.6361083984375,64.9261474609375,35.1104736328125
0.08999990000000001,8.789113998413086,-4.774038314819336,-2.7078421115875244,126.4495849609375,-0.5340576171875,9.6588134765625
0.10999990000000001,9.35893440246582,-4.180276393890381,-2.1523873805999756,119.6136474609375,0.91552734375,-8.5601806640625
0.1299999,9.059659004211426,-4.146757125854492,-2.1978771686553955,-29.6783447265625,27.1148681640625,9.033203125
0.14999990000000002,8.286332130432129,-4.170699596405029,-2.4444799423217773,-128.204345703125,53.22265625,11.7950439453125
0.1699999,7.659051418304443,-4.503493309020996,-2.559401512145996,-92.1173095703125,2.13623046875,12.8173828125
0.1899999,7.448361396789551,-5.035006046295166,-2.3247697353363037,-40.10009765625,-59.2041015625,-11.2457275390625
0.20999990000000002,7.560888767242432,-5.3342814445495605,-2.027888774871826,36.80419921875,-69.6258544921875,-42.8619384765625
0.2299999,7.920019149780273,-5.5329999923706055,-2.0853497982025146,117.0501708984375,-107.1624755859375,-23.193359375
0.2499999,7.802703380584717,-5.061342239379883,-2.5019407272338867,95.733642578125,-137.75634765625,16.754150390625
0.2699999,7.343016624450684,-4.302380561828613,-3.44765043258667,-2.2430419921875,-88.897705078125,19.195556640625
0.28999990000000003,6.892906665802002,-3.423708438873291,-4.37420654296875,-78.2318115234375,-55.35888671875,7.8277587890625
0.3099999,6.66785192489624,-2.449268341064453,-4.908113479614258,-143.37158203125,-95.2911376953125,42.022705078125
0.3299999,6.742072105407715,-2.078166961669922,-5.137956619262695,-103.0120849609375,-162.3992919921875,26.91650390625
0.34999990000000003,6.847416877746582,-2.1763293743133545,-5.149928092956543,36.19384765625,-185.11962890625,-5.645751953125
0.3699999,6.694188117980957,-2.6384103298187256,-4.932055473327637,139.5721435546875,-88.287353515625,-32.6385498046875
0.3899999,6.303933143615723,-3.2321722507476807,-5.295974254608154,195.7855224609375,-18.707275390625,-16.021728515625
0.40999990000000003,5.87776517868042,-3.7038300037384033,-5.123591423034668,65.9942626953125,8.72802734375,37.5213623046875
0.4299999,5.978321552276611,-4.256890773773193,-5.224148273468018,57.9833984375,10.9405517578125,14.5416259765625
0.4499999,6.356605529785156,-4.422090530395508,-4.8602294921875,31.494140625,-28.8238525390625,-23.1475830078125
0.4699999,6.75883150100708,-4.608838081359863,-4.235342979431152,-70.1904296875,-54.2144775390625,0.244140625
0.4899999,7.287950038909912,-4.469974517822266,-3.9695863723754883,-17.4102783203125,-32.684326171875,34.5306396484375
0.5099999,7.3885064125061035,-4.4939165115356445,-3.7660791873931885,30.3955078125,-67.7947998046875,35.4156494140625
0.5299999,7.252037048339844,-4.553771495819092,-4.141968727111816,38.5589599609375,-151.580810546875,8.97216796875
0.5499999,6.868964672088623,-5.070919036865234,-4.865017890930176,31.0821533203125,-153.6712646484375,2.62451171875
0.5699999,6.308721542358398,-5.485116004943848,-5.66228723526001,32.16552734375,-67.474365234375,27.7557373046875
0.5899998999999999,5.920860767364502,-5.894524574279785,-6.308721542358398,18.9666748046875,12.115478515625,43.304443359375
0.6099998999999999,5.925649166107178,-6.208165168762207,-6.682217121124268,9.8876953125,34.2864990234375,15.9454345703125
0.6299999,6.236895561218262,-6.303933143615723,-6.751648902893066,17.913818359375,-22.4456787109375,-15.2587890625
0.6499999,6.607996463775635,-6.246472358703613,-6.737283706665039,40.6341552734375,-75.1495361328125,4.547119140625
0.6699999,6.698976516723633,-5.987898349761963,-6.818686485290527,27.3284912109375,-78.4912109375,27.7252197265625
0.6899999,6.430825710296631,-5.623979568481445,-7.015010833740234,-22.552490234375,-99.5330810546875,49.37744140625
0.7099999,5.978321552276611,-5.288791656494141,-7.338228225708008,-48.553466796875,-122.6806640625,46.844482421875
0.7299998999999999,5.52821159362793,-5.157110691070557,-7.6566572189331055,-52.490234375,-121.5057373046875,8.819580078125
0.7499998999999999,5.0900726318359375,-5.1810526847839355,-7.881711959838867,-69.27490234375,-94.8333740234375,-28.5797119140625
0.7699999,4.680664539337158,-5.353435039520264,-8.042123794555664,-55.572509765625,-52.91748046875,-48.76708984375
0.7899999,4.225766181945801,-5.418078422546387,-8.097189903259277,-19.7601318359375,-25.2685546875,-28.80859375
0.8099999,3.780444383621216,-5.355829238891602,-8.11634349822998,5.279541015625,-13.6871337890625,-8.48388671875
0.8299999,3.3039982318878174,-5.07570743560791,-8.073247909545898,15.8538818359375,-9.033203125,-10.833740234375
0.8499998999999999,2.8347349166870117,-4.730942726135254,-7.999027729034424,27.0538330078125,-1.220703125,-25.87890625
0.8699998999999999,2.518700122833252,-4.371812343597412,-7.8098859786987305,30.76171875,3.6773681640625,-46.6766357421875
0.8899999,2.607285737991333,-3.8570590019226074,-7.407660007476807,5.92041015625,-9.0789794921875,-52.5360107421875
0.9099999,2.784456491470337,-3.8379054069519043,-7.060500621795654,-36.0260009765625,-69.39697265625,-10.2081298828125
0.9299999,3.2776620388031006,-3.818751811981201,-6.797138690948486,4.0130615234375,-131.744384765625,-0.54931640625
0.9499999,3.490746021270752,-4.244919776916504,-6.672640323638916,33.0657958984375,-144.7601318359375,12.847900390625
0.9699998999999999,3.3686418533325195,-4.702212333679199,-6.754043102264404,47.66845703125,-121.8414306640625,16.876220703125
0.9899998999999999,3.004723072052002,-4.93923807144165,-6.818686485290527,29.052734375,-70.3582763671875,24.1546630859375
1.0099999,2.5689783096313477,-4.989516258239746,-6.825869083404541,15.7470703125,-50.5218505859375,37.7044677734375
1.0299999,2.2242133617401123,-5.0254292488098145,-6.897695064544678,17.181396484375,-59.0057373046875,44.86083984375
1.0499999,2.0853497982025146,-5.324704647064209,-7.062894821166992,21.575927734375,-71.7010498046875,46.5545654296875
1.0699999,2.123656988143921,-5.901707172393799,-7.307103633880615,31.5704345703125,-65.338134765625,33.660888671875
1.0899999,2.2361843585968018,-6.596025466918945,-7.625532627105713,36.224365234375,-29.9835205078125,9.124755859375
1.1099999,2.322375535964966,-7.129932880401611,-7.905653953552246,25.2838134765625,0.1068115234375,-9.1400146484375
1.1299999,2.298433542251587,-7.333439826965332,-8.04930591583252,13.916015625,-2.44140625,-1.0223388671875
1.1499999,2.2218191623687744,-7.29034423828125,-8.085219383239746,16.7694091796875,-13.458251953125,32.6080322265625
1.1699998999999999,2.1164743900299072,-7.117961883544922,-7.9846625328063965,22.4456787109375,-4.6234130859375,38.0706787109375
1.1899998999999999,2.145204782485962,-7.132327079772949,-8.008605003356934,27.2064208984375,-0.9765625,33.8287353515625
1.2099999,2.1954829692840576,-6.900089263916016,-8.054094314575195,5.035400390625,27.069091796875,4.33349609375
1.2299999,2.2457611560821533,-6.670246124267578,-8.128314971923828,42.572021484375,56.8084716796875,-10.772705078125
1.2499999,2.315192937850952,-6.485892295837402,-8.061277389526367,38.421630859375,35.980224609375,17.5018310546875
1.2699999,2.2218191623687744,-6.150704383850098,-7.752425193786621,-29.937744140625,6.6986083984375,-2.197265625
1.2899999,2.1811177730560303,-6.066906929016113,-7.572859764099121,-44.647216796875,-18.1732177734375,-13.2904052734375
1.3099999,2.1595699787139893,-6.030993938446045,-7.548917770385742,-28.0609130859375,-11.932373046875,14.1143798828125
1.3299999,2.1140801906585693,-5.9088897705078125,-7.833827972412109,-38.9862060546875,5.035400390625,20.5535888671875
1.3499999,2.0877439975738525,-5.825092792510986,-8.233659744262695,-54.19921875,11.77978515625,14.2364501953125
1.3699999,2.0039467811584473,-5.722142219543457,-8.518569946289062,-42.0989990234375,18.798828125,18.3868408203125
1.3899999,1.8770540952682495,-5.564124584197998,-8.616731643676758,-49.1790771484375,26.1383056640625,30.029296875
1.4099999,1.7621324062347412,-5.319916248321533,-8.62391471862793,-67.5506591796875,22.125244140625,37.53662109375
1.4299998999999999,1.7262194156646729,-4.982333660125732,-8.65982723236084,-56.427001953125,19.287109375,46.9818115234375
1.4499999,1.6304513216018677,-4.630385875701904,-8.719682693481445,-35.9039306640625,48.0499267578125,49.5147705078125
1.4699999,1.5658079385757446,-4.395754337310791,-8.796297073364258,-59.5855712890625,77.4078369140625,39.5965576171875
1.4899999,1.4413094520568848,-4.189853191375732,-8.860940933227539,-77.728271484375,67.901611328125,33.416748046875
1.5099999,1.2713210582733154,-3.993528366088867,-8.724471092224121,-56.9305419921875,69.0460205078125,45.3338623046875
1.5299999,1.173158884048462,-3.869029998779297,-8.71489429473877,-30.242919921875,61.9659423828125,60.6536865234375
1.5499999,1.139639973640442,-3.7421371936798096,-8.808267593383789,-30.548095703125,60.7757568359375,64.51416015625
1.5699999,1.237802267074585,-3.6727054119110107,-9.155426979064941,-70.281982421875,67.8253173828125,58.28857421875
1.5899999,1.4460978507995605,-3.5458126068115234,-9.825803756713867,-112.457275390625,69.1375732421875,47.8363037109375
1.6099999,1.6639702320098877,-3.428496837615967,-10.448296546936035,-97.59521484375,84.6099853515625,52.5360107421875
1.6299999,1.8483237028121948,-3.3255462646484375,-11.025299072265625,-46.478271484375,101.0589599609375,58.7615966796875
1.6499999,1.965639591217041,-3.4404678344726562,-11.36048698425293,-21.026611328125,90.240478515625,72.2503662109375
1.6699999,2.2026655673980713,-3.9217023849487305,-11.45146656036377,-70.0836181640625,70.648193359375,81.0089111328125
1.6899998999999999,2.434903144836426,-4.05817174911499,-11.48259162902832,-126.617431640625,58.990478515625,74.0203857421875
1.7099999,2.7246015071868896,-4.156333923339844,-11.513715744018555,-121.15478515625,55.8013916015625,79.9407958984375
1.7299999,3.0550012588500977,-4.4723687171936035,-11.434707641601562,-99.822998046875,57.3577880859375,80.5511474609375
1.7499999,3.361459255218506,-4.836287498474121,-11.233593940734863,-122.833251953125,51.1932373046875,45.1812744140625
1.7699999,3.5170822143554688,-5.0014872550964355,-10.943896293640137,-127.01416015625,42.66357421875,16.2353515625
1.7899999,3.5913026332855225,-5.080495834350586,-10.96544361114502,-64.5294189453125,37.3687744140625,55.2978515625
1.8099999,3.490746021270752,-4.774038314819336,-11.133037567138672,-40.9393310546875,47.0123291015625,89.78271484375
1.8299999,3.315969467163086,-4.479551315307617,-11.382035255432129,-84.65576171875,56.8695068359375,77.301025390625
1.8499999,3.1459810733795166,-4.132391929626465,-11.382035255432129,-128.0975341796875,42.7093505859375,49.7894287109375
1.8699999,2.978386878967285,-3.6152446269989014,-11.02051067352295,-125.335693359375,31.402587890625,40.83251953125
1.8899999,2.8131868839263916,-2.8778305053710938,-10.575188636779785,-76.507568359375,26.2451171875,65.7196044921875
1.9099999,2.7006595134735107,-2.3032219409942627,-10.08198356628418,-44.3572998046875,39.6728515625,95.0927734375
1.9299998999999999,2.5258827209472656,-1.8962076902389526,-9.493009567260742,-57.43408203125,54.9774169921875,86.5478515625
1.9499999,2.389413356781006,-1.9512743949890137,-8.863334655761719,-56.94580078125,39.85595703125,79.6966552734375
1.9699999,2.229001760482788,-2.2026655673980713,-8.17380428314209,-62.2711181640625,14.251708984375,77.728271484375
1.9899999,2.2194249629974365,-2.604891538619995,-7.773972988128662,-77.8961181640625,4.1351318359375,72.906494140625
2.0099999,2.410961151123047,-2.75812029838562,-7.99184513092041,-69.000244140625,5.4779052734375,71.3348388671875
2.0299999,2.7485435009002686,-2.693476915359497,-8.427590370178223,-9.7808837890625,40.4815673828125,75.13427734375
2.0499999,3.1435868740081787,-2.2457611560821533,-8.944737434387207,-7.1563720703125,51.7730712890625,69.7021484375
2.0699999,3.4117374420166016,-1.6927006244659424,-9.066842079162598,-19.012451171875,34.5611572265625,72.9827880859375
2.0899999,3.5865142345428467,-1.4772224426269531,-8.635885238647461,-12.63427734375,30.8380126953125,77.4078369140625
2.1099999,3.5936968326568604,-1.2521674633026123,-7.869740962982178,-83.5418701171875,14.7247314453125,41.2750244140625
2.1299999,3.5960910320281982,-1.2617442607879639,-7.220912456512451,-182.5714111328125,-29.0374755859375,30.1513671875
2.1499999,3.536235809326172,-1.1492167711257935,-6.718130111694336,-140.7318115234375,-38.5284423828125,53.680419921875
2.1699999,3.4380736351013184,-0.8882488012313843,-6.426037311553955,-74.2340087890625,-14.984130859375,56.4117431640625
2.1899999,3.361459255218506,-0.5937620401382446,-6.461950302124023,-89.019775390625,-53.2379150390625,45.3948974609375
2.2099999,3.3925838470458984,-0.42616790533065796,-6.6630635261535645,-112.3046875,-85.8612060546875,28.1982421875
2.2299999,3.3063924312591553,-0.0933738648891449,-7.314286231994629,-111.541748046875,-73.6236572265625,6.866455078125
2.2499999,3.3255462646484375,0.4572925269603729,-8.224082946777344,-165.283203125,-49.4384765625,16.021728515625
2.2699999,3.220201253890991,0.9959878921508789,-9.071630477905273,-184.14306640625,-17.6849365234375,44.1436767578125
2.2899999,3.181894063949585,1.5298948287963867,-9.651026725769043,-163.0401611328125,-24.2919921875,43.487548828125
2.3099999,3.181894063949585,1.8770540952682495,-9.440337181091309,-153.50341796875,-11.688232421875,31.1126708984375
2.3299999,3.2297780513763428,1.9297266006469727,-8.698134422302246,-149.0936279296875,-3.448486328125,22.88818359375
2.3499999,3.184288263320923,1.9105730056762695,-7.675810813903809,-116.6534423828125,-12.20703125,13.824462890625
2.3699999,3.0813376903533936,2.0446481704711914,-6.691793918609619,-129.2724609375,-14.190673828125,11.962890625
2.3899999,2.9161376953125,2.3511061668395996,-5.9304375648498535,-98.785400390625,4.3487548828125,28.3966064453125
2.4099999,2.889801502227783,2.942473888397217,-5.750872611999512,-52.2918701171875,3.8299560546875,13.031005859375
2.4299999,2.6001031398773193,3.5721490383148193,-5.461174011230469,-114.0899658203125,-39.6881103515625,-77.1026611328125
2.4499999,2.2888567447662354,3.8067808151245117,-5.6910176277160645,-131.1492919921875,-115.17333984375,-59.967041015625
2.4699999,1.922544002532959,3.5170822143554688,-5.602431774139404,-18.9056396484375,-18.73779296875,40.52734375
2.4899999,1.5753847360610962,3.0166940689086914,-5.9519853591918945,-20.4010009765625,-19.34814453125,8.0413818359375
2.5099999,1.4652514457702637,2.360682964324951,-6.011840343475342,-54.8858642578125,-49.74365234375,-26.5655517578125
2.5299999,1.6424223184585571,2.030282974243164,-6.1267619132995605,-31.9976806640625,-120.4833984375,-24.200439453125
2.5499999,1.7884687185287476,2.126051187515259,-6.256049156188965,11.8560791015625,-114.2120361328125,-40.6951904296875
2.5699999,1.9800047874450684,2.3702597618103027,-6.801927089691162,74.4476318359375,-51.910400390625,-18.707275390625
2.5899999,2.1356279850006104,2.8993782997131348,-7.68538761138916,85.6781005859375,-0.1068115234375,10.528564453125
2.6099999,2.2912509441375732,3.4404678344726562,-8.796297073364258,34.0728759765625,27.618408203125,5.0811767578125
2.6299999,2.4229321479797363,4.156333923339844,-9.742006301879883,13.7786865234375,31.6162109375,-5.0201416015625
2.6499999,2.612074136734009,4.726154327392578,-10.321403503417969,51.0101318359375,37.53662109375,1.129150390625
2.6699999,2.8179752826690674,4.982333660125732,-10.460267066955566,77.0721435546875,50.6744384765625,17.51708984375
2.6899999,3.0526070594787598,4.853046894073486,-10.244789123535156,63.507080078125,55.2825927734375,14.3280029296875
2.7099999,3.335123062133789,4.489128112792969,-9.847352027893066,55.908203125,29.9530029296875,-0.9918212890625
2.7299999,3.6607344150543213,3.998316764831543,-9.373299598693848,74.0966796875,12.176513671875,-0.5645751953125
2.7499999,3.892971992492676,3.6511576175689697,-8.851364135742188,68.145751953125,29.35791015625,-8.1787109375
2.7699999,4.022258758544922,3.28963303565979,-8.461109161376953,70.6787109375,33.69140625,-13.48876953125
2.7899999,3.9887399673461914,2.7940332889556885,-8.109161376953125,44.403076171875,22.8271484375,-15.594482421875
2.8099999,3.773261785507202,2.319981336593628,-7.814674377441406,-5.4168701171875,18.402099609375,-35.8428955078125
2.8299999,3.4955344200134277,1.9488801956176758,-7.613561630249023,23.3917236328125,22.705078125,-30.548095703125
2.8499999,3.095702886581421,1.845929503440857,-7.659051418304443,80.047607421875,7.50732421875,-13.397216796875
2.8699999,2.669534921646118,1.8124107122421265,-8.010998725891113,142.5933837890625,-17.02880859375,30.3192138671875
2.8899999,2.4875755310058594,1.5179238319396973,-8.757989883422852,152.6641845703125,-3.204345703125,68.6187744140625
2.9099999,2.4444799423217773,1.0797849893569946,-9.581595420837402,100.006103515625,42.510986328125,19.3939208984375
2.9299999,2.5474305152893066,0.6631938815116882,-10.053253173828125,92.6055908203125,46.295166015625,-40.802001953125
2.9499999,2.801215887069702,0.31842881441116333,-10.230423927307129,84.5794677734375,1.64794921875,-31.8145751953125
2.9699999,2.9017724990844727,0.31364041566848755,-9.816226959228516,70.7855224609375,-17.578125,-19.04296875
2.9899999,3.023876667022705,0.24420857429504395,-9.459490776062012,78.4454345703125,4.21142578125,-22.9339599609375
3.0099999,3.1268274784088135,0.24899697303771973,-9.442731857299805,72.906494140625,-8.544921875,-31.5704345703125
3.0299999,3.181894063949585,0.22266076505184174,-9.66539192199707,16.3726806640625,2.5177001953125,-39.0472412109375
3.0499999,3.2800562381744385,0.19393034279346466,-10.213664054870605,-26.3671875,20.4925537109375,-25.1617431640625
3.0699999,3.3279404640197754,0.19871874153614044,-10.496180534362793,6.103515625,37.5823974609375,-24.2156982421875
3.0899999,3.4165258407592773,0.16998831927776337,-10.582371711730957,26.6265869140625,41.2445068359375,-27.069091796875
3.1099999,3.485957622528076,0.20111294090747833,-10.47702693939209,7.26318359375,16.2811279296875,-23.8800048828125
3.1299999,3.5625722408294678,0.3758896589279175,-10.256759643554688,-38.4521484375,8.636474609375,-21.3165283203125
3.1499999,3.624821424484253,0.8068459630012512,-10.11789608001709,-78.9947509765625,7.9498291015625,-28.7322998046875
3.1699999,3.6966474056243896,1.3623007535934448,-10.053253173828125,-33.9813232421875,8.6669921875,-17.730712890625
3.1899999,3.7852327823638916,1.8315643072128296,-9.818621635437012,33.69140625,18.0816650390625,10.80322265625
3.2099999,3.821146011352539,1.9488801956176758,-9.437943458557129,21.4996337890625,20.355224609375,12.359619140625
3.2299999,3.869029998779297,1.6855180263519287,-9.14345645904541,-97.7935791015625,6.40869140625,-22.9339599609375
3.2499999,3.845088005065918,1.4413094520568848,-8.913613319396973,-165.9698486328125,7.4615478515625,-52.8106689453125
3.2699999,3.801992416381836,1.5107412338256836,-8.956708908081055,-103.94287109375,20.1263427734375,-24.169921875
3.2899999,3.77565598487854,1.800439715385437,-8.978256225585938,-46.6766357421875,31.3568115234375,15.533447265625
3.3099999,3.7469255924224854,2.341529369354248,-8.908824920654297,-58.0902099609375,17.3492431640625,2.7618408203125
3.3299999000000002,3.8307228088378906,2.760514497756958,-8.777143478393555,-62.469482421875,-12.87841796875,-12.3748779296875
3.3499999,3.912125587463379,2.892195701599121,-8.429984092712402,8.8653564453125,-6.53076171875,9.521484375
3.3699999,3.9887399673461914,2.8131868839263916,-8.221688270568848,61.370849609375,7.4615478515625,18.6004638671875
3.3899999,3.9839515686035156,2.5067291259765625,-8.125920295715332,74.951171875,7.0953369140625,8.758544921875
3.4099999,3.912125587463379,2.0422539710998535,-8.111555099487305,58.5784912109375,16.937255859375,7.6141357421875
3.4299999,3.8307228088378906,1.702277421951294,-8.35336971282959,15.4266357421875,16.7388916015625,11.322021484375
3.4499999,3.7684733867645264,1.6136919260025024,-8.755595207214355,-1.678466796875,9.5367431640625,14.4195556640625
3.4699999,3.7277719974517822,1.7764976024627686,-9.038111686706543,44.281005859375,20.5535888671875,22.7203369140625
3.4899999,3.7828385829925537,1.9057846069335938,-9.241618156433105,4.08935546875,13.824462890625,16.7388916015625
3.5099999,3.8762125968933105,2.0374655723571777,-9.375694274902344,-101.3946533203125,-14.862060546875,-6.0882568359375
3.5299999,3.914519786834717,1.9967641830444336,-9.23682975769043,-49.4842529296875,-6.683349609375,1.77001953125
3.5499999,3.9695863723754883,1.900996208190918,-9.100360870361328,41.0614013671875,8.0413818359375,27.374267578125
3.5699999,3.998316764831543,1.8076223134994507,-8.959102630615234,45.9747314453125,-7.110595703125,21.9268798828125
3.5899999,4.003105163574219,1.7094600200653076,-8.650250434875488,49.6978759765625,1.983642578125,1.9683837890625
3.6099999,4.079719543457031,1.6543933153152466,-8.588001251220703,108.8104248046875,5.06591796875,0.67138671875
3.6299999,4.151545524597168,1.7046716213226318,-8.53532886505127,122.1923828125,3.7384033203125,10.711669921875
3.6499999,4.177882194519043,1.6352397203445435,-8.494627952575684,37.7349853515625,2.0294189453125,1.5411376953125
3.6699999,4.1395745277404785,1.5083470344543457,-8.516175270080566,3.7689208984375,-20.2789306640625,-10.3759765625
3.6899999,4.034229755401611,1.3455413579940796,-8.556877136230469,16.41845703125,-20.172119140625,-5.9356689453125
3.7099999,3.9839515686035156,1.1803414821624756,-9.006986618041992,-25.787353515625,-24.1241455078125,5.5389404296875
3.7299999,3.8522706031799316,1.0606313943862915,-9.294290542602539,-19.500732421875,2.777099609375,9.3231201171875
3.7499999,3.7852327823638916,0.8475474119186401,-9.452308654785156,1.5716552734375,15.6097412109375,11.0015869140625
3.7699999,3.7421371936798096,0.47644615173339844,-9.334992408752441,-11.8560791015625,-21.4080810546875,6.9580078125
3.7899999,3.667917013168335,0.0933738648891449,-8.793902397155762,10.101318359375,-14.8162841796875,-4.94384765625
3.8099999,3.6583402156829834,-0.18914192914962769,-8.398859977722168,48.4771728515625,-8.575439453125,-2.2735595703125
3.8299999000000002,3.670311212539673,-0.20111294090747833,-8.24084186553955,61.920166015625,-19.4091796875,3.72314453125
3.8499999,3.6535518169403076,0,-8.300697326660156,69.2901611328125,-21.759033203125,2.471923828125
3.8699999,3.6535518169403076,0.26336219906806946,-8.631096839904785,97.137451171875,-17.059326171875,4.608154296875
3.8899999,3.600879430770874,0.4836287498474121,-9.11233139038086,68.4661865234375,-13.824462890625,4.1656494140625
3.9099999,3.5721490383148193,0.5817909836769104,-9.761159896850586,-0.6256103515625,-12.20703125,1.4801025390625
3.9299999,3.4955344200134277,0.5315127968788147,-10.189722061157227,-29.1900634765625,7.3699951171875,-1.007080078125
3.9499999,3.4572272300720215,0.40462008118629456,-10.47702693939209,-6.0272216796875,18.4478759765625,2.8076171875
3.9699999,3.4763808250427246,0.1867477297782898,-10.426748275756836,-16.754150390625,16.8914794921875,7.3089599609375
3.9899999,3.4979286193847656,0.0071826050989329815,-10.007762908935547,-80.108642578125,21.97265625,-2.2125244140625
4.0099999,3.622427225112915,-0.14365209639072418,-9.368511199951172,-88.409423828125,19.71435546875,-1.9989013671875
4.029999900000001,3.8091750144958496,-0.29209262132644653,-8.65743350982666,-62.530517578125,6.4697265625,-1.3427734375
4.0499999,4.01268196105957,-0.2825157940387726,-7.910442352294922,-44.8150634765625,3.2501220703125,-7.720947265625
4.069999900000001,4.201824188232422,-0.10055647045373917,-7.395689010620117,-13.641357421875,4.4097900390625,-6.1187744140625
4.0899999000000005,4.311957359313965,0.3016694188117981,-7.268796443939209,13.8702392578125,3.387451171875,3.143310546875
4.1099999,4.345476150512695,0.6751648783683777,-7.347805023193359,-27.03857421875,0.3662109375,8.5296630859375
4.1299999000000005,4.3406877517700195,0.9361328482627869,-7.702147006988525,-96.649169921875,-9.1705322265625,-8.4686279296875
4.1499999,4.273650169372559,1.036689281463623,-8.13789176940918,-57.8155517578125,-8.0108642578125,-14.801025390625
4.1699999000000005,4.220977783203125,1.0438719987869263,-8.611943244934082,-8.209228515625,-2.9296875,2.349853515625
4.1899999,4.129997730255127,1.1779472827911377,-9.028534889221191,-50.0335693359375,-4.5318603515625,0.091552734375
4.209999900000001,4.062960147857666,1.414973258972168,-9.301473617553711,-91.5985107421875,-4.5013427734375,-10.9405517578125
4.2299999,4.010287761688232,1.6663644313812256,-9.41639518737793,-62.43896484375,-1.9378662109375,-11.7340087890625
4.249999900000001,3.9887399673461914,1.944091796875,-9.404424667358398,-75.7904052734375,-4.3182373046875,-11.749267578125
4.2699999,3.9025487899780273,2.315192937850952,-9.29189682006836,-101.531982421875,-4.8675537109375,-11.5203857421875
4.289999900000001,3.883395195007324,2.717418909072876,-9.129091262817383,-36.7889404296875,4.6539306640625,15.960693359375
4.3099999,3.7876269817352295,3.134010076522827,-8.944737434387207,-5.0201416015625,11.5966796875,30.792236328125
4.329999900000001,3.7229835987091064,3.2776620388031006,-8.762778282165527,-42.96875,6.5460205078125,18.8446044921875
4.3499999,3.663128614425659,3.332728862762451,-8.595184326171875,-69.122314453125,-0.9002685546875,-1.007080078125
4.369999900000001,3.598485231399536,3.066972494125366,-8.59997272491455,-33.14208984375,-14.801025390625,-1.15966796875
4.3899999,3.5482068061828613,2.8634653091430664,-8.78193187713623,-23.37646484375,-19.8516845703125,2.50244140625
4.409999900000001,3.536235809326172,2.7509377002716064,-9.050082206726074,-106.0333251953125,-19.5770263671875,-3.84521484375
4.4299999,3.6152446269989014,2.832340717315674,-9.23682975769043,-173.1109619140625,-30.1055908203125,-5.8135986328125
4.449999900000001,3.7158010005950928,3.1076738834381104,-9.21288776397705,-187.01171875,-37.4755859375,39.3218994140625
4.4699999,3.804386615753174,3.533841609954834,-8.820239067077637,-211.42578125,-16.265869140625,87.6007080078125
4.489999900000001,3.825934410095215,4.048594951629639,-8.178592681884766,-218.2464599609375,19.5465087890625,110.443115234375
4.5099999,3.7828385829925537,4.486733913421631,-7.386112213134766,-156.0516357421875,9.46044921875,110.687255859375
4.529999900000001,3.778050184249878,5.152322292327881,-6.715735912322998,-62.9425048828125,-25.726318359375,59.9517822265625
4.5499999,3.883395195007324,5.556941986083984,-6.268020153045654,-33.599853515625,-15.56396484375,55.938720703125
4.569999900000001,3.9695863723754883,5.822698593139648,-6.186617374420166,-49.5452880859375,15.2130126953125,67.9473876953125
4.5899999000000005,4.163516521453857,5.913678169250488,-6.311115741729736,-56.3201904296875,35.003662109375,57.7239990234375
4.609999900000001,4.438849925994873,5.837063789367676,-6.607996463775635,-57.6934814453125,37.750244140625,48.9044189453125
4.6299999000000005,4.8051629066467285,5.796362400054932,-6.732495307922363,-67.9473876953125,29.4647216796875,29.4342041015625
4.6499999,5.224148273468018,5.920860767364502,-6.665457725524902,-79.5745849609375,25.9246826171875,34.942626953125
4.6699999000000005,5.4252610206604,5.985504150390625,-6.44279670715332,-80.13916015625,31.219482421875,55.4046630859375
4.6899999,5.518634796142578,6.069301128387451,-6.009446144104004,-41.44287109375,25.81787109375,44.12841796875
4.709999900000001,5.473145008087158,6.387730121612549,-5.4875102043151855,-31.005859375,26.4739990234375,64.422607421875
4.7299999,5.552153587341309,6.828263282775879,-4.972756862640381,-65.5364990234375,63.3087158203125,108.3831787109375
4.749999900000001,5.681440830230713,7.141903877258301,-4.692635536193848,-107.8948974609375,99.7772216796875,147.39990234375
4.7699999,5.937620162963867,7.266402244567871,-4.525041103363037,-122.6043701171875,79.8797607421875,131.0882568359375
4.789999900000001,6.150704383850098,6.907271862030029,-4.503493309020996,-142.51708984375,40.069580078125,110.687255859375
4.8099999,6.497863292694092,6.167463779449463,-4.481945514678955,-128.8604736328125,34.698486328125,118.10302734375
4.829999900000001,7.0126166343688965,5.360617637634277,-4.268861770629883,-88.7908935546875,41.2750244140625,132.3699951171875
4.8499999,7.680599212646484,4.661510944366455,-3.823540210723877,-82.9315185546875,51.0711669921875,165.6646728515625
4.869999900000001,8.346187591552734,4.235342979431152,-3.265691041946411,-119.903564453125,89.996337890625,222.8851318359375
4.8899999,9.011775016784668,4.170699596405029,-2.609679937362671,-164.886474609375,118.4234619140625,273.6968994140625
4.909999900000001,9.627084732055664,4.462791919708252,-1.9728221893310547,-190.582275390625,108.5357666015625,247.8790283203125
4.9299999,10.062829971313477,4.898536682128906,-1.381454348564148,-205.6732177734375,83.2061767578125,163.87939453125
4.949999900000001,10.42195987701416,5.197812080383301,-1.1204863786697388,-237.8997802734375,76.202392578125,113.1591796875
4.9699999,10.548852920532227,5.118803024291992,-0.7350199222564697,-299.5147705078125,30.9906005859375,89.141845703125
4.989999900000001,10.469843864440918,4.649539470672607,-0.5602431893348694,-302.18505859375,78.369140625,105.8349609375
5.0099999,10.374075889587402,3.8091750144958496,-0.31603461503982544,-283.69140625,128.1890869140625,124.542236328125
5.029999900000001,10.323798179626465,2.8850131034851074,0.07182604819536209,-270.0958251953125,95.611572265625,95.550537109375
5.0499999,10.268731117248535,1.9823989868164062,0.4141969084739685,-197.69287109375,72.3724365234375,19.9737548828125
5.069999900000001,10.20887565612793,1.2641384601593018,0.7637503147125244,-142.242431640625,75.1800537109375,-14.007568359375
5.0899999000000005,10.019734382629395,0.6727706789970398,1.0773907899856567,-149.2767333984375,62.164306640625,9.1094970703125
5.109999900000001,9.9000244140625,0.26815059781074524,1.41257905960083,-176.177978515625,35.2630615234375,45.196533203125
5.1299999000000005,9.828198432922363,-0.040701430290937424,1.7046716213226318,-130.523681640625,26.702880859375,26.2908935546875
5.1499999,9.732429504394531,-0.26575639843940735,1.8794482946395874,-69.15283203125,49.2095947265625,-21.0723876953125
5.1699999000000005,9.732429504394531,-0.4357447028160095,2.075772762298584,-92.6055908203125,56.0302734375,-3.47900390625
5.1899999,9.653421401977539,-0.5674257874488831,2.123656988143921,-113.0828857421875,23.0255126953125,20.6298828125
5.209999900000001,9.44991397857666,-0.6823474764823914,2.169146776199341,-77.0111083984375,13.8702392578125,-1.0986328125
5.2299999,9.193734169006348,-0.6320692300796509,2.248155355453491,-49.3316650390625,37.29248046875,0.9002685546875
5.249999900000001,8.78432559967041,-0.5434837937355042,2.389413356781006,-62.4542236328125,13.275146484375,9.2620849609375
5.2699999,8.346187591552734,-0.3519476354122162,2.564189910888672,-97.442626953125,11.1541748046875,11.41357421875
5.289999900000001,7.975085735321045,-0.10055647045373917,2.8419175148010254,-111.3739013671875,47.1343994140625,-5.9051513671875
5.3099999,7.826645374298096,0.11252748221158981,3.1675288677215576,-80.9783935546875,59.661865234375,-23.4527587890625
5.329999900000001,7.884106159210205,0.22266076505184174,3.246537446975708,-58.2733154296875,46.4630126953125,-26.85546875
5.3499999,8.121131896972656,0.2082955539226532,3.3662476539611816,-136.7034912109375,45.440673828125,2.8839111328125
5.369999900000001,8.401253700256348,-0.004788403399288654,3.2968156337738037,-178.1768798828125,48.370361328125,17.6239013671875
5.3899999,8.597578048706055,-0.28730419278144836,3.2106244564056396,-152.52685546875,47.54638671875,16.0369873046875
5.409999900000001,8.62391471862793,-0.6607996821403503,3.0526070594787598,-131.0272216796875,34.4696044921875,-0.8392333984375
5.4299999,8.53532886505127,-0.9816226959228516,2.8802247047424316,-154.9530029296875,34.637451171875,-0.1068115234375
5.449999900000001,8.561665534973145,-1.3215993642807007,2.8155810832977295,-163.177490234375,41.6107177734375,-2.1820068359375
5.4699999,8.669404029846191,-1.6400281190872192,2.717418909072876,-128.8299560546875,87.6007080078125,-9.0789794921875
5.489999900000001,8.769960403442383,-1.9704279899597168,2.652775526046753,-151.6876220703125,122.7874755859375,-4.6539306640625
5.5099999,8.738836288452148,-2.207453966140747,2.4444799423217773,-189.300537109375,158.1573486328125,20.20263671875
5.529999900000001,8.501810073852539,-2.3798365592956543,2.1499931812286377,-178.680419921875,199.7528076171875,32.8826904296875
5.5499999,8.08282470703125,-2.5019407272338867,1.9704279899597168,-109.222412109375,182.2509765625,20.8587646484375
5.569999900000001,7.615955829620361,-2.4851813316345215,1.9560627937316895,-62.7288818359375,118.865966796875,-18.0511474609375
5.5899999000000005,7.429207801818848,-2.7030537128448486,2.1715409755706787,-77.33154296875,121.0784912109375,-52.825927734375
5.609999900000001,7.16584587097168,-2.7940332889556885,2.6647465229034424,-69.580078125,117.5537109375,-22.0489501953125
5.6299999000000005,6.998251438140869,-2.894589900970459,3.3255462646484375,-7.781982421875,81.8023681640625,21.942138671875
5.6499999,6.718130111694336,-3.0142998695373535,4.268861770629883,-5.9814453125,57.12890625,38.970947265625
5.6699999000000005,6.366182327270508,-3.0142998695373535,5.243301868438721,-113.46435546875,52.3681640625,27.5726318359375
5.6899999,6.100425720214844,-3.181894063949585,6.078877925872803,-148.1170654296875,86.822509765625,-8.11767578125
5.709999900000001,6.157886981964111,-3.552995204925537,6.485892295837402,-142.9901123046875,2.6092529296875,1.8157958984375
5.7299999,6.054935932159424,-4.235342979431152,6.900089263916016,-205.047607421875,-130.3863525390625,-4.180908203125
5.749999900000001,5.995080947875977,-4.903325080871582,7.0557122230529785,-143.798828125,-28.900146484375,51.6815185546875
5.7699999,5.8873419761657715,-5.659893035888672,6.9024834632873535,-22.5982666015625,75.6988525390625,92.041015625
5.789999900000001,5.506663799285889,-6.414066314697266,6.780379295349121,-98.388671875,5.06591796875,86.0137939453125
5.8099999,5.717353820800781,-7.314286231994629,6.232107162475586,-108.4442138671875,23.4527587890625,191.2841796875
5.829999900000001,5.9974751472473145,-7.527369976043701,5.6670756340026855,-26.8402099609375,23.7274169921875,173.0499267578125
5.8499999,6.5481414794921875,-7.486668586730957,5.513846397399902,-54.8248291015625,-26.092529296875,128.9520263671875
5.869999900000001,6.701370716094971,-6.947973251342773,4.987122058868408,-104.6142578125,36.3311767578125,-53.64990234375
5.8899999,6.904877662658691,-6.624756336212158,4.934449672698975,-90.02685546875,-31.097412109375,-129.852294921875
5.909999900000001,6.366182327270508,-6.57926607131958,4.503493309020996,-57.8155517578125,-55.23681640625,39.97802734375
5.9299999,5.937620162963867,-7.103596210479736,4.252102375030518,16.11328125,12.359619140625,55.9844970703125
5.949999900000001,5.590460777282715,-7.3693528175354,4.108449935913086,85.0830078125,-3.11279296875,25.3143310546875
5.9699999,5.25527286529541,-7.371747016906738,4.027047157287598,31.5704345703125,-4.974365234375,18.4173583984375
5.989999900000001,5.1595048904418945,-7.2568254470825195,3.9049429893493652,-50.29296875,-5.584716796875,7.232666015625
6.0099999,5.169081687927246,-7.117961883544922,3.912125587463379,-51.1474609375,-38.4674072265625,-20.3399658203125
6.029999900000001,5.317522048950195,-7.182605266571045,3.8522706031799316,-7.2174072265625,-15.869140625,-17.8985595703125
6.0499999,5.4875102043151855,-7.304709434509277,3.974374771118164,53.7261962890625,-26.611328125,22.1099853515625
6.069999900000001,5.621585369110107,-7.386112213134766,4.010287761688232,-6.927490234375,-26.91650390625,56.4727783203125
6.0899999000000005,5.789179801940918,-7.06528902053833,4.062960147857666,-84.442138671875,-14.3890380859375,32.65380859375
6.109999900000001,5.767632007598877,-7.074865818023682,3.892971992492676,-193.4967041015625,5.37109375,-23.9105224609375
6.1299999000000005,5.7341132164001465,-6.825869083404541,3.732560396194458,-130.2490234375,8.9263916015625,-12.26806640625
6.149999900000001,5.710171222686768,-6.943184852600098,3.383007049560547,-46.5545654296875,-8.056640625,10.711669921875
6.1699999000000005,5.633556365966797,-6.852205276489258,2.9305028915405273,-97.3663330078125,-23.9715576171875,-0.7476806640625
6.1899999,5.525817394256592,-6.449979305267334,2.3295583724975586,-189.8956298828125,-6.9732666015625,-9.4757080078125
6.209999900000001,5.446808815002441,-5.834669589996338,1.5610195398330688,-252.62451171875,6.9122314453125,14.2822265625
6.2299999,5.2049946784973145,-5.30076265335083,0.7996633648872375,-333.4503173828125,9.185791015625,36.5142822265625
6.249999900000001,4.81473970413208,-5.2696380615234375,0.0454898327589035,-408.0963134765625,0.274658203125,48.0194091796875
6.2699999,4.311957359313965,-5.829881191253662,-0.8044517636299133,-456.4666748046875,-25.299072265625,41.1529541015625
6.289999900000001,3.928884983062744,-6.926425457000732,-1.9560627937316895,-401.85546875,-54.1534423828125,59.4024658203125
6.3099999,3.6607344150543213,-8.312667846679688,-3.2537200450897217,-254.2266845703125,-43.02978515625,90.8050537109375
6.329999900000001,3.620033025741577,-9.770736694335938,-4.4077253341674805,-175.0335693359375,-4.69970703125,70.4193115234375
6.3499999,3.7229835987091064,-10.83855152130127,-5.3342814445495605,-226.74560546875,-15.93017578125,4.4708251953125
6.369999900000001,3.9384617805480957,-11.207258224487305,-5.940014362335205,-250.762939453125,-26.55029296875,-40.9393310546875
6.3899999,4.14915132522583,-10.790667533874512,-6.303933143615723,-182.43408203125,-10.772705078125,-28.900146484375
6.409999900000001,4.434061527252197,-9.674968719482422,-6.682217121124268,-197.1893310546875,-5.6304931640625,-20.111083984375
6.4299999,4.730942726135254,-8.269572257995605,-7.144298076629639,-288.39111328125,-18.0816650390625,-50.59814453125
6.449999900000001,5.006275653839111,-6.821080684661865,-7.625532627105713,-293.4112548828125,-13.214111328125,-71.380615234375
6.4699999,5.286397457122803,-5.489904403686523,-8.17141056060791,-219.5587158203125,5.18798828125,-59.6466064453125
6.489999900000001,5.477933406829834,-4.213795185089111,-8.650250434875488,-180.60302734375,11.16943359375,-44.98291015625
6.5099999,5.374982833862305,-2.5019407272338867,-8.69334602355957,-221.1151123046875,12.20703125,-50.567626953125
6.529999900000001,5.231330871582031,-1.237802267074585,-8.815450668334961,-287.841796875,-46.7681884765625,-74.493408203125
6.5499999,4.972756862640381,0.3208230137825012,-8.942343711853027,-256.53076171875,-89.2333984375,-45.4559326171875
6.569999900000001,4.797980308532715,1.3239935636520386,-9.165003776550293,-186.9659423828125,-2.0294189453125,-16.41845703125
6.5899999000000005,4.67827033996582,2.145204782485962,-9.394847869873047,-163.5589599609375,34.454345703125,-12.0086669921875
6.609999900000001,4.548983097076416,3.026270866394043,-9.23682975769043,-187.469482421875,-5.523681640625,-29.8309326171875
6.6299999000000005,4.290409564971924,4.352658748626709,-8.683769226074219,-147.5830078125,-11.1236572265625,-10.9100341796875
6.649999900000001,4.213795185089111,5.485116004943848,-8.406042098999023,-80.8258056640625,-37.17041015625,52.6580810546875
6.6699999000000005,4.182670593261719,6.88332986831665,-8.367734909057617,-95.4437255859375,-29.96826171875,51.81884765625
6.6899999,4.338293552398682,7.910442352294922,-8.700529098510742,-111.907958984375,6.7291259765625,36.8804931640625
6.709999900000001,4.484339714050293,8.434772491455078,-8.99740982055664,-94.1925048828125,21.148681640625,51.116943359375
6.7299999,4.4508209228515625,8.53293514251709,-8.774748802185059,-51.20849609375,31.8450927734375,58.3648681640625
6.749999900000001,4.23773717880249,8.092401504516602,-8.164227485656738,-20.6298828125,24.7802734375,53.0853271484375
6.7699999,3.9025487899780273,7.139509677886963,-7.51779317855835,-8.026123046875,-5.6915283203125,63.385009765625
6.789999900000001,3.6990416049957275,6.026205539703369,-7.319074630737305,-38.0401611328125,-20.32470703125,69.3359375
6.8099999,3.600879430770874,4.924872875213623,-7.565677165985107,-82.916259765625,0.335693359375,56.4117431640625
6.829999900000001,3.663128614425659,3.8953661918640137,-8.04691219329834,-22.552490234375,10.8795166015625,83.892822265625
6.8499999,3.8738183975219727,2.7988216876983643,-8.439560890197754,44.49462890625,-5.401611328125,104.644775390625
6.869999900000001,4.10366153717041,1.9177556037902832,-8.664615631103516,-40.34423828125,-23.3612060546875,40.252685546875
6.8899999,4.458003520965576,1.381454348564148,-9.08838939666748,-125.457763671875,-31.4788818359375,-12.87841796875
6.909999900000001,4.72376012802124,1.6208745241165161,-9.476250648498535,-70.1141357421875,-8.6822509765625,25.32958984375
6.9299999,4.78122091293335,2.628833532333374,-9.761159896850586,2.6702880859375,3.6773681640625,71.8994140625
6.949999900000001,4.757278919219971,3.579331636428833,-9.732429504394531,7.7972412109375,-13.427734375,95.703125
6.9699999,4.55616569519043,4.302380561828613,-9.32302188873291,-99.0142822265625,-18.0511474609375,46.4324951171875
6.989999900000001,4.414907932281494,4.398148536682129,-8.990227699279785,-155.181884765625,-8.1787109375,-3.96728515625
7.0099999,4.220977783203125,4.158728122711182,-8.65982723236084,-75.531005859375,1.46484375,28.228759765625
7.029999900000001,3.9169139862060547,3.9863457679748535,-8.377311706542969,-14.58740234375,-9.6435546875,69.2138671875
7.0499999,3.5649664402008057,3.976768970489502,-8.032546997070312,-29.876708984375,-24.6734619140625,67.3828125
7.069999900000001,3.2848446369171143,4.199429988861084,-7.706935405731201,-57.403564453125,-24.200439453125,52.67333984375
7.0899999000000005,3.1507694721221924,4.448426723480225,-7.4555439949035645,-61.95068359375,-3.7689208984375,53.0853271484375
7.109999900000001,3.138798475265503,4.522646903991699,-7.177816867828369,-44.7540283203125,8.636474609375,66.9403076171875
7.1299999000000005,3.1675288677215576,4.508281707763672,-6.8043212890625,-44.921875,0.18310546875,48.6602783203125
7.149999900000001,3.2345664501190186,4.414907932281494,-6.517016887664795,-68.9849853515625,-15.4266357421875,12.237548828125
7.1699999000000005,3.3303346633911133,4.388571739196777,-6.339846134185791,-78.3843994140625,-4.8980712890625,5.126953125
7.1899999,3.4189200401306152,4.563348293304443,-6.294356346130371,-96.7864990234375,11.7340087890625,8.1024169921875
7.209999900000001,3.5865142345428467,4.788403511047363,-6.411672115325928,-118.59130859375,-4.150390625,2.7313232421875
7.2299999,3.687070608139038,5.128379821777344,-6.378153324127197,-84.6710205078125,-17.8375244140625,6.1798095703125
7.249999900000001,3.84269380569458,5.355829238891602,-6.421248912811279,-40.740966796875,-14.434814453125,22.5830078125
7.2699999,3.9480385780334473,5.580883979797363,-6.387730121612549,-77.7587890625,3.326416015625,11.2762451171875
7.289999900000001,3.998316764831543,5.664681434631348,-6.282385349273682,-140.106201171875,7.7056884765625,-16.6168212890625
7.3099999,3.952826976776123,5.556941986083984,-5.96874475479126,-129.241943359375,-12.0086669921875,-25.8941650390625
7.329999900000001,3.7708675861358643,5.274426460266113,-5.262455463409424,-70.6634521484375,-19.8974609375,-10.009765625
7.3499999,3.5410242080688477,4.946420669555664,-4.455609321594238,-59.38720703125,-25.9552001953125,2.166748046875
7.369999900000001,3.1435868740081787,4.771644115447998,-3.663128614425659,-93.4295654296875,-44.1741943359375,-16.357421875
7.3899999,2.346317768096924,4.675876140594482,-2.607285737991333,-87.5244140625,-82.09228515625,17.791748046875
7.409999900000001,1.4269442558288574,4.55616569519043,-2.233790159225464,-113.9984130859375,-277.16064453125,126.3427734375
7.4299999,1.3120225667953491,4.213795185089111,-2.0805611610412598,-175.323486328125,-343.7347412109375,162.0941162109375
7.449999900000001,0.768538773059845,3.9049429893493652,-2.0805611610412598,69.03076171875,-89.4012451171875,99.822998046875
7.4699999,1.1324573755264282,2.853888511657715,-2.1116859912872314,6.317138671875,-103.9581298828125,17.88330078125
7.489999900000001,1.237802267074585,2.499546527862549,-1.886630892753601,32.867431640625,-130.7830810546875,63.995361328125
7.5099999,0.7541735172271729,1.9057846069335938,-2.0470423698425293,66.131591796875,-32.745361328125,-127.9296875
7.529999900000001,0.3878606855869293,2.1356279850006104,-3.950432777404785,-70.6787109375,-52.978515625,-262.725830078125
7.5499999,0.4189853072166443,3.3901896476745605,-7.094019412994385,-70.5108642578125,-112.8387451171875,-162.4298095703125
7.569999900000001,0.42377370595932007,4.314351558685303,-10.500968933105469,101.86767578125,3.1280517578125,7.32421875
7.5899999000000005,0.7230489253997803,5.456385612487793,-12.641385078430176,99.1058349609375,72.6165771484375,-37.200927734375
7.609999900000001,0.9624691009521484,5.621585369110107,-12.69405746459961,63.9801025390625,18.707275390625,-61.3861083984375
7.6299999000000005,0.8140285611152649,4.831499099731445,-11.128249168395996,90.484619140625,-19.2108154296875,-61.767578125
7.649999900000001,0.7110779285430908,4.129997730255127,-9.064447402954102,70.1446533203125,-11.810302734375,-89.29443359375
7.6699999000000005,0.6871358752250671,3.801992416381836,-7.146692276000977,31.0211181640625,4.21142578125,-105.28564453125
7.6899999,0.8188169598579407,3.8786067962646484,-5.7341132164001465,9.9639892578125,-7.50732421875,-83.1756591796875
7.709999900000001,0.9385270476341248,4.05817174911499,-4.941632270812988,3.6163330078125,-6.0577392578125,-77.1636962890625
7.7299999,0.9026140570640564,4.355052947998047,-4.776432514190674,-3.1585693359375,8.72802734375,-113.1744384765625
7.749999900000001,0.706289529800415,5.118803024291992,-5.427655220031738,28.0609130859375,-21.4996337890625,-113.22021484375
7.7699999,0.4405331015586853,6.107608318328857,-6.763619899749756,66.070556640625,-57.6171875,-48.64501953125
7.789999900000001,0.19871874153614044,7.508216381072998,-8.24084186553955,66.9708251953125,-54.4891357421875,3.3111572265625
7.8099999,0.19153612852096558,8.559270858764648,-9.643844604492188,41.9464111328125,-48.3245849609375,-5.4931640625
7.829999900000001,0.4213795065879822,8.791508674621582,-10.78587818145752,59.7381591796875,-56.671142578125,-5.584716796875
7.8499999,0.8164227604866028,8.415618896484375,-11.501745223999023,95.947265625,-50.537109375,14.190673828125
7.869999900000001,1.0773907899856567,8.001421928405762,-11.690886497497559,66.89453125,-0.1678466796875,1.3275146484375
7.8899999,1.41257905960083,7.340622425079346,-11.856086730957031,13.8397216796875,4.21142578125,-6.2408447265625
7.909999900000001,1.6112977266311646,6.715735912322998,-11.798625946044922,-8.392333984375,-7.5531005859375,-6.6375732421875
7.9299999,1.821987509727478,6.1267619132995605,-11.705251693725586,24.4293212890625,16.204833984375,-11.7950439453125
7.949999900000001,2.0590133666992188,5.748478412628174,-11.678915977478027,30.1055908203125,27.4658203125,-11.7950439453125
7.9699999,2.2146365642547607,5.9304375648498535,-11.5065336227417,8.6517333984375,26.641845703125,-15.19775390625
7.989999900000001,2.3535003662109375,6.100425720214844,-11.262324333190918,2.532958984375,9.552001953125,7.01904296875
8.0099999,2.363077163696289,6.277596950531006,-10.802638053894043,8.5296630859375,-0.762939453125,9.1094970703125
8.0299999,2.3918075561523438,6.035782337188721,-10.467450141906738,43.914794921875,0.823974609375,-1.5106201171875
8.049999900000001,2.3582887649536133,5.600037574768066,-10.196905136108398,65.704345703125,2.8533935546875,-9.2620849609375
8.069999900000001,2.2433669567108154,5.30076265335083,-10.146626472473145,65.4754638671875,7.080078125,-16.8914794921875
8.0899999,2.1715409755706787,5.339069843292236,-10.498574256896973,54.38232421875,10.1776123046875,-15.5029296875
8.1099999,2.0398597717285156,5.418078422546387,-10.802638053894043,62.3321533203125,32.623291015625,-1.312255859375
8.129999900000001,1.8626888990402222,5.252878665924072,-10.891223907470703,73.1658935546875,37.78076171875,6.317138671875
8.149999900000001,1.6711528301239014,4.802768707275391,-10.72841739654541,68.7103271484375,-6.439208984375,3.47900390625
8.1699999,1.4197616577148438,4.158728122711182,-10.323798179626465,66.2841796875,-28.533935546875,-3.7078857421875
8.1899999,1.173158884048462,3.49314022064209,-10.02452278137207,79.1473388671875,-16.6168212890625,-7.87353515625
8.2099999,0.9528923034667969,2.827552318572998,-10.067618370056152,116.668701171875,-12.4664306640625,3.448486328125
8.229999900000001,0.7493851184844971,2.013523578643799,-9.943120002746582,104.766845703125,45.4559326171875,22.2015380859375
8.2499999,0.5171475410461426,1.1276689767837524,-9.684545516967773,47.027587890625,40.5426025390625,0.8544921875
8.2699999,0.43335050344467163,0.31603461503982544,-9.117119789123535,-1.5716552734375,5.0201416015625,-15.1519775390625
8.2899999,0.3974374830722809,-0.10055647045373917,-8.508993148803711,-2.3040771484375,-18.61572265625,-28.0914306640625
8.309999900000001,0.5147533416748047,-0.20111294090747833,-8.24084186553955,15.411376953125,-23.74267578125,-28.6865234375
8.3299999,0.6200982332229614,-0.06703764945268631,-8.13789176940918,57.4493408203125,-17.1966552734375,-31.7230224609375
8.3499999,0.7110779285430908,0.1364694982767105,-8.382100105285645,80.26123046875,-62.7593994140625,-48.583984375
8.3699999,0.5793967843055725,0.26336219906806946,-8.774748802185059,44.5404052734375,-113.800048828125,-84.686279296875
8.389999900000001,0.29209262132644653,0.33039984107017517,-9.17936897277832,23.2086181640625,-93.0023193359375,-117.0501708984375
8.4099999,-0.1843535304069519,0.6153098344802856,-9.579200744628906,32.53173828125,-56.5948486328125,-140.7318115234375
8.4299999,-0.7015010714530945,0.8834604024887085,-9.93354320526123,-11.65771484375,-57.861328125,-95.76416015625
8.4499999,-1.194706678390503,1.2856862545013428,-10.038887977600098,-49.224853515625,-36.712646484375,-59.9517822265625
8.469999900000001,-1.5729905366897583,1.6136919260025024,-10.079588890075684,-55.908203125,-13.8702392578125,-57.06787109375
8.4899999,-1.7693150043487549,1.7549498081207275,-10.105925559997559,-69.3511962890625,-12.75634765625,-37.4908447265625
8.5099999,-1.821987509727478,1.659181833267212,-10.014945983886719,-83.0230712890625,-5.5084228515625,-12.8173828125
8.5299999,-1.7501614093780518,1.5107412338256836,-10.103530883789062,-136.1083984375,-3.4637451171875,-18.06640625
8.549999900000001,-1.6543933153152466,1.4101848602294922,-10.036493301391602,-99.517822265625,14.34326171875,-28.4423828125
8.569999900000001,-1.5634137392044067,1.4173674583435059,-9.861717224121094,-11.71875,30.1971435546875,-26.5045166015625
8.5899999,-1.5849615335464478,1.5394717454910278,-9.495404243469238,15.594482421875,10.772705078125,-27.496337890625
8.6099999,-1.6208745241165161,1.8195933103561401,-9.093177795410156,-0.6103515625,-30.0750732421875,-43.27392578125
8.629999900000001,-1.6974890232086182,2.1045033931732178,-8.951920509338379,-30.70068359375,-51.5899658203125,-45.928955078125
8.649999900000001,-1.8291701078414917,2.456450939178467,-9.14345645904541,-24.1851806640625,-29.3426513671875,-45.1202392578125
8.6699999,-1.900996208190918,2.760514497756958,-9.351752281188965,-19.1802978515625,17.9443359375,-22.15576171875
8.6899999,-2.0254945755004883,2.978386878967285,-9.440337181091309,-33.935546875,12.664794921875,-10.19287109375
8.709999900000001,-2.011129379272461,3.00711727142334,-9.308655738830566,-30.6854248046875,-12.359619140625,-12.0849609375
8.729999900000001,-1.9776105880737305,2.911349296569824,-9.059659004211426,-17.5628662109375,-6.8206787109375,-15.960693359375
8.7499999,-1.9297266006469727,2.6144683361053467,-8.968679428100586,-3.96728515625,1.7242431640625,-25.93994140625
8.7699999,-1.9153614044189453,2.477998733520508,-8.939949035644531,54.168701171875,6.103515625,-68.6492919921875
8.7899999,-2.0039467811584473,2.4013843536376953,-8.87051773071289,37.8265380859375,7.6904296875,-50.8270263671875
8.809999900000001,-2.1045033931732178,2.5498247146606445,-8.731653213500977,14.0380859375,-0.5645751953125,-13.9312744140625
8.8299999,-2.185906171798706,2.6575639247894287,-8.592789649963379,-15.7623291015625,-6.04248046875,-10.498046875
8.8499999,-2.2361843585968018,2.734178304672241,-8.51138687133789,-46.8597412109375,-10.6353759765625,-15.4876708984375
8.8699999,-2.248155355453491,2.5282769203186035,-8.480262756347656,-22.4456787109375,-4.9591064453125,-15.93017578125
8.889999900000001,-2.300827741622925,2.4205379486083984,-8.506598472595215,2.6702880859375,-8.4075927734375,-20.6146240234375
8.9099999,-2.389413356781006,2.3271639347076416,-8.561665534973145,11.8408203125,-19.073486328125,-23.345947265625
8.9299999,-2.494758129119873,2.300827741622925,-8.741230010986328,0.518798828125,-26.2298583984375,-21.2249755859375
8.9499999,-2.6360161304473877,2.315192937850952,-9.064447402954102,-9.185791015625,-26.947021484375,-32.012939453125
8.969999900000001,-2.7724854946136475,2.3247697353363037,-9.373299598693848,-11.0321044921875,-15.533447265625,-47.8363037109375
8.9899999,-2.8874073028564453,2.2840683460235596,-9.610325813293457,-7.0953369140625,-8.8958740234375,-40.9088134765625
9.0099999,-3.00711727142334,2.4444799423217773,-9.634267807006836,6.5765380859375,-14.7247314453125,-34.149169921875
9.0299999,-3.112462282180786,2.647987127304077,-9.567230224609375,-18.2952880859375,-20.8282470703125,-31.8145751953125
9.049999900000001,-3.2393548488616943,2.9951462745666504,-9.610325813293457,-27.130126953125,-16.66259765625,-22.8424072265625
9.069999900000001,-3.399766445159912,3.354276657104492,-9.710882186889648,-15.4876708984375,1.5411376953125,-17.3187255859375
9.0899999,-3.533841609954834,3.469198226928711,-9.742006301879883,-3.4332275390625,15.19775390625,-12.420654296875
9.1099999,-3.5889084339141846,3.40216064453125,-9.557653427124023,12.8173828125,14.6636962890625,-11.7645263671875
9.129999900000001,-3.5410242080688477,3.0526070594787598,-9.0859956741333,9.4451904296875,3.23486328125,-18.463134765625
9.149999900000001,-3.426102638244629,2.738966703414917,-8.525752067565918,10.8489990234375,-12.0391845703125,-30.9906005859375
9.1699999,-3.3255462646484375,2.5953147411346436,-8.128314971923828,18.890380859375,-21.91162109375,-39.215087890625
9.1899999,-3.1890766620635986,2.4636335372924805,-8.006210327148438,0.3509521484375,-17.9443359375,-23.9410400390625
9.209999900000001,-3.1747114658355713,2.537853717803955,-8.097189903259277,3.8299560546875,-13.031005859375,-36.2548828125
9.229999900000001,-3.155557870864868,2.5019407272338867,-8.259995460510254,5.55419921875,0.9765625,-41.2750244140625
9.2499999,-3.203441858291626,2.3558945655822754,-8.169015884399414,-15.289306640625,7.5225830078125,-29.388427734375
9.2699999,-3.201047658920288,2.2026655673980713,-7.824251174926758,-58.59375,-18.7835693359375,-19.378662109375
9.2899999,-3.270479440689087,2.008735179901123,-7.393294811248779,-74.462890625,-44.7845458984375,-3.1280517578125
9.309999900000001,-3.421314239501953,2.451662540435791,-7.038952827453613,-38.360595703125,-34.8968505859375,5.2490234375
9.3299999,-3.60566782951355,3.162740468978882,-7.146692276000977,-65.8416748046875,-27.6336669921875,15.31982421875
9.3499999,-3.909731388092041,4.060565948486328,-7.3238630294799805,-105.16357421875,-5.9356689453125,27.3284912109375
9.3699999,-4.151545524597168,4.76924991607666,-7.50582218170166,-98.541259765625,-5.31005859375,18.6309814453125
9.389999900000001,-4.292803764343262,4.841075897216797,-7.649474620819092,-52.947998046875,-32.745361328125,-2.3040771484375
9.4099999,-4.474762916564941,4.709394931793213,-7.644686222076416,11.29150390625,-13.7939453125,-10.8795166015625
9.4299999,-4.637568473815918,4.78122091293335,-7.910442352294922,0.5950927734375,9.82666015625,-9.6893310546875
9.4499999,-4.747702121734619,4.941632270812988,-8.233659744262695,-36.2701416015625,16.7083740234375,17.15087890625
9.469999900000001,-4.817133903503418,5.25527286529541,-8.374917984008789,-52.8564453125,34.9273681640625,29.266357421875
9.4899999,-4.721365928649902,5.365406036376953,-8.22887134552002,-56.8389892578125,7.3699951171875,16.1895751953125
9.5099999,-4.5825018882751465,5.1810526847839355,-7.735665798187256,-58.7005615234375,-39.8712158203125,0.4425048828125
9.5299999,-4.484339714050293,5.003881454467773,-7.141903877258301,-23.6968994140625,-41.3055419921875,-4.3792724609375
9.549999900000001,-4.491522312164307,5.116408824920654,-6.756437301635742,18.4478759765625,-40.2679443359375,-3.23486328125
9.569999900000001,-4.513070106506348,5.238513469696045,-6.761225700378418,47.1649169921875,-35.0494384765625,23.92578125
9.5899999,-4.613626480102539,5.643133640289307,-7.005434036254883,68.572998046875,-13.1072998046875,42.0074462890625
9.6099999,-4.587290287017822,5.822698593139648,-7.376535415649414,69.51904296875,1.9378662109375,37.4908447265625
9.629999900000001,-4.51067590713501,5.856217384338379,-7.673416614532471,34.8052978515625,-4.0283203125,20.6756591796875
9.649999900000001,-4.331110954284668,5.681440830230713,-7.850587368011475,21.2860107421875,-0.396728515625,17.6239013671875
9.6699999,-4.173093795776367,5.2911858558654785,-7.783549785614014,14.923095703125,11.5203857421875,16.2811279296875
9.6899999,-3.995922565460205,4.838681697845459,-7.740454196929932,-15.9759521484375,2.8076171875,-2.4566650390625
9.709999900000001,-3.9264907836914062,4.3406877517700195,-7.644686222076416,1.8310546875,3.3721923828125,-2.227783203125
9.729999900000001,-3.8498764038085938,4.1611223220825195,-7.704541206359863,78.9947509765625,20.3094482421875,30.3497314453125
9.7499999,-3.7038300037384033,4.189853191375732,-8.003816604614258,138.397216796875,41.900634765625,62.01171875
9.7699999,-3.5051112174987793,4.32871675491333,-8.413225173950195,137.6800537109375,66.1468505859375,61.5692138671875
9.7899999,-3.2848446369171143,4.2329487800598145,-8.767566680908203,129.852294921875,81.8023681640625,51.3458251953125
9.809999900000001,-3.1459810733795166,3.9169139862060547,-8.822632789611816,155.33447265625,94.5587158203125,54.3060302734375
9.8299999,-2.896984100341797,3.4189200401306152,-8.681375503540039,108.09326171875,78.2470703125,49.3316650390625
9.8499999,-2.6815059185028076,2.9951462745666504,-8.607154846191406,32.3333740234375,-2.86865234375,27.52685546875
9.8699999,-2.252943754196167,2.738966703414917,-8.757989883422852,32.8521728515625,3.2196044921875,21.1029052734375
9.889999900000001,-1.9105730056762695,2.5761611461639404,-9.105149269104004,46.08154296875,22.2625732421875,13.7176513671875
9.9099999,-1.7405846118927002,2.5234885215759277,-9.418789863586426,25.69580078125,36.102294921875,14.6331787109375
9.9299999,-1.7286136150360107,2.27209734916687,-9.490615844726562,11.29150390625,20.9503173828125,38.909912109375
9.9499999,-1.7764976024627686,2.008735179901123,-9.373299598693848,9.002685546875,-5.523681640625,37.7655029296875
9.969999900000001,-1.7980455160140991,1.6519991159439087,-9.160215377807617,10.528564453125,-5.18798828125,15.838623046875
9.9899999,-1.7286136150360107,1.3120225667953491,-9.062053680419922,-3.5552978515625,-4.8675537109375,7.5836181640625
10.0099999,-1.625662922859192,1.2880805730819702,-9.047688484191895,-38.726806640625,-12.8936767578125,9.82666015625
10.0299999,-1.6280571222305298,1.5179238319396973,-8.918401718139648,-35.369873046875,-0.1983642578125,3.72314453125
10.049999900000001,-1.7118542194366455,1.8267759084701538,-8.695740699768066,12.664794921875,-1.220703125,23.5443115234375
10.069999900000001,-1.8962076902389526,2.231395959854126,-8.451532363891602,46.844482421875,-30.7769775390625,57.281494140625
10.0899999,-1.9728221893310547,2.2026655673980713,-8.355764389038086,4.913330078125,-43.5028076171875,61.5234375
10.1099999,-2.188300371170044,2.145204782485962,-8.47547435760498,-27.069091796875,-19.2413330078125,-1.6632080078125
10.129999900000001,-2.3104045391082764,2.0446481704711914,-8.772355079650879,-7.5836181640625,-2.9449462890625,6.5460205078125
10.149999900000001,-2.3989901542663574,2.0446481704711914,-9.241618156433105,22.3236083984375,-21.636962890625,52.703857421875
10.1699999,-2.4588451385498047,2.2026655673980713,-9.6989107131958,-2.74658203125,-16.54052734375,52.6885986328125
10.1899999,-2.3367409706115723,2.293645143508911,-10.101137161254883,-38.9556884765625,33.6456298828125,20.477294921875
10.209999900000001,-2.097320795059204,2.209848165512085,-10.412383079528809,-48.03466796875,53.3905029296875,-4.0283203125
10.229999900000001,-1.9369091987609863,2.049436569213867,-10.405200958251953,-21.728515625,48.9959716796875,-15.411376953125
10.2499999,-1.8052281141281128,1.9249382019042969,-10.254365921020508,33.0810546875,23.0255126953125,-11.9781494140625
10.2699999,-1.7764976024627686,1.8842366933822632,-10.08198356628418,65.4449462890625,1.0833740234375,10.5133056640625
10.2899999,-1.659181833267212,1.9536685943603516,-10.333374977111816,52.9327392578125,13.092041015625,26.8402099609375
10.309999900000001,-1.4389152526855469,1.9321208000183105,-10.84094524383545,-0.7171630859375,46.7071533203125,16.082763671875
10.3299999,-1.137245774269104,1.7046716213226318,-11.355698585510254,-22.3236083984375,99.517822265625,-18.1121826171875
10.3499999,-1.036689281463623,1.7286136150360107,-11.44907283782959,-22.94921875,122.2076416015625,-55.328369140625
10.3699999,-0.9265560507774353,1.659181833267212,-11.128249168395996,7.0648193359375,95.5657958984375,-3.3111572265625
10.389999900000001,-0.9097966551780701,1.7693150043487549,-10.536881446838379,25.2227783203125,54.01611328125,44.3572998046875
10.4099999,-0.6799532771110535,1.821987509727478,-10.132261276245117,-5.1422119140625,52.215576171875,21.697998046875
10.4299999,-0.2561795711517334,1.699883222579956,-9.988609313964844,5.55419921875,85.6781005859375,-6.5460205078125
10.4499999,0.2322375625371933,1.5155296325683594,-10.065223693847656,18.890380859375,119.7967529296875,-15.07568359375
10.469999900000001,0.507570743560791,1.3982137441635132,-9.86650562286377,7.6446533203125,116.2567138671875,-14.190673828125
10.4899999,0.6799532771110535,1.4269442558288574,-9.617507934570312,-1.8768310546875,39.031982421875,19.8211669921875
10.5099999,0.6009446382522583,1.699883222579956,-9.184157371520996,1.1138916015625,10.0555419921875,47.149658203125
10.5299999,0.6272808313369751,1.8483237028121948,-8.841787338256836,30.33447265625,9.27734375,93.93310546875
10.549999900000001,0.6967126727104187,1.886630892753601,-8.621520042419434,44.2962646484375,-3.1280517578125,120.147705078125
10.569999900000001,0.9241618514060974,1.821987509727478,-8.71728801727295,56.793212890625,-34.2559814453125,113.0828857421875
10.5899999,1.1468225717544556,1.577778935432434,-8.83699893951416,47.3175048828125,-46.417236328125,82.7789306640625
10.6099999,1.2234370708465576,1.2186486721038818,-8.827422142028809,35.247802734375,-57.0068359375,74.89013671875
10.629999900000001,1.0773907899856567,1.0582371950149536,-8.89685344696045,-0.4730224609375,-84.320068359375,74.8138427734375
10.649999900000001,0.8259995579719543,0.7230489253997803,-8.51138687133789,-56.2591552734375,-34.1796875,86.5020751953125
10.6699999,0.6177040338516235,0.4644751250743866,-8.681375503540039,10.528564453125,-61.5081787109375,71.3043212890625
10.6899999,0.5530605912208557,0.14844051003456116,-8.920795440673828,19.3939208984375,-45.623779296875,17.852783203125
10.709999900000001,0.5841852426528931,0.10055647045373917,-9.397241592407227,-32.806396484375,15.8843994140625,-19.989013671875
10.729999900000001,0.47405192255973816,-0.033518824726343155,-9.461885452270508,-42.572021484375,-14.83154296875,-28.0303955078125
10.7499999,0.33758243918418884,0.13168109953403473,-9.849745750427246,-15.7623291015625,-111.8927001953125,1.4190673828125
10.7699999,0.17717093229293823,0.1867477297782898,-9.971850395202637,-28.289794921875,-70.281982421875,17.7764892578125
10.7899999,0.004788403399288654,0.2801215946674347,-10.414777755737305,3.4942626953125,-5.6304931640625,26.9317626953125
10.809999900000001,-0.021547814831137657,0.4812345504760742,-10.922348022460938,35.858154296875,6.6680908203125,32.8216552734375
10.8299999,-0.009576806798577309,0.6943184733390808,-11.228805541992188,51.910400390625,10.55908203125,57.037353515625
10.8499999,0.023942016065120697,0.8978256583213806,-11.262324333190918,9.3231201171875,58.837890625,55.3741455078125
10.8699999,0.05746084079146385,1.1324573755264282,-11.03248119354248,-17.08984375,87.5091552734375,39.764404296875
10.889999900000001,0.12689268589019775,1.0989385843276978,-10.83855152130127,26.1383056640625,36.80419921875,57.8155517578125
10.9099999,0.15083470940589905,1.094150185585022,-10.522516250610352,68.2373046875,-10.7879638671875,72.20458984375
10.9299999,0.15801730751991272,1.0582371950149536,-10.163386344909668,79.2999267578125,-8.11767578125,72.4945068359375
10.9499999,0.20350714027881622,0.9217676520347595,-10.067618370056152,30.303955078125,5.523681640625,57.5103759765625
10.969999900000001,0.20111294090747833,0.6799532771110535,-10.014945983886719,-34.1033935546875,11.627197265625,28.533935546875
10.9899999,0.1867477297782898,0.2753331959247589,-9.986215591430664,-41.534423828125,-1.3275146484375,17.4407958984375
11.0099999,0.12689268589019775,-0.15562310814857483,-10.005369186401367,-0.1220703125,-18.6767578125,17.4560546875
11.0299999,0.08140286058187485,-0.4141969084739685,-10.043676376342773,18.4478759765625,-10.650634765625,18.7835693359375
11.049999900000001,0.13168109953403473,-0.5027823448181152,-10.122684478759766,14.190673828125,18.890380859375,23.1475830078125
11.069999900000001,0.12689268589019775,-0.3423708379268646,-10.137049674987793,-27.618408203125,54.19921875,20.721435546875
11.0899999,0.304063618183136,-0.17717093229293823,-10.35252857208252,-71.807861328125,50.445556640625,22.64404296875
11.1099999,0.2801215946674347,0.08858546614646912,-10.486603736877441,-55.9539794921875,48.980712890625,28.62548828125
11.129999900000001,0.4213795065879822,0.3016694188117981,-10.486603736877441,-5.615234375,68.7713623046875,40.740966796875
11.149999900000001,0.4596867263317108,0.4429273009300232,-10.577583312988281,14.6484375,67.413330078125,37.2161865234375
11.1699999,0.6512228846549988,0.6272808313369751,-10.78348445892334,-6.927490234375,82.1533203125,38.5589599609375
11.1899999,0.8595184087753296,0.727837324142456,-10.99896240234375,15.9454345703125,94.4671630859375,48.6297607421875
11.209999900000001,1.173158884048462,0.7230489253997803,-11.128249168395996,42.4652099609375,113.76953125,49.041748046875
11.229999900000001,1.5083470344543457,0.7015010714530945,-10.970232009887695,19.256591796875,89.447021484375,46.38671875
11.2499999,2.006340980529785,0.47884035110473633,-10.673351287841797,-5.06591796875,43.6859130859375,45.196533203125
11.2699999,2.3319525718688965,0.3926490843296051,-10.177751541137695,-12.847900390625,79.1168212890625,39.5660400390625
11.2899999,2.8179752826690674,0.3687070608139038,-9.916783332824707,15.380859375,94.3603515625,57.861328125
11.309999900000001,3.1196448802948,0.3423708379268646,-9.749189376831055,-6.927490234375,85.9222412109375,59.26513671875
11.3299999,3.4620156288146973,0.2992752194404602,-9.533711433410645,-18.3258056640625,84.7625732421875,51.69677734375
11.3499999,3.77565598487854,0.12689268589019775,-9.26795482635498,20.8740234375,97.564697265625,36.376953125
11.3699999,4.065354347229004,-0.16998831927776337,-9.105149269104004,31.036376953125,98.5565185546875,40.9088134765625
11.389999900000001,4.335899353027344,-0.4812345504760742,-8.832210540771484,3.143310546875,106.842041015625,49.9420166015625
11.4099999,4.60165548324585,-0.7589619159698486,-8.401253700256348,2.6702880859375,126.2969970703125,40.0238037109375
11.4299999,4.884171485900879,-1.1252747774124146,-7.920019149780273,-6.439208984375,111.9384765625,29.72412109375
11.4499999,5.118803024291992,-1.4077905416488647,-7.340622425079346,-30.5023193359375,95.458984375,27.4810791015625
11.469999900000001,5.322310447692871,-1.5969325304031372,-6.947973251342773,-2.1820068359375,94.818115234375,33.1268310546875
11.4899999,5.497087001800537,-1.644816517829895,-6.701370716094971,17.1966552734375,94.390869140625,40.22216796875
11.5099999,5.679046630859375,-1.625662922859192,-6.600813865661621,7.6904296875,91.9342041015625,43.0755615234375
11.5299999,5.913678169250488,-1.7190368175506592,-6.567295074462891,-13.7481689453125,85.968017578125,44.586181640625
11.549999900000001,6.133944988250732,-1.86508309841156,-6.555324077606201,-23.712158203125,91.85791015625,37.7197265625
11.569999900000001,6.411672115325928,-2.1475989818573,-6.404489517211914,-18.4326171875,98.8006591796875,36.8804931640625
11.5899999,6.696582317352295,-2.5234885215759277,-6.09324312210083,-42.083740234375,92.041015625,38.8336181640625
11.6099999,6.964732646942139,-2.7317841053009033,-5.461174011230469,-72.3419189453125,75.9429931640625,28.9764404296875
11.629999900000001,7.268796443939209,-2.875436305999756,-4.675876140594482,-41.80908203125,53.802490234375,29.47998046875
11.649999900000001,7.479485988616943,-2.9688100814819336,-3.9600095748901367,-6.77490234375,38.0401611328125,38.116455078125
11.6699999,7.642292022705078,-3.071760892868042,-3.469198226928711,38.5284423828125,46.0662841796875,38.7115478515625
11.6899999,7.793126583099365,-3.3039982318878174,-3.141192674636841,32.89794921875,45.4864501953125,26.85546875
11.709999900000001,7.965508937835693,-3.576937437057495,-2.96162748336792,16.8914794921875,34.942626953125,17.8680419921875
11.729999900000001,8.092401504516602,-3.713406801223755,-2.959233283996582,-33.1268310546875,27.4658203125,17.242431640625
11.7499999,8.188169479370117,-3.737348794937134,-3.050212860107422,-77.606201171875,35.8734130859375,18.3563232421875
11.7699999,8.185775756835938,-3.6822822093963623,-3.2585084438323975,-3.47900390625,52.79541015625,20.5230712890625
11.7899999,8.08282470703125,-3.624821424484253,-3.6942532062530518,94.3145751953125,56.70166015625,28.38134765625
11.809999900000001,7.94635534286499,-3.8331170082092285,-3.825934410095215,50.1251220703125,60.1654052734375,21.1334228515625
11.8299999,7.824251174926758,-4.134786128997803,-3.8786067962646484,16.2506103515625,57.952880859375,14.9688720703125
11.8499999,7.766790390014648,-4.32871675491333,-3.8379054069519043,73.333740234375,50.201416015625,13.12255859375
11.8699999,7.802703380584717,-4.4508209228515625,-3.5266590118408203,103.240966796875,53.985595703125,12.5579833984375
11.889999900000001,7.850587368011475,-4.256890773773193,-3.0789434909820557,116.88232421875,59.5855712890625,16.998291015625
11.9099999,7.841010570526123,-3.890577793121338,-2.470816135406494,133.97216796875,56.5948486328125,21.30126953125
11.9299999,7.68538761138916,-3.576937437057495,-1.434126853942871,96.1456298828125,57.1441650390625,26.85546875
11.9499999,7.448361396789551,-3.383007049560547,0.10534487664699554,45.806884765625,62.6220703125,39.7796630859375
11.969999900000001,7.316680431365967,-3.533841609954834,1.8483237028121948,121.978759765625,66.2994384765625,84.8388671875
11.9899999,7.041347026824951,-3.993528366088867,3.7038300037384033,248.626708984375,60.150146484375,127.9754638671875
12.0099999,6.797138690948486,-4.81473970413208,5.846640586853027,274.5513916015625,95.21484375,158.63037109375
12.0299999,6.0190229415893555,-5.705382823944092,9.215282440185547,213.8519287109375,135.040283203125,189.666748046875
12.049999900000001,4.924872875213623,-7.117961883544922,17.032350540161133,248.1536865234375,122.9705810546875,228.515625
12.069999900000001,3.354276657104492,-7.603984832763672,29.70246696472168,268.157958984375,-62.3016357421875,195.5413818359375
12.0899999,-2.715024709701538,-10.139444351196289,45.39885330200195,125.640869140625,-500,187.3779296875
12.1099999,-14.757859230041504,-14.132972717285156,57.1519889831543,142.2576904296875,-500,175.1556396484375
12.129999900000001,-31.850065231323242,-19.61808967590332,55.72504425048828,-129.4708251953125,-500,26.824951171875
12.149999900000001,-52.01163864135742,-16.855180740356445,36.18596267700195,-500,-500,-205.7037353515625
12.1699999,-61.454368591308594,-7.888894557952881,4.168305397033691,-500,-500,-182.7545166015625
12.1899999,-61.2388916015625,-2.8371291160583496,-24.37297248840332,499.9847412109375,-35.430908203125,317.2760009765625
12.209999900000001,-49.81615447998047,4.6040496826171875,-42.88733673095703,370.78857421875,82.977294921875,-32.2113037109375
12.229999900000001,-32.94660949707031,5.851428985595703,-44.28554916381836,-500,32.501220703125,-422.2259521484375
12.2499999,-17.74821662902832,5.480327606201172,-34.21074676513672,-146.942138671875,9.6588134765625,-159.454345703125
12.2699999,-6.366182327270508,9.478644371032715,-22.95800018310547,115.203857421875,-8.392333984375,39.7491455078125
12.289999900000002,1.0534487962722778,12.339715957641602,-13.692439079284668,-101.25732421875,-19.1802978515625,-16.693115234375
12.309999900000001,4.256890773773193,10.92953109741211,-7.738059997558594,-205.169677734375,20.3094482421875,-76.934814453125
12.3299999,4.223371982574463,7.436390399932861,-5.0685248374938965,-107.3150634765625,34.97314453125,-71.96044921875
12.3499999,2.4636335372924805,4.110844135284424,-4.290409564971924,-53.070068359375,15.6707763671875,-32.7606201171875
12.3699999,0.4620809257030487,1.9800047874450684,-4.505887508392334,-60.272216796875,-16.7999267578125,-19.10400390625
12.389999900000001,-1.0582371950149536,0.8140285611152649,-5.688623428344727,-53.466796875,-36.1175537109375,-35.6597900390625
12.4099999,-1.7980455160140991,0.12449848651885986,-7.194576263427734,-38.9862060546875,-10.650634765625,-42.572021484375
12.4299999,-1.9273324012756348,0.15322890877723694,-8.813055992126465,-29.4342041015625,9.490966796875,-31.8603515625
12.4499999,-1.6352397203445435,0.44532153010368347,-9.77791976928711,-9.27734375,5.1116943359375,-17.059326171875
12.469999900000001,-1.1875240802764893,0.6153098344802856,-10.041281700134277,-18.707275390625,-5.4779052734375,-17.63916015625
12.4899999,-0.7709329724311829,0.6799532771110535,-10.091560363769531,-13.4735107421875,-11.566162109375,-28.411865234375
12.5099999,-0.45250412821769714,0.6967126727104187,-9.986215591430664,-18.61572265625,-3.2958984375,-29.388427734375
12.5299999,-0.23942017555236816,0.7422025203704834,-9.835380554199219,-35.0494384765625,4.180908203125,-16.693115234375
12.549999900000001,-0.014365210197865963,0.8595184087753296,-9.586383819580078,-33.4625244140625,-3.4332275390625,-10.0860595703125
12.569999900000001,0.2106897532939911,0.8954314589500427,-9.334992408752441,-41.015625,-12.9852294921875,-18.3258056640625
12.5899999,0.3280056416988373,0.7230489253997803,-9.423578262329102,-40.374755859375,-14.3890380859375,-25.9857177734375
12.6099999,0.31364041566848755,0.524330198764801,-9.861717224121094,-25.390625,-1.5869140625,-24.2919921875
12.629999900000001,0.2106897532939911,0.3016694188117981,-10.414777755737305,-26.763916015625,16.2506103515625,-28.533935546875
12.649999900000001,0.13407529890537262,0.3663128614425659,-10.852916717529297,-30.6549072265625,13.8397216796875,-46.2188720703125
12.6699999,0.19632454216480255,0.6799532771110535,-10.773907661437988,-26.824951171875,1.373291015625,-47.9888916015625
12.6899999,0.2753331959247589,1.0654197931289673,-10.350133895874023,-89.813232421875,-15.777587890625,-23.92578125
12.709999900000001,0.43335050344467163,1.4724340438842773,-9.849745750427246,-71.1822509765625,-19.6533203125,3.2501220703125
12.729999900000001,0.4812345504760742,1.5131354331970215,-9.567230224609375,-18.4326171875,-12.1612548828125,7.5836181640625
12.7499999,0.5147533416748047,1.1851298809051514,-9.576807022094727,-33.7982177734375,-4.82177734375,-4.7760009765625
12.7699999,0.47165772318840027,0.8259995579719543,-9.909601211547852,-30.21240234375,2.3345947265625,-15.6097412109375
12.789999900000002,0.4165911078453064,0.6488286852836609,-10.235212326049805,-8.4686279296875,16.082763671875,-14.9993896484375
12.809999900000001,0.3663128614425659,0.6775590777397156,-10.374075889587402,-2.166748046875,25.6805419921875,-6.0577392578125
12.8299999,0.35673606395721436,0.8236053586006165,-10.271124839782715,-10.6201171875,15.0604248046875,-0.518798828125
12.8499999,0.40940847992897034,0.9433154463768005,-9.911994934082031,9.7198486328125,5.889892578125,-1.8157958984375
12.8699999,0.5099649429321289,0.9528923034667969,-9.53849983215332,32.2265625,7.4615478515625,-0.2288818359375
12.889999900000001,0.6584054827690125,0.9481038451194763,-9.294290542602539,26.55029296875,7.2479248046875,-6.3018798828125
12.9099999,0.8427590131759644,0.993593692779541,-9.229647636413574,10.43701171875,3.0364990234375,-12.63427734375
12.9299999,1.0007762908935547,1.1228805780410767,-9.29189682006836,20.0653076171875,-0.2899169921875,-17.6544189453125
12.9499999,1.0965443849563599,1.2689268589019775,-9.493009567260742,30.5633544921875,-2.777099609375,-11.5814208984375
12.969999900000001,1.1085153818130493,1.237802267074585,-9.624691009521484,5.7220458984375,1.5106201171875,-3.8909912109375
12.9899999,1.048660397529602,1.1013327836990356,-9.6989107131958,-23.895263671875,6.103515625,-15.960693359375
13.0099999,0.9648633003234863,0.9552865028381348,-9.682151794433594,-27.6641845703125,-0.8697509765625,-24.90234375
13.0299999,0.8643068075180054,1.0678139925003052,-9.62947940826416,-31.0211181640625,-7.843017578125,-18.06640625
13.049999900000001,0.7972691655158997,1.3766659498214722,-9.567230224609375,-34.8358154296875,0.5340576171875,-2.2735595703125
13.069999900000001,0.7493851184844971,1.8124107122421265,-9.44991397857666,-32.470703125,-2.6702880859375,-3.1585693359375
13.0899999,0.7493851184844971,1.9536685943603516,-9.241618156433105,-55.2825927734375,-22.0794677734375,-6.866455078125
13.1099999,0.7733271718025208,1.845929503440857,-9.071630477905273,-47.7142333984375,-37.5213623046875,-7.0037841796875
13.129999900000001,0.7015010714530945,1.623268723487854,-9.026140213012695,-18.7225341796875,-26.275634765625,-10.8184814453125
13.149999900000001,0.5937620401382446,1.4652514457702637,-9.162610054016113,-12.481689453125,-9.3231201171875,-6.4544677734375
13.1699999,0.45010992884635925,1.4915876388549805,-9.38048267364502,0.3204345703125,-8.819580078125,1.03759765625
13.1899999,0.3495534360408783,1.6376339197158813,-9.536105155944824,9.8419189453125,-13.5040283203125,2.044677734375
13.209999900000001,0.33518823981285095,1.7980455160140991,-9.600749015808105,9.33837890625,-15.411376953125,-2.5787353515625
13.229999900000001,0.3208230137825012,1.9273324012756348,-9.701305389404297,10.1165771484375,-12.9852294921875,-7.659912109375
13.2499999,0.31603461503982544,1.9153614044189453,-9.768342971801758,22.2625732421875,-3.9520263671875,-3.2196044921875
13.2699999,0.28969839215278625,1.764526605606079,-9.737217903137207,40.252685546875,0.7476806640625,-3.0364990234375
13.289999900000002,0.26815059781074524,1.5083470344543457,-9.531316757202148,29.60205078125,-7.01904296875,-6.622314453125
13.309999900000001,0.2561795711517334,1.2258312702178955,-9.313444137573242,-4.57763671875,-19.4854736328125,-7.904052734375
13.3299999,0.22744916379451752,1.1204863786697388,-9.186552047729492,0.4730224609375,-17.2271728515625,-8.514404296875
13.3499999,0.20111294090747833,1.115697979927063,-9.220070838928223,14.5416259765625,-2.4566650390625,-1.3427734375
13.3699999,0.1364694982767105,1.1276689767837524,-9.32541561126709,-10.6964111328125,4.3487548828125,2.5787353515625
13.389999900000001,0.0933738648891449,1.072602391242981,-9.366117477416992,-32.928466796875,-2.899169921875,-0.640869140625
13.4099999,0.05985504388809204,0.9433154463768005,-9.346963882446289,-23.7579345703125,-13.8397216796875,-3.3111572265625
13.4299999,0.047884032130241394,0.828393816947937,-9.387664794921875,-16.448974609375,-13.3209228515625,-4.364013671875
13.4499999,0.05267243832349777,0.8307880163192749,-9.469067573547363,-12.26806640625,-5.4779052734375,-4.1351318359375
13.469999900000001,0.05746084079146385,0.9792284965515137,-9.612719535827637,-9.1094970703125,-4.119873046875,-8.2244873046875
13.4899999,0.038307227194309235,1.2210428714752197,-9.734824180603027,-12.1307373046875,-10.7574462890625,-9.21630859375
13.5099999,0.009576806798577309,1.4293384552001953,-9.768342971801758,-22.1710205078125,-10.4522705078125,-7.5836181640625
13.5299999,-0.05746084079146385,1.6136919260025024,-9.775525093078613,-36.224365234375,-7.87353515625,-12.4359130859375
13.549999900000001,-0.12928688526153564,1.7286136150360107,-9.765948295593262,-31.829833984375,-10.284423828125,-16.0675048828125
13.569999900000001,-0.2849099934101105,1.9991583824157715,-9.727641105651855,5.401611328125,-9.2926025390625,-12.02392578125
13.5899999,-0.31364041566848755,2.1595699787139893,-9.75397777557373,20.5230712890625,-7.5836181640625,-4.94384765625
13.6099999,-0.3232172429561615,2.2457611560821533,-9.770736694335938,2.3345947265625,-2.3040771484375,-4.2572021484375
13.629999900000001,-0.3280056416988373,2.319981336593628,-9.876082420349121,-13.336181640625,-6.0272216796875,-9.063720703125
13.649999900000001,-0.363918662071228,2.3511061668395996,-9.93354320526123,-12.0086669921875,-2.4261474609375,-5.645751953125
13.6699999,-0.395043283700943,2.341529369354248,-10.043676376342773,7.8277587890625,3.9215087890625,0.5645751953125
13.6899999,-0.4118026793003082,2.2361843585968018,-10.077195167541504,31.0211181640625,7.843017578125,2.197265625
13.709999900000001,-0.40222588181495667,2.0638017654418945,-9.964667320251465,41.68701171875,10.833740234375,-5.950927734375
13.729999900000001,-0.40462008118629456,1.886630892753601,-9.883264541625977,23.01025390625,1.5716552734375,-7.87353515625
13.7499999,-0.4381389021873474,1.7741034030914307,-9.799467086791992,5.401611328125,0.7781982421875,1.617431640625
13.7699999,-0.49799394607543945,1.7286136150360107,-9.797073364257812,15.0909423828125,10.772705078125,5.9051513671875
13.789999900000002,-0.5123591423034668,1.6136919260025024,-9.864110946655273,19.7296142578125,12.298583984375,5.2032470703125
13.809999900000001,-0.5219359993934631,1.4460978507995605,-9.821015357971191,15.045166015625,11.5814208984375,-6.072998046875
13.8299999,-0.5578489899635315,1.3742717504501343,-9.765948295593262,7.0037841796875,8.4075927734375,-13.24462890625
13.8499999,-0.6512228846549988,1.4460978507995605,-9.797073364257812,2.105712890625,5.06591796875,-1.8463134765625
13.8699999,-0.7206547260284424,1.5131354331970215,-9.864110946655273,20.111083984375,11.71875,12.1612548828125
13.889999900000001,-0.7110779285430908,1.5059528350830078,-9.914389610290527,31.2957763671875,16.693115234375,3.7841796875
13.9099999,-0.6129156351089478,1.4101848602294922,-9.880870819091797,9.2315673828125,11.8865966796875,-11.627197265625
13.9299999,-0.4908113479614258,1.3527239561080933,-9.794678688049316,-10.1318359375,3.0059814453125,-16.1285400390625
13.9499999,-0.395043283700943,1.4772224426269531,-9.794678688049316,-2.0904541015625,3.6468505859375,-7.1258544921875
13.969999900000001,-0.33758243918418884,1.644816517829895,-9.758766174316406,5.615234375,16.7236328125,1.007080078125
13.9899999,-0.2825157940387726,1.821987509727478,-9.763554573059082,0.213623046875,15.289306640625,-6.5155029296875
14.0099999,-0.2298433631658554,1.9273324012756348,-9.677363395690918,-22.2015380859375,0.7476806640625,-13.36669921875
14.0299999,-0.17717093229293823,2.0015525817871094,-9.528923034667969,-23.4832763671875,-1.9378662109375,-7.904052734375
14.049999900000001,-0.15562310814857483,2.0446481704711914,-9.473855972290039,-14.8162841796875,0.9765625,-0.3814697265625
14.069999900000001,-0.1388636976480484,1.9608511924743652,-9.399636268615723,-6.195068359375,6.195068359375,0.244140625
14.0899999,-0.11971008777618408,1.8171991109848022,-9.334992408752441,-4.94384765625,1.0528564453125,-7.32421875
14.1099999,-0.14604631066322327,1.680729627609253,-9.279925346374512,-22.8271484375,-7.75146484375,-13.1683349609375
14.129999900000001,-0.19393034279346466,1.6519991159439087,-9.296685218811035,-18.5394287109375,-6.683349609375,-6.805419921875
14.149999900000001,-0.24660277366638184,1.742978811264038,-9.32541561126709,10.406494140625,3.47900390625,-1.8157958984375
14.1699999,-0.28730419278144836,1.800439715385437,-9.344569206237793,14.2364501953125,4.119873046875,-3.753662109375
14.1899999,-0.2849099934101105,1.8507179021835327,-9.299078941345215,-6.1187744140625,-5.7830810546875,-8.0718994140625
14.209999900000001,-0.2968810200691223,1.8722656965255737,-9.248801231384277,-25.6500244140625,-10.9100341796875,-8.1939697265625
14.229999900000001,-0.35673606395721436,1.941697597503662,-9.330204010009766,-27.3895263671875,-7.232666015625,-5.3253173828125
14.2499999,-0.42856210470199585,1.9752163887023926,-9.493009567260742,-1.2664794921875,1.0986328125,3.387451171875
14.2699999,-0.5147533416748047,1.9153614044189453,-9.634267807006836,23.223876953125,5.859375,2.3345947265625
14.289999900000002,-0.5650315880775452,1.778891921043396,-9.636661529541016,11.65771484375,0.823974609375,-4.8980712890625
14.309999900000001,-0.6200982332229614,1.6400281190872192,-9.57201862335205,-11.0626220703125,-8.6517333984375,-6.89697265625
14.3299999,-0.6991068720817566,1.6208745241165161,-9.57201862335205,-14.251708984375,-10.894775390625,-1.3275146484375
14.3499999,-0.7972691655158997,1.7381904125213623,-9.648633003234863,0.640869140625,-0.9307861328125,4.974365234375
14.3699999,-0.8762778043746948,1.9033904075622559,-9.742006301879883,3.3416748046875,5.9967041015625,6.2713623046875
14.389999900000001,-0.8882488012313843,2.0207061767578125,-9.797073364257812,-1.6021728515625,-1.617431640625,5.401611328125
14.4099999,-0.8619126081466675,2.073378562927246,-9.792284965515137,1.2664794921875,-5.1422119140625,1.8310546875
14.4299999,-0.7972691655158997,2.099714994430542,-9.830592155456543,6.622314453125,0.213623046875,1.52587890625
14.4499999,-0.7374141216278076,2.145204782485962,-9.883264541625977,7.8582763671875,10.223388671875,3.7994384765625
14.469999900000001,-0.727837324142456,2.2673089504241943,-9.93354320526123,1.6326904296875,10.894775390625,3.875732421875
14.4899999,-0.7230489253997803,2.3726539611816406,-9.93593692779541,0.1678466796875,2.5634765625,8.9569091796875
14.5099999,-0.7398083209991455,2.4372973442077637,-9.909601211547852,5.7220458984375,2.0904541015625,13.214111328125
14.5299999,-0.7350199222564697,2.382230758666992,-9.950302124023438,2.38037109375,5.9051513671875,14.6331787109375
14.549999900000001,-0.7206547260284424,2.2601263523101807,-9.988609313964844,7.7056884765625,12.6953125,11.5509033203125
14.569999900000001,-0.6967126727104187,2.145204782485962,-10.06043529510498,4.5318603515625,10.1470947265625,7.4615478515625
14.5899999,-0.6991068720817566,2.123656988143921,-10.079588890075684,-7.568359375,8.11767578125,4.8980712890625
14.6099999,-0.7350199222564697,2.2385785579681396,-10.1753568649292,-9.429931640625,8.941650390625,8.880615234375
14.629999900000001,-0.7996633648872375,2.4133553504943848,-10.338163375854492,1.4801025390625,15.44189453125,17.364501953125
14.649999900000001,-0.8379706144332886,2.5522189140319824,-10.47702693939209,19.775390625,26.9317626953125,22.15576171875
14.6699999,-0.8020575642585754,2.516305923461914,-10.47702693939209,19.34814453125,30.3497314453125,23.529052734375
14.6899999,-0.6703764796257019,2.3750481605529785,-10.211270332336426,5.43212890625,27.5726318359375,17.1966552734375
14.709999900000001,-0.47884035110473633,2.2409727573394775,-9.86889934539795,-10.406494140625,16.7236328125,11.1541748046875
14.729999900000001,-0.26575639843940735,2.2218191623687744,-9.564835548400879,-16.11328125,13.97705078125,15.5487060546875
14.7499999,-0.08379705995321274,2.3774423599243164,-9.354146003723145,-6.6070556640625,25.2532958984375,24.810791015625
14.7699999,0.07422025501728058,2.5785553455352783,-9.260771751403809,-1.2054443359375,25.7110595703125,30.4718017578125
14.789999900000002,0.22744916379451752,2.6575639247894287,-9.20091724395752,0.0457763671875,14.9078369140625,32.9132080078125
14.809999900000001,0.38307225704193115,2.6024973392486572,-9.205705642700195,-0.8087158203125,10.345458984375,30.8685302734375
14.8299999,0.5363011956214905,2.5019407272338867,-9.255983352661133,-6.8206787109375,15.0146484375,30.609130859375
14.8499999,0.6775590777397156,2.33913516998291,-9.346963882446289,-21.9268798828125,14.4500732421875,34.9273681640625
14.8699999,0.7972691655158997,2.296039342880249,-9.44752025604248,-23.98681640625,5.9967041015625,34.24072265625
14.889999900000001,0.9050082564353943,2.229001760482788,-9.583989143371582,-13.7939453125,4.6539306640625,35.0799560546875
14.9099999,1.0199298858642578,2.1045033931732178,-9.646238327026367,-2.5634765625,16.17431640625,39.0625
14.9299999,1.1228805780410767,1.9943699836730957,-9.660603523254395,9.063720703125,20.5841064453125,35.308837890625
14.9499999,1.2234370708465576,1.8555063009262085,-9.59835433959961,-1.861572265625,6.1492919921875,33.935546875
14.969999900000001,1.2856862545013428,1.7070658206939697,-9.512163162231445,-25.1312255859375,-0.6866455078125,35.5682373046875
14.9899999,1.2952631711959839,1.644816517829895,-9.519346237182617,-30.029296875,8.697509765625,33.203125
15.0099999,1.3096283674240112,1.5849615335464478,-9.619902610778809,-12.5885009765625,17.7154541015625,32.684326171875
15.0299999,1.359906554222107,1.50355863571167,-9.677363395690918,2.6397705078125,18.402099609375,34.6221923828125
15.049999900000001,1.4724340438842773,1.4269442558288574,-9.524134635925293,14.7552490234375,20.08056640625,29.876708984375
15.069999900000001,1.625662922859192,1.41257905960083,-9.277531623840332,7.75146484375,14.7705078125,22.5830078125
15.0899999,1.7741034030914307,1.4867992401123047,-9.105149269104004,-18.890380859375,5.584716796875,25.5126953125
15.1099999,1.8746598958969116,1.644816517829895,-9.038111686706543,-22.0184326171875,10.25390625,31.5399169921875
15.129999900000001,1.9584569931030273,1.7764976024627686,-9.117119789123535,0.3204345703125,17.7764892578125,34.637451171875
15.149999900000001,2.032677173614502,1.7884687185287476,-9.27034854888916,7.01904296875,12.4359130859375,31.6009521484375
15.1699999,2.1140801906585693,1.699883222579956,-9.373299598693848,5.126953125,9.918212890625,25.69580078125
15.1899999,2.2002713680267334,1.5945383310317993,-9.423578262329102,0.8392333984375,12.02392578125,23.37646484375
15.209999900000001,2.274491548538208,1.577778935432434,-9.47146224975586,-9.5672607421875,12.7716064453125,23.5595703125
15.229999900000001,2.341529369354248,1.6208745241165161,-9.464279174804688,-12.7105712890625,12.298583984375,25.4058837890625
15.2499999,2.4157495498657227,1.6855180263519287,-9.435548782348633,5.1116943359375,13.3819580078125,26.9927978515625
15.2699999,2.4851813316345215,1.6903064250946045,-9.370905876159668,13.61083984375,15.0604248046875,26.85546875
15.289999900000002,2.5474305152893066,1.6160861253738403,-9.289502143859863,5.3558349609375,16.0369873046875,26.3671875
15.309999900000001,2.6001031398773193,1.4939818382263184,-9.27034854888916,-4.1351318359375,11.5203857421875,27.0233154296875
15.3299999,2.6240451335906982,1.3479355573654175,-9.41639518737793,-5.9051513671875,10.5133056640625,27.7862548828125
15.3499999,2.655169725418091,1.1971008777618408,-9.605537414550781,7.3089599609375,22.308349609375,29.205322265625
15.3699999,2.7030537128448486,1.0342950820922852,-9.818621635437012,17.1966552734375,28.25927734375,28.167724609375
15.389999900000001,2.7940332889556885,0.8619126081466675,-9.945513725280762,-5.8441162109375,20.9808349609375,24.9176025390625
15.4099999,2.889801502227783,0.7757213711738586,-9.988609313964844,-25.909423828125,18.5546875,21.3470458984375
15.4299999,2.9664158821105957,0.8212111592292786,-10.122684478759766,-26.1688232421875,25.8026123046875,24.658203125
15.4499999,2.9927520751953125,0.950498104095459,-10.199298858642578,-12.5732421875,41.93115234375,32.5775146484375
15.469999900000001,3.028665065765381,1.1324573755264282,-10.15141487121582,-1.861572265625,46.4935302734375,38.5284423828125
15.4899999,3.0765492916107178,1.2258312702178955,-9.955090522766113,-1.312255859375,35.7513427734375,37.261962890625
15.5099999,3.162740468978882,1.216254472732544,-9.672574996948242,-20.6146240234375,32.684326171875,34.7900390625
15.5299999,3.287238836288452,1.1492167711257935,-9.406818389892578,-21.3775634765625,42.999267578125,35.919189453125
15.549999900000001,3.399766445159912,1.113303780555725,-9.172186851501465,-12.02392578125,50.6591796875,35.003662109375
15.569999900000001,3.5266590118408203,1.070208191871643,-8.951920509338379,-9.9945068359375,40.46630859375,35.21728515625
15.5899999,3.663128614425659,1.0630255937576294,-8.688557624816895,-6.3018798828125,29.876708984375,33.6151123046875
15.6099999,3.8091750144958496,1.036689281463623,-8.429984092712402,3.692626953125,29.052734375,31.280517578125
15.629999900000001,3.974374771118164,0.9696516990661621,-8.307879447937012,-2.01416015625,26.79443359375,35.9649658203125
15.649999900000001,4.137180328369141,0.9026140570640564,-8.26239013671875,-26.092529296875,27.0538330078125,36.2701416015625
15.6699999,4.302380561828613,0.8571242094039917,-8.2312650680542,-44.2657470703125,30.09033203125,32.3638916015625
15.6899999,4.462791919708252,0.8307880163192749,-8.180987358093262,-32.470703125,30.975341796875,31.1126708984375
15.709999900000001,4.599261283874512,0.8667010068893433,-8.109161376953125,-24.017333984375,25.9552001953125,31.9976806640625
15.729999900000001,4.72376012802124,0.8762778043746948,-7.955932140350342,-19.3939208984375,22.369384765625,31.8756103515625
15.7499999,4.8267107009887695,0.9217676520347595,-7.7763671875,-14.09912109375,22.15576171875,28.076171875
15.7699999,4.898536682128906,0.9552865028381348,-7.632715225219727,-16.754150390625,17.8985595703125,26.91650390625
15.789999900000002,4.946420669555664,1.0199298858642578,-7.6351094245910645,-13.824462890625,14.2059326171875,29.5867919921875
15.809999900000001,4.970362663269043,1.0582371950149536,-7.723694801330566,-1.495361328125,21.5301513671875,34.2254638671875
15.8299999,5.015852451324463,0.9744400978088379,-7.8529815673828125,14.434814453125,28.289794921875,36.9873046875
15.8499999,5.0900726318359375,0.7661445140838623,-7.989450931549072,9.033203125,20.99609375,30.6243896484375
15.869999900000002,5.17626428604126,0.49320554733276367,-8.097189903259277,-4.3487548828125,14.4805908203125,20.81298828125
15.889999900000001,5.284003257751465,0.272938996553421,-8.24084186553955,-1.52587890625,18.4326171875,20.5230712890625
15.9099999,5.377377033233643,0.19393034279346466,-8.403648376464844,6.9732666015625,26.9775390625,23.223876953125
15.9299999,5.458779811859131,0.22026655077934265,-8.516175270080566,-3.5400390625,29.47998046875,25.2227783203125
15.9499999,5.552153587341309,0.24660277366638184,-8.432378768920898,-6.195068359375,26.702880859375,25.8026123046875
15.969999900000001,5.640739440917969,0.2561795711517334,-8.2312650680542,6.04248046875,23.0712890625,23.406982421875
15.9899999,5.70777702331543,0.2346317619085312,-7.939172744750977,3.7384033203125,23.8800048828125,23.1170654296875
16.0099999,5.75326681137085,0.22266076505184174,-7.625532627105713,-3.7078857421875,19.805908203125,25.390625
16.0299999,5.75326681137085,0.272938996553421,-7.599195957183838,-10.345458984375,6.927490234375,30.853271484375
16.0499999,5.714959621429443,0.38546648621559143,-7.7643961906433105,-16.0064697265625,18.73779296875,37.261962890625
16.0699999,5.681440830230713,0.43335050344467163,-7.86734676361084,-3.84521484375,35.858154296875,43.9605712890625
16.089999900000002,5.75326681137085,0.4884171485900879,-8.149862289428711,-15.1214599609375,18.1427001953125,55.84716796875
16.109999900000002,5.825092792510986,0.5482721924781799,-8.29830265045166,-37.7655029296875,17.4102783203125,56.1981201171875
16.1299999,6.0405707359313965,0.5386953949928284,-8.401253700256348,-7.659912109375,37.41455078125,67.4591064453125
16.1499999,6.311115741729736,0.3471592366695404,-8.51138687133789,46.7681884765625,49.6826171875,77.69775390625
16.1699999,6.555324077606201,-0.07182604819536209,-8.547300338745117,29.327392578125,57.891845703125,69.39697265625
16.1899999,6.809109687805176,-0.6967126727104187,-8.367734909057617,22.3236083984375,64.208984375,55.7861328125
16.2099999,6.94079065322876,-1.4221558570861816,-7.876923561096191,32.77587890625,81.8328857421875,50.506591796875
16.2299999,7.022193431854248,-2.0039467811584473,-7.237671852111816,10.528564453125,80.2459716796875,55.328369140625
16.249999900000002,7.110779285430908,-2.5306711196899414,-6.205770969390869,8.9111328125,73.7152099609375,52.490234375
16.269999900000002,7.225700855255127,-2.808398485183716,-5.216965675354004,55.328369140625,57.769775390625,35.369873046875
16.2899999,7.357381820678711,-2.9041666984558105,-4.520252704620361,53.8482666015625,41.839599609375,26.458740234375
16.3099999,7.522581577301025,-2.964021682739258,-4.05817174911499,28.99169921875,49.4384765625,32.379150390625
16.3299999,7.647080421447754,-2.9089550971984863,-3.909731388092041,40.10009765625,55.9234619140625,24.169921875
16.3499999,7.773972988128662,-3.066972494125366,-3.93367338180542,4.8675537109375,41.1224365234375,17.88330078125
16.3699999,7.91283655166626,-3.313575267791748,-3.758896589279175,-45.257568359375,37.1551513671875,12.8173828125
16.3899999,8.039729118347168,-3.550601005554199,-3.6343982219696045,-26.702880859375,36.7889404296875,7.2784423828125
16.4099999,8.125920295715332,-3.73016619682312,-3.4787750244140625,-12.7716064453125,30.9906005859375,5.9967041015625
16.429999900000002,8.20492935180664,-3.821146011352539,-3.2632968425750732,-12.664794921875,30.242919921875,5.7830810546875
16.4499999,8.238448143005371,-3.931279182434082,-2.9041666984558105,-1.434326171875,32.989501953125,3.84521484375
16.4699999,8.255207061767578,-3.9600095748901367,-2.3798365592956543,32.3486328125,19.622802734375,2.4871826171875
16.4899999,8.271966934204102,-3.9264907836914062,-1.7046716213226318,44.8760986328125,0.79345703125,8.2550048828125
16.5099999,8.334216117858887,-3.77565598487854,-0.9864110946655273,24.6734619140625,-3.692626953125,21.484375
16.5299999,8.564059257507324,-3.514688014984131,-0.3519476354122162,38.1622314453125,5.92041015625,41.8701171875
16.5499999,9.033323287963867,-3.3638534545898438,0.44532153010368347,68.8629150390625,18.402099609375,78.765869140625
16.5699999,9.821015357971191,-3.507505416870117,1.9847931861877441,104.4464111328125,41.015625,133.4075927734375
16.589999900000002,10.649409294128418,-4.484339714050293,5.827486991882324,175.2777099609375,103.8360595703125,203.338623046875
16.609999900000002,11.166556358337402,-7.043741226196289,15.67962646484375,282.3944091796875,192.2607421875,266.8609619140625
16.6299999,10.232817649841309,-12.315773963928223,29.913156509399414,306.549072265625,-1.708984375,264.9993896484375
16.6499999,2.0374655723571777,-22.170307159423828,46.91917037963867,284.5916748046875,-500,185.5621337890625
16.6699999,-12.516886711120605,-33.83007049560547,56.287681579589844,-148.5748291015625,-500,-32.6690673828125
16.6899999,-33.243492126464844,-36.257789611816406,50.17768096923828,-500,-500,-500
16.7099999,-52.701168060302734,-26.271575927734375,26.839000701904297,-500,-500,-500
16.7299999,-61.466339111328125,-10.228029251098633,-5.262455463409424,-281.5093994140625,-436.03515625,74.70703125
16.749999900000002,-59.26128005981445,1.7693150043487549,-32.01287078857422,499.9847412109375,-31.463623046875,341.73583984375
16.769999900000002,-47.644615173339844,12.18648624420166,-43.29674530029297,-336.2579345703125,244.1558837890625,-406.2957763671875
16.7899999,-30.851682662963867,13.048398971557617,-37.66558074951172,-500,217.6971435546875,-335.7086181640625
16.8099999,-16.421829223632812,15.203181266784668,-22.088905334472656,291.6259765625,-21.6064453125,-2.9144287109375
16.8299999,-4.955997467041016,19.24698829650879,-7.690176010131836,151.153564453125,-97.991943359375,21.514892578125
16.8499999,2.2026655673980713,18.847156524658203,1.094150185585022,-184.99755859375,-51.422119140625,-74.0966796875
16.8699999,4.367023944854736,14.788984298706055,2.537853717803955,-247.6806640625,-14.6484375,-102.630615234375
16.8899999,3.428496837615967,10.20648193359375,0.023942016065120697,-103.271484375,3.0975341796875,-64.9261474609375
16.9099999,1.3239935636520386,6.605602264404297,-3.598485231399536,-20.721435546875,3.6163330078125,-29.510498046875
16.929999900000002,-0.8451532125473022,4.060565948486328,-6.799532890319824,-27.1759033203125,-4.45556640625,-41.8853759765625
16.9499999,-2.2912509441375732,2.2625205516815186,-9.124302864074707,3.0364990234375,6.6375732421875,-56.0455322265625
16.9699999,-2.9688100814819336,1.659181833267212,-10.611102104187012,64.178466796875,27.4505615234375,-48.9501953125
16.9899999,-2.964021682739258,1.9943699836730957,-11.168951034545898,60.6231689453125,28.5797119140625,-36.6668701171875
17.0099999,-2.585737943649292,2.406172752380371,-10.821791648864746,27.374267578125,9.4451904296875,-30.33447265625
17.0299999,-2.078166961669922,2.5713725090026855,-10.108319282531738,18.6309814453125,-6.072998046875,-34.9884033203125
17.0499999,-1.6855180263519287,2.406172752380371,-9.682151794433594,8.0108642578125,-4.39453125,-41.8243408203125
17.0699999,-1.403002142906189,2.1763293743133545,-9.47146224975586,-22.1710205078125,10.3759765625,-40.2374267578125
17.089999900000002,-1.2330138683319092,2.011129379272461,-9.466673851013184,-58.2427978515625,1.8157958984375,-33.0810546875
17.109999900000002,-1.036689281463623,1.98958158493042,-9.457097053527832,-75.103759765625,-19.256591796875,-29.266357421875
17.1299999,-0.9026140570640564,2.1978771686553955,-9.586383819580078,-58.1512451171875,-23.284912109375,-29.7698974609375
17.1499999,-0.7829039692878723,2.4181437492370605,-9.938331604003906,-31.829833984375,-3.0364990234375,-13.397216796875
17.1699999,-0.730231523513794,2.5043349266052246,-10.369287490844727,-16.78466796875,13.214111328125,-0.48828125
17.1899999,-0.6799532771110535,2.454056739807129,-10.642226219177246,-9.0484619140625,15.0604248046875,-4.9285888671875
17.2099999,-0.6200982332229614,2.1284453868865967,-10.654197692871094,-6.103515625,11.383056640625,-15.07568359375
17.2299999,-0.586579442024231,2.049436569213867,-10.553641319274902,20.660400390625,16.6168212890625,-17.4407958984375
17.249999900000002,-0.5626373887062073,2.1499931812286377,-10.295066833496094,15.5181884765625,25.970458984375,-1.5106201171875
17.269999900000002,-0.545877993106842,2.3104045391082764,-9.95748519897461,-5.92041015625,22.03369140625,13.0157470703125
17.2899999,-0.5171475410461426,2.3247697353363037,-9.53849983215332,-21.17919921875,7.476806640625,0.9765625
17.3099999,-0.5027823448181152,2.1284453868865967,-9.193734169006348,-29.937744140625,-1.9073486328125,-16.265869140625
17.3299999,-0.49559974670410156,2.006340980529785,-9.071630477905273,-31.707763671875,-0.1983642578125,-16.7999267578125
17.3499999,-0.5123591423034668,2.1930887699127197,-9.050082206726074,-25.1922607421875,9.70458984375,-7.3394775390625
17.3699999,-0.5123591423034668,2.4612393379211426,-9.131484985351562,-8.087158203125,4.3182373046875,6.1187744140625
17.3899999,-0.4908113479614258,2.5689783096313477,-9.097966194152832,10.68115234375,-3.7078857421875,4.852294921875
17.409999900000003,-0.45250412821769714,2.432508945465088,-9.057265281677246,8.60595703125,-4.33349609375,-6.134033203125
17.429999900000002,-0.3902548849582672,2.1739351749420166,-9.074024200439453,9.918212890625,-5.3863525390625,-8.8958740234375
17.4499999,-0.38546648621559143,2.0183119773864746,-9.198522567749023,21.636962890625,-5.6915283203125,-6.28662109375
17.4699999,-0.42616790533065796,1.9560627937316895,-9.445125579833984,21.148681640625,-2.166748046875,-1.373291015625
17.4899999,-0.47405192255973816,1.8411411046981812,-9.715670585632324,3.7994384765625,3.2196044921875,2.0751953125
17.5099999,-0.5051765441894531,1.764526605606079,-9.974244117736816,3.5552978515625,4.9896240234375,-5.035400390625
17.5299999,-0.4884171485900879,1.7501614093780518,-10.127472877502441,2.7618408203125,1.52587890625,-12.3443603515625
17.5499999,-0.4884171485900879,1.867477297782898,-10.232817649841309,-1.2054443359375,-0.9918212890625,-7.2021484375
17.5699999,-0.5219359993934631,2.0015525817871094,-10.201693534851074,6.34765625,4.8675537109375,1.1749267578125
17.589999900000002,-0.6224924325942993,1.9967641830444336,-10.072406768798828,7.8582763671875,9.7198486328125,-2.105712890625
17.609999900000002,-0.7493851184844971,1.8148049116134644,-9.81143856048584,-0.1373291015625,6.5765380859375,-9.521484375
17.6299999,-0.8667010068893433,1.6543933153152466,-9.512163162231445,9.0179443359375,2.166748046875,-14.0838623046875
17.6499999,-0.9552865028381348,1.599326729774475,-9.308655738830566,17.913818359375,2.5482177734375,-7.38525390625
17.6699999,-1.015141487121582,1.6519991159439087,-9.217676162719727,22.88818359375,7.171630859375,-1.4495849609375
17.6899999,-1.0271124839782715,1.7573440074920654,-9.222464561462402,37.3382568359375,8.9263916015625,-6.5155029296875
17.7099999,-0.993593692779541,1.7477672100067139,-9.205705642700195,32.89794921875,7.6446533203125,-11.383056640625
17.7299999,-0.9217676520347595,1.6711528301239014,-9.162610054016113,-0.579833984375,5.6304931640625,-12.176513671875
17.749999900000002,-0.8355764150619507,1.6543933153152466,-9.162610054016113,-18.096923828125,3.1280517578125,-11.16943359375
17.769999900000002,-0.7422025203704834,1.6328455209732056,-9.14345645904541,-12.2222900390625,5.0811767578125,-8.48388671875
17.7899999,-0.6727706789970398,1.6352397203445435,-9.191340446472168,-1.0528564453125,2.01416015625,-8.636474609375
17.8099999,-0.6200982332229614,1.5753847360610962,-9.210494041442871,-3.3111572265625,-3.41796875,-10.1165771484375
17.8299999,-0.6488286852836609,1.50355863571167,-9.320627212524414,-14.3280029296875,-3.0975341796875,-15.13671875
17.8499999,-0.7254431247711182,1.3886369466781616,-9.442731857299805,-17.9901123046875,4.33349609375,-17.2882080078125
17.8699999,-0.828393816947937,1.3120225667953491,-9.488221168518066,-22.735595703125,12.451171875,-18.3258056640625
17.8899999,-0.950498104095459,1.2401964664459229,-9.399636268615723,-30.303955078125,8.4991455078125,-19.8516845703125
17.909999900000003,-1.0055646896362305,1.2330138683319092,-9.172186851501465,-15.3045654296875,-0.762939453125,-19.6380615234375
17.929999900000002,-1.0319008827209473,1.2880805730819702,-9.009381294250488,-5.8746337890625,-3.11279296875,-15.5487060546875
17.9499999,-0.9840168952941895,1.41257905960083,-8.908824920654297,-9.58251953125,5.5999755859375,-10.8184814453125
17.9699999,-0.9217676520347595,1.5849615335464478,-9.002198219299316,-24.0936279296875,5.5999755859375,-13.2598876953125
17.9899999,-0.8619126081466675,1.7046716213226318,-9.181763648986816,-39.703369140625,3.753662109375,-15.380859375
18.0099999,-0.8259995579719543,1.7956513166427612,-9.35654067993164,-41.9921875,10.55908203125,-18.524169921875
18.0299999,-0.7398083209991455,1.920149803161621,-9.514557838439941,-29.449462890625,13.3056640625,-16.2506103515625
18.0499999,-0.6368576288223267,2.1356279850006104,-9.612719535827637,-22.064208984375,8.1634521484375,-13.092041015625
18.0699999,-0.524330198764801,2.4660277366638184,-9.648633003234863,-10.3607177734375,6.4697265625,-9.002685546875
18.089999900000002,-0.47644615173339844,2.7030537128448486,-9.684545516967773,-1.220703125,6.53076171875,-2.9296875
18.109999900000002,-0.49799394607543945,2.734178304672241,-9.742006301879883,-17.578125,8.2855224609375,0.244140625
18.1299999,-0.5817909836769104,2.647987127304077,-9.8784761428833,-48.5382080078125,7.4310302734375,-6.7138671875
18.1499999,-0.6320692300796509,2.5282769203186035,-10.04846477508545,-40.1611328125,9.3536376953125,-13.0615234375
18.1699999,-0.6368576288223267,2.4803929328918457,-10.11550235748291,3.631591796875,16.0064697265625,-7.6141357421875
18.1899999,-0.6200982332229614,2.604891538619995,-10.074800491333008,26.1688232421875,19.4549560546875,-2.8076171875
18.2099999,-0.5937620401382446,2.7437551021575928,-9.864110946655273,-5.615234375,9.5977783203125,-5.828857421875
18.2299999,-0.5195417404174805,2.8658595085144043,-9.651026725769043,-21.3775634765625,0.457763671875,-7.2174072265625
18.249999900000002,-0.42856210470199585,2.829946517944336,-9.430760383605957,4.6844482421875,11.1083984375,0.823974609375
18.269999900000002,-0.2513911724090576,2.695871114730835,-9.423578262329102,8.4991455078125,7.354736328125,-3.5247802734375
18.2899999,-0.07900865375995636,2.585737943649292,-9.47146224975586,-18.9666748046875,-4.2266845703125,-12.451171875
18.3099999,0.06224924325942993,2.6192567348480225,-9.672574996948242,-29.266357421875,-7.62939453125,-12.5579833984375
18.3299999,0.1628057211637497,2.7485435009002686,-9.955090522766113,-6.195068359375,-1.3580322265625,1.9989013671875
18.3499999,0.22505496442317963,2.827552318572998,-10.113107681274414,18.646240234375,11.474609375,10.25390625
18.3699999,0.2513911724090576,2.715024709701538,-10.160991668701172,-0.0152587890625,9.82666015625,-0.91552734375
18.3899999,0.22505496442317963,2.4588451385498047,-10.02691650390625,-27.2064208984375,-0.18310546875,-11.0626220703125
18.409999900000003,0.17238251864910126,2.2888567447662354,-9.923966407775879,-12.3748779296875,-1.007080078125,-2.74658203125
18.429999900000002,0.11013327538967133,2.2888567447662354,-9.825803756713867,12.5732421875,13.18359375,9.70458984375
18.4499999,0.090979665517807,2.427720546722412,-9.84495735168457,23.8037109375,15.1214599609375,10.1470947265625
18.4699999,0.1604115068912506,2.691082715988159,-9.816226959228516,42.388916015625,8.2550048828125,7.659912109375
18.4899999,0.3208230137825012,2.6647465229034424,-9.749189376831055,57.55615234375,8.209228515625,13.5955810546875
18.5099999,0.4357447028160095,2.5713725090026855,-9.536105155944824,29.72412109375,22.2320556640625,9.4451904296875
18.5299999,0.5386953949928284,2.403778553009033,-9.452308654785156,6.134033203125,13.824462890625,1.3580322265625
18.5499999,0.5626373887062073,2.166752576828003,-9.375694274902344,3.143310546875,6.40869140625,6.6986083984375
18.5699999,0.6105214357376099,1.8986018896102905,-9.32302188873291,26.42822265625,15.3961181640625,14.9688720703125
18.589999900000002,0.6536170840263367,1.6735470294952393,-9.289502143859863,39.5660400390625,17.5018310546875,10.7879638671875
18.609999900000002,0.6919242739677429,1.522712230682373,-9.284713745117188,22.39990234375,6.7138671875,-2.838134765625
18.6299999,0.6177040338516235,1.5921441316604614,-9.279925346374512,8.30078125,-0.213623046875,-1.6632080078125
18.6499999,0.4836287498474121,1.8722656965255737,-9.50737476348877,17.3797607421875,1.434326171875,13.24462890625
18.6699999,0.2777273952960968,2.1547815799713135,-9.682151794433594,36.2091064453125,14.58740234375,22.8424072265625
18.6899999,0.15562310814857483,2.233790159225464,-9.837775230407715,45.3948974609375,16.78466796875,14.404296875
18.7099999,0.1149216815829277,2.056619167327881,-9.856928825378418,15.9912109375,4.5928955078125,5.035400390625
18.7299999,0.12210428714752197,1.702277421951294,-9.856928825378418,-7.3394775390625,3.326416015625,3.7078857421875
18.749999900000002,0.15083470940589905,1.3694833517074585,-9.821015357971191,5.8135986328125,14.5111083984375,2.25830078125
18.769999900000002,0.16519992053508759,1.213860273361206,-9.928754806518555,23.7884521484375,11.53564453125,-6.683349609375
18.7899999,0.1388636976480484,1.2856862545013428,-10.177751541137695,22.064208984375,-2.1820068359375,-11.0626220703125
18.8099999,0.07182604819536209,1.5203180313110352,-10.505757331848145,11.0931396484375,9.7198486328125,-5.5999755859375
18.8299999,-0.004788403399288654,1.778891921043396,-10.66137981414795,5.340576171875,35.15625,-5.9661865234375
18.8499999,-0.08140286058187485,2.0207061767578125,-10.759542465209961,-3.0364990234375,25.8941650390625,-14.0380859375
18.8699999,-0.07661445438861847,2.1092917919158936,-10.611102104187012,-12.3443603515625,7.0037841796875,-12.5732421875
18.8899999,0.009576806798577309,2.118868589401245,-10.395624160766602,-11.474609375,13.18359375,-7.568359375
18.909999900000003,0.1628057211637497,2.140416383743286,-10.338163375854492,-5.950927734375,28.1829833984375,-9.185791015625
18.929999900000002,0.31603461503982544,2.188300371170044,-10.32858657836914,-15.19775390625,33.294677734375,-17.5628662109375
18.9499999,0.44532153010368347,2.2409727573394775,-10.311826705932617,-10.0860595703125,27.7557373046875,-12.7410888671875
18.9699999,0.5770025849342346,2.2601263523101807,-10.283096313476562,23.5748291015625,22.52197265625,2.0599365234375
18.9899999,0.7613561153411865,2.1116859912872314,-10.108319282531738,39.9017333984375,27.64892578125,3.4332275390625
19.0099999,0.9816226959228516,1.965639591217041,-9.907206535339355,7.354736328125,26.2451171875,-13.0615234375
19.0299999,1.2066776752471924,1.7980455160140991,-9.739612579345703,-35.400390625,17.669677734375,-17.9595947265625
19.0499999,1.3694833517074585,1.8195933103561401,-9.694122314453125,-41.8701171875,18.85986328125,-10.3912353515625
19.0699999,1.5131354331970215,1.9273324012756348,-9.715670585632324,-35.4156494140625,35.7208251953125,-2.5177001953125
19.089999900000002,1.6639702320098877,1.9704279899597168,-9.737217903137207,-30.1055908203125,35.82763671875,-1.4190673828125
19.109999900000002,1.8124107122421265,2.0398597717285156,-9.758766174316406,-24.90234375,21.392822265625,-12.2833251953125
19.1299999,1.9512743949890137,2.164358377456665,-9.758766174316406,-31.8145751953125,23.37646484375,-4.425048828125
19.1499999,2.0853497982025146,2.279279947280884,-9.6989107131958,-35.1409912109375,35.003662109375,18.49365234375
19.1699999,2.1930887699127197,2.6024973392486572,-9.782708168029785,-15.594482421875,33.0810546875,20.660400390625
19.1899999,2.363077163696289,2.873042106628418,-9.962273597717285,-9.0179443359375,33.0352783203125,25.4669189453125
19.2099999,2.6192567348480225,3.0142998695373535,-9.864110946655273,1.9989013671875,58.3648681640625,41.0614013671875
19.2299999,2.913743495941162,3.0885202884674072,-9.804255485534668,8.5601806640625,68.817138671875,45.9136962890625
19.249999900000002,3.1962592601776123,2.9879636764526367,-9.782708168029785,-30.517578125,67.626953125,51.94091796875
19.269999900000002,3.4572272300720215,2.738966703414917,-9.59835433959961,-27.2979736328125,83.3740234375,64.3310546875
19.2899999,3.7205893993377686,2.4396915435791016,-9.459490776062012,16.4794921875,102.23388671875,75.4852294921875
19.3099999,3.9815573692321777,2.030282974243164,-9.08838939666748,-19.1497802734375,103.240966796875,80.38330078125
19.3299999,4.2975921630859375,1.4867992401123047,-8.621520042419434,-83.2366943359375,86.5631103515625,80.6121826171875
19.3499999,4.620809078216553,0.9433154463768005,-8.176198959350586,-52.3834228515625,71.2738037109375,74.6002197265625
19.3699999,4.955997467041016,0.395043283700943,-7.996633529663086,23.4375,77.33154296875,76.385498046875
19.3899999,5.2696380615234375,0.028730420395731926,-8.135497093200684,41.259765625,81.298828125,73.4100341796875
19.409999900000003,5.549759387969971,-0.11013327538967133,-8.329427719116211,16.510009765625,86.1663818359375,60.8673095703125
19.429999900000002,5.834669589996338,-0.22744916379451752,-8.35097599029541,-0.91552734375,88.1500244140625,56.671142578125
19.4499999,6.09324312210083,-0.22026655077934265,-8.075642585754395,-20.416259765625,74.8748779296875,55.8624267578125
19.4699999,6.296750545501709,-0.21308395266532898,-7.843404769897461,-63.0645751953125,55.816650390625,57.92236328125
19.4899999,6.433219909667969,-0.07182604819536209,-7.5417351722717285,-58.868408203125,59.08203125,55.1910400390625
19.5099999,6.581660270690918,0.08379705995321274,-7.405265808105469,-12.420654296875,77.0416259765625,59.7381591796875
19.5299999,6.63433313369751,0.35673606395721436,-7.3023152351379395,-33.69140625,87.6312255859375,52.8717041015625
19.5499999,6.722918510437012,0.5339069962501526,-7.024587631225586,-59.3414306640625,84.89990234375,45.806884765625
19.5699999,6.825869083404541,0.6512228846549988,-6.387730121612549,-53.8177490234375,83.19091796875,38.4979248046875
19.589999900000002,6.94079065322876,0.6105214357376099,-5.47075080871582,-37.8875732421875,69.2596435546875,31.097412109375
19.609999900000002,7.094019412994385,0.5363011956214905,-4.613626480102539,-27.0538330078125,45.3033447265625,30.09033203125
19.6299999,7.268796443939209,0.49799394607543945,-3.907337188720703,-13.7786865234375,40.7867431640625,29.6630859375
19.6499999,7.484274387359619,0.4668693244457245,-3.5266590118408203,-10.4522705078125,50.23193359375,34.4085693359375
19.6699999,7.673416614532471,0.40222588181495667,-3.4356794357299805,-29.022216796875,49.591064453125,34.5611572265625
19.6899999,7.879317760467529,0.2513911724090576,-3.450044631958008,-32.562255859375,44.61669921875,31.3720703125
19.7099999,8.042123794555664,0.014365210197865963,-3.531447410583496,-20.6298828125,37.9638671875,25.5279541015625
19.7299999,8.188169479370117,-0.1867477297782898,-3.643975019454956,-9.2315673828125,37.4908447265625,21.514892578125
19.749999900000002,8.312667846679688,-0.24899697303771973,-3.734954595565796,-10.55908203125,36.865234375,21.6827392578125
19.769999900000002,8.425195693969727,-0.15083470940589905,-3.883395195007324,-31.55517578125,29.11376953125,24.7039794921875
19.7899999,8.494627952575684,-0.040701430290937424,-3.976768970489502,-34.9884033203125,28.1982421875,25.665283203125
19.8099999,8.518569946289062,0.014365210197865963,-4.153939723968506,-17.76123046875,30.1666259765625,26.7333984375
19.8299999,8.508993148803711,0.07661445438861847,-4.311957359313965,13.7481689453125,34.698486328125,29.4647216796875
19.8499999,8.540117263793945,0.021547814831137657,-4.417302131652832,25.7568359375,35.6292724609375,38.39111328125
19.8699999,8.592789649963379,-0.10295066982507706,-4.316745758056641,19.134521484375,37.6434326171875,36.3311767578125
19.8899999,8.729259490966797,-0.2537853717803955,-4.156333923339844,18.5699462890625,39.85595703125,26.30615234375
19.909999900000003,8.834604263305664,-0.507570743560791,-3.936067581176758,-15.838623046875,45.3338623046875,22.796630859375
19.929999900000002,8.901641845703125,-0.7637503147125244,-3.60566782951355,-46.1273193359375,59.7991943359375,22.3846435546875
19.9499999,8.9064302444458,-1.0055646896362305,-3.114856481552124,1.922607421875,49.530029296875,19.4854736328125
19.9699999,8.889671325683594,-1.1779472827911377,-2.5546131134033203,60.1806640625,22.5830078125,25.0396728515625
19.9899999,8.89685344696045,-1.192312479019165,-1.9584569931030273,59.326171875,10.92529296875,25.665283203125
20.0099999,8.935160636901855,-1.3192051649093628,-1.6424223184585571,18.310546875,8.36181640625,38.360595703125
20.0299999,9.129091262817383,-1.50355863571167,-1.335964560508728,60.5010986328125,11.016845703125,43.9300537109375
20.0499999,9.394847869873047,-1.965639591217041,-1.01753568649292,103.7445068359375,8.4381103515625,30.517578125
20.0699999,9.739612579345703,-2.5474305152893066,-0.507570743560791,89.78271484375,-0.518798828125,17.0440673828125
20.089999900000002,9.998186111450195,-3.002328872680664,0.019153613597154617,47.7752685546875,-1.5716552734375,3.1890869140625
20.109999900000002,10.093954086303711,-3.2082302570343018,0.363918662071228,-9.063720703125,10.31494140625,0.732421875
20.1299999,10.043676376342773,-3.043030261993408,0.5123591423034668,14.190673828125,26.214599609375,2.6092529296875
20.1499999,9.849745750427246,-2.6575639247894287,0.524330198764801,30.181884765625,32.40966796875,3.997802734375
20.1699999,9.612719535827637,-2.1739351749420166,0.6368576288223267,49.560546875,29.1748046875,11.04736328125
20.1899999,9.320627212524414,-1.723825216293335,0.8978256583213806,83.8470458984375,23.040771484375,23.040771484375
20.2099999,8.947132110595703,-1.3766659498214722,1.2114660739898682,89.0045166015625,18.9361572265625,38.330078125
