# Time (seconds),Accel_X,Accel_Y,Accel_Z,Gyro_X,Gyro_Y,Gyro_Z
0.0099999,1.2425906658172607,0.08379705995321274,-9.612719535827637,-49.4842529296875,-64.910888671875,-40.95458984375
0.029999900000000003,1.05105459690094,0.31603461503982544,-9.919178009033203,-64.697265625,-46.875,-98.44970703125
0.0499999,0.9241618514060974,0.9361328482627869,-9.797073364257812,-239.288330078125,-46.0052490234375,-68.05419921875
0.0699999,1.0103530883789062,1.968033790588379,-9.8784761428833,-78.3843994140625,-34.9273681640625,-3.9825439453125
0.08999990000000001,0.9624691009521484,2.8634653091430664,-9.66539192199707,85.968017578125,4.5318603515625,25.1312255859375
0.10999990000000001,0.6512228846549988,3.177105665206909,-9.548076629638672,23.9715576171875,-0.18310546875,40.740966796875
0.1299999,0.6560112833976746,2.7054479122161865,-9.399636268615723,57.281494140625,33.8592529296875,29.23583984375
0.14999990000000002,0.8020575642585754,1.9776105880737305,-9.028534889221191,36.07177734375,64.1937255859375,-8.056640625
0.1699999,1.9560627937316895,1.5682021379470825,-8.607154846191406,53.9398193359375,68.7103271484375,-44.61669921875
0.1899999,2.8874073028564453,1.7405846118927002,-8.054094314575195,27.496337890625,57.4951171875,-8.6822509765625
0.20999990000000002,3.780444383621216,2.1787235736846924,-8.274360656738281,20.0958251953125,-20.111083984375,59.051513671875
0.2299999,3.773261785507202,2.343923568725586,-9.361329078674316,104.6295166015625,36.3006591796875,86.8072509765625
0.2499999,3.292027235031128,1.9369091987609863,-10.6709566116333,-57.220458984375,156.7840576171875,54.107666015625
0.2699999,2.516305923461914,1.2306196689605713,-11.963826179504395,-209.4879150390625,166.9769287109375,13.8092041015625
0.28999990000000003,2.2026655673980713,0.47165772318840027,-12.131420135498047,-317.4285888671875,71.5789794921875,60.8367919921875
0.3099999,2.4588451385498047,0.10295066982507706,-11.209651947021484,-362.3504638671875,44.9066162109375,78.125
0.3299999,2.9759926795959473,0.19153612852096558,-9.974244117736816,-236.0992431640625,75.0732421875,-5.2642822265625
0.34999990000000003,3.7660791873931885,0.7589619159698486,-8.604761123657227,-153.839111328125,119.7509765625,-83.3892822265625
0.3699999,4.345476150512695,1.9321208000183105,-7.321468830108643,-153.2135009765625,164.7186279296875,-87.6922607421875
0.3899999,4.606443881988525,3.734954595565796,-5.6910176277160645,-178.436279296875,203.67431640625,-65.5517578125
0.40999990000000003,4.685452938079834,5.614402770996094,-3.8522706031799316,-216.0797119140625,184.7686767578125,-29.2205810546875
0.4299999,4.786009311676025,6.88332986831665,-1.900996208190918,-192.4591064453125,111.8316650390625,-4.9285888671875
0.4499999,4.8051629066467285,7.723694801330566,-0.42377370595932007,-117.8436279296875,73.3489990234375,-67.9931640625
0.4699999,4.853046894073486,7.936778545379639,0.33279404044151306,-53.497314453125,66.2689208984375,-86.761474609375
0.4899999,4.788403511047363,7.898471355438232,0.6344634294509888,-42.0074462890625,83.7554931640625,-37.322998046875
0.5099999,4.5825018882751465,7.850587368011475,0.7374141216278076,-77.3773193359375,93.719482421875,-22.1099853515625
0.5299999,4.355052947998047,7.73087739944458,0.5961562395095825,-102.1270751953125,65.2618408203125,-28.3660888671875
0.5499999,4.141968727111816,7.673416614532471,0.5841852426528931,-99.212646484375,59.051513671875,-25.7720947265625
0.5699999,3.9600095748901367,7.795520782470703,0.5817909836769104,-92.2698974609375,44.6319580078125,-20.08056640625
0.5899998999999999,3.8355112075805664,7.85537576675415,0.2968810200691223,-28.7628173828125,-22.3846435546875,-15.9912109375
0.6099998999999999,3.6822822093963623,8.068459510803223,-0.35913026332855225,34.6527099609375,-34.1949462890625,-28.0609130859375
0.6299999,3.576937437057495,8.494627952575684,-1.4101848602294922,22.52197265625,34.2559814453125,-46.783447265625
0.6499999,3.3494882583618164,9.141061782836914,-2.434903144836426,-10.7879638671875,86.0443115234375,-67.4285888671875
0.6699999,3.066972494125366,9.880870819091797,-3.138798475265503,2.25830078125,48.3551025390625,-67.0013427734375
0.6899999,2.691082715988159,10.565611839294434,-3.490746021270752,63.04931640625,7.4920654296875,-71.22802734375
0.7099999,2.3104045391082764,11.15697956085205,-3.550601005554199,41.6717529296875,37.7960205078125,-84.2742919921875
0.7299998999999999,1.8986018896102905,11.30302619934082,-3.4739866256713867,-32.77587890625,97.4273681640625,-46.9512939453125
0.7499998999999999,1.7741034030914307,11.39400577545166,-3.2082302570343018,-30.2886962890625,116.4703369140625,-2.1820068359375
0.7699999,1.7118542194366455,11.650185585021973,-2.5498247146606445,-4.7454833984375,103.8360595703125,-35.5072021484375
0.7899999,1.7980455160140991,11.944672584533691,-1.3718775510787964,-45.013427734375,117.2637939453125,-49.3927001953125
0.8099999,1.9847931861877441,12.476184844970703,-0.038307227194309235,-68.29833984375,103.302001953125,-14.2059326171875
0.8299999,2.1978771686553955,13.362039566040039,1.2497732639312744,14.373779296875,43.88427734375,-20.294189453125
0.8499998999999999,2.3965959548950195,13.996502876281738,2.4660277366638184,46.4019775390625,14.739990234375,-34.454345703125
0.8699998999999999,2.631227731704712,14.353239059448242,2.9712042808532715,5.7220458984375,1.6937255859375,-12.87841796875
0.8899999,2.7748796939849854,14.453795433044434,2.940079689025879,-9.1552734375,6.1798095703125,-2.6092529296875
0.9099999,2.9065608978271484,14.25268268585205,2.585737943649292,24.505615234375,14.8773193359375,-2.7313232421875
0.9299999,2.9712042808532715,14.106636047363281,2.030282974243164,54.595947265625,-7.62939453125,-12.359619140625
0.9499999,3.021482467651367,13.872004508972168,1.6304513216018677,24.1546630859375,-15.3045654296875,4.08935546875
0.9699998999999999,3.0789434909820557,13.723564147949219,1.3551181554794312,-30.82275390625,1.5106201171875,16.815185546875
0.9899998999999999,3.0837318897247314,13.630189895629883,1.237802267074585,-14.404296875,15.9759521484375,-14.5263671875
1.0099999,3.047818660736084,13.455413818359375,1.359906554222107,50.018310546875,15.350341796875,-33.50830078125
1.0299999,2.9688100814819336,13.235146522521973,1.6160861253738403,90.1947021484375,0.91552734375,-22.8424072265625
1.0499999,2.8203697204589844,12.832921028137207,1.900996208190918,55.4962158203125,-4.0130615234375,-8.697509765625
1.0699999,2.6431987285614014,12.325350761413574,2.070984363555908,15.869140625,5.2032470703125,-10.223388671875
1.0899999,2.4827871322631836,11.760318756103516,2.2242133617401123,18.24951171875,-1.9073486328125,-23.5595703125
1.1099999,2.363077163696289,11.21444034576416,2.2409727573394775,45.654296875,-35.7513427734375,-28.8543701171875
1.1299999,2.2577321529388428,10.577583312988281,2.0829553604125977,56.7626953125,-57.0220947265625,-18.6614990234375
1.1499999,2.183511972427368,9.952696800231934,1.5825673341751099,9.5367431640625,-42.5567626953125,-23.4832763671875
1.1699998999999999,2.1140801906585693,9.318233489990234,0.9241618514060974,-33.416748046875,-16.082763671875,-27.40478515625
1.1899998999999999,2.0590133666992188,8.911218643188477,0.40701428055763245,-36.19384765625,-10.1165771484375,-22.064208984375
1.2099999,2.0207061767578125,8.71728801727295,0.10295066982507706,-13.946533203125,-33.538818359375,-21.0723876953125
1.2299999,2.0015525817871094,8.671798706054688,0.1364694982767105,-40.6341552734375,-36.2548828125,-22.5830078125
1.2499999,1.965639591217041,8.757989883422852,0.181959331035614,-67.2607421875,-24.0478515625,-24.4140625
1.2699999,1.946485996246338,8.645462036132812,0.40222588181495667,-73.455810546875,-10.0250244140625,-10.0250244140625
1.2899999,1.8842366933822632,8.571242332458496,0.5195417404174805,-55.17578125,-21.6827392578125,-17.181396484375
1.3099999,1.8195933103561401,8.17141056060791,0.5267243981361389,-52.8411865234375,-34.9578857421875,-16.90673828125
1.3299999,1.7405846118927002,7.807491779327393,0.33758243918418884,-88.1500244140625,-16.1590576171875,-23.2696533203125
1.3499999,1.6663644313812256,7.671022415161133,-0.0071826050989329815,-102.0050048828125,3.72314453125,-30.487060546875
1.3699999,1.6280571222305298,7.7428483963012695,-0.21547815203666687,-85.3729248046875,8.514404296875,-14.2669677734375
1.3899999,1.5897499322891235,7.987056732177734,-0.13168109953403473,-61.370849609375,2.8228759765625,-2.349853515625
1.4099999,1.5849615335464478,8.030152320861816,0.15801730751991272,-57.0220947265625,1.2664794921875,-3.4027099609375
1.4299998999999999,1.601720929145813,7.671022415161133,0.3878606855869293,-77.8656005859375,3.570556640625,-12.3291015625
1.4499999,1.6424223184585571,7.163451671600342,0.5746083855628967,-89.9200439453125,17.913818359375,-27.83203125
1.4699999,1.6974890232086182,6.718130111694336,0.7733271718025208,-76.3702392578125,26.3824462890625,-30.792236328125
1.4899999,1.7357962131500244,6.509834289550781,0.9217676520347595,-62.98828125,15.8538818359375,-16.29638671875
1.5099999,1.6639702320098877,6.648698329925537,1.0582371950149536,-65.582275390625,18.585205078125,-9.7198486328125
1.5299999,1.5705963373184204,6.885724067687988,1.2832920551300049,-75.3326416015625,40.8477783203125,-2.0599365234375
1.5499999,1.45806884765625,7.058106422424316,1.4484920501708984,-71.0601806640625,37.5213623046875,2.2735595703125
1.5699999,1.3910311460494995,7.189787864685059,1.6519991159439087,-62.3321533203125,17.425537109375,-7.4310302734375
1.5899999,1.3862427473068237,7.254431247711182,1.941697597503662,-62.7899169921875,24.7039794921875,-9.8114013671875
1.6099999,1.3838485479354858,7.295132637023926,2.185906171798706,-56.82373046875,39.642333984375,2.4566650390625
1.6299999,1.3838485479354858,7.264008045196533,2.3558945655822754,-48.8739013671875,45.2880859375,9.5062255859375
1.6499999,1.4173674583435059,7.189787864685059,2.980781078338623,-96.5728759765625,41.5802001953125,0.2593994140625
1.6699999,1.4269442558288574,7.115567684173584,3.751713991165161,-115.814208984375,-22.5982666015625,-11.474609375
1.6899998999999999,1.4963760375976562,6.912060260772705,4.596867084503174,-14.34326171875,-56.060791015625,-20.0347900390625
1.7099999,1.4676456451416016,6.914454460144043,5.30076265335083,-2.50244140625,-36.1785888671875,-48.40087890625
1.7299999,1.3670891523361206,6.931213855743408,5.705382823944092,-41.748046875,-21.9268798828125,-46.844482421875
1.7499999,1.170764684677124,6.993463039398193,5.772420406341553,13.8397216796875,-31.06689453125,-24.3682861328125
1.7699999,0.8738836050033569,7.247248649597168,5.815515995025635,28.2135009765625,-9.5977783203125,-30.8685302734375
1.7899999,0.5530605912208557,7.4986395835876465,5.793968200683594,-0.8697509765625,24.10888671875,-37.7197265625
1.8099999,0.20111294090747833,7.884106159210205,5.676652431488037,-6.3934326171875,40.008544921875,-21.942138671875
1.8299999,-0.047884032130241394,8.130708694458008,5.499481201171875,5.31005859375,17.669677734375,2.5482177734375
1.8499999,-0.16759411990642548,8.379706382751465,5.343858242034912,-4.3792724609375,-21.270751953125,-14.5721435546875
1.8699999,-0.016759412363171577,8.42040729522705,5.2049946784973145,-23.4222412109375,-37.4298095703125,-20.6756591796875
1.8899999,0.2561795711517334,8.49941635131836,5.195417881011963,-13.824462890625,-51.422119140625,-6.28662109375
1.9099999,0.33279404044151306,8.300697326660156,5.178658485412598,19.3939208984375,-59.6771240234375,-47.91259765625
1.9299998999999999,0.24420857429504395,8.221688270568848,5.178658485412598,14.6484375,-58.074951171875,-66.4215087890625
1.9499999,-0.11252748221158981,8.17141056060791,5.104437828063965,1.9378662109375,-31.06689453125,-52.520751953125
1.9699999,-0.42856210470199585,8.415618896484375,4.922478675842285,33.0047607421875,2.960205078125,-41.1224365234375
1.9899999,-0.7350199222564697,9.009381294250488,4.656722068786621,48.5382080078125,-4.5013427734375,-40.0543212890625
2.0099999,-0.8236053586006165,9.90241813659668,4.307168960571289,4.9591064453125,-28.2440185546875,-10.3912353515625
2.0299999,-0.9552865028381348,10.776301383972168,3.936067581176758,-22.9949951171875,-86.090087890625,14.2974853515625
2.0499999,-0.9026140570640564,11.149797439575195,3.5913026332855225,26.824951171875,-114.0289306640625,16.998291015625
2.0699999,-0.811634361743927,10.99656867980957,3.2632968425750732,16.021728515625,-39.0167236328125,14.34326171875
2.0899999,-0.586579442024231,10.374075889587402,3.047818660736084,16.2811279296875,-14.9383544921875,33.50830078125
2.1099999,-0.3711012601852417,9.44991397857666,2.8371291160583496,-0.5340576171875,5.615234375,45.1507568359375
2.1299999,-0.0933738648891449,8.56884765625,2.7030537128448486,11.1083984375,-16.510009765625,23.8800048828125
2.1499999,0.19153612852096558,7.982268333435059,2.5953147411346436,19.7296142578125,-32.2265625,-9.307861328125
2.1699999,0.6440402865409851,7.575253963470459,2.516305923461914,27.069091796875,-18.402099609375,-1.40380859375
2.1899999,0.849941611289978,7.577648162841797,2.47560453414917,31.43310546875,-0.79345703125,-7.0343017578125
2.2099999,0.9289502501487732,7.718906402587891,2.5115175247192383,47.8363037109375,19.59228515625,-9.918212890625
2.2299999,0.6129156351089478,7.893682956695557,2.6599581241607666,60.24169921875,30.5023193359375,1.251220703125
2.2499999,0.28969839215278625,8.034940719604492,2.851494312286377,55.999755859375,51.7120361328125,27.374267578125
2.2699999,-0.13168109953403473,8.099584579467773,3.0861260890960693,55.72509765625,34.149169921875,21.66748046875
2.2899999,-0.4165911078453064,8.329427719116211,3.2178070545196533,41.9769287109375,46.32568359375,10.9100341796875
2.3099999,-0.6344634294509888,8.652645111083984,3.251325845718384,63.8427734375,50.6439208984375,8.087158203125
2.3299999,-0.7038952708244324,8.978256225585938,3.117250680923462,65.24658203125,49.5452880859375,12.542724609375
2.3499999,-0.7469909191131592,9.294290542602539,2.8850131034851074,18.524169921875,45.684814453125,16.6778564453125
2.3699999,-0.6607996821403503,9.361329078674316,2.604891538619995,11.7950439453125,50.78125,20.69091796875
2.3899999,-0.5793967843055725,9.454702377319336,2.3582887649536133,18.4478759765625,52.093505859375,24.2919921875
2.4099999,-0.646434485912323,9.461885452270508,2.1811177730560303,23.3154296875,64.51416015625,14.0838623046875
2.4299999,-0.7015010714530945,9.497797966003418,2.121262788772583,29.4036865234375,96.37451171875,14.83154296875
2.4499999,-0.7469909191131592,9.581595420837402,2.126051187515259,33.0657958984375,111.8316650390625,36.7889404296875
2.4699999,-0.790086567401886,9.670180320739746,2.1356279850006104,23.1170654296875,111.87744140625,47.149658203125
2.4899999,-0.7757213711738586,9.782708168029785,2.1332337856292725,8.0413818359375,102.5390625,38.6962890625
2.5099999,-0.7469909191131592,9.876082420349121,2.0877439975738525,4.119873046875,93.597412109375,25.7568359375
2.5299999,-0.7326257228851318,9.84256362915039,1.9704279899597168,6.5155029296875,105.46875,28.4881591796875
2.5499999,-0.6177040338516235,9.603142738342285,1.7980455160140991,5.3558349609375,120.2392578125,45.074462890625
2.5699999,-0.4908113479614258,9.275136947631836,1.5705963373184204,9.2010498046875,128.23486328125,55.84716796875
2.5899999,-0.17717093229293823,8.99740982055664,1.335964560508728,35.1409912109375,127.0294189453125,55.35888671875
2.6099999,0.2561795711517334,9.050082206726074,1.0893617868423462,50.35400390625,125.5950927734375,40.9393310546875
2.6299999,0.6775590777397156,9.497797966003418,0.8858546018600464,61.5692138671875,131.256103515625,14.6331787109375
2.6499999,0.9744400978088379,10.156203269958496,0.6799532771110535,84.136962890625,111.26708984375,-3.5552978515625
2.6699999,1.094150185585022,10.742782592773438,0.5123591423034668,91.1865234375,71.1669921875,2.99072265625
2.6899999,1.0630255937576294,10.881647109985352,0.3064578175544739,93.0938720703125,49.7589111328125,-8.85009765625
2.7099999,1.0103530883789062,10.60391902923584,0.08858546614646912,91.3543701171875,54.6722412109375,-29.0069580078125
2.7299999,0.9241618514060974,10.103530883789062,-0.07422025501728058,79.132080078125,62.92724609375,-34.24072265625
2.7499999,0.6536170840263367,9.607931137084961,-0.24899697303771973,72.540283203125,70.7550048828125,-36.865234375
2.7699999,0.545877993106842,9.229647636413574,-0.3280056416988373,52.093505859375,72.357177734375,-29.35791015625
2.7899999,0.23702596127986908,9.14345645904541,-0.3758896589279175,13.1072998046875,104.0191650390625,-42.877197265625
2.8099999,0.24181437492370605,9.026140213012695,-0.2322375625371933,-8.4075927734375,130.0811767578125,-7.75146484375
2.8299999,0.3734954595565796,9.100360870361328,0.090979665517807,-30.09033203125,80.99365234375,30.1666259765625
2.8499999,0.5985504388809204,9.131484985351562,0.6440402865409851,-28.8238525390625,36.1328125,44.6014404296875
2.8699999,0.9026140570640564,9.121908187866211,1.259350061416626,29.2816162109375,31.8756103515625,26.4129638671875
2.8899999,1.1683704853057861,9.016563415527344,1.6089035272598267,78.887939453125,18.6309814453125,-0.42724609375
2.9099999,1.3072341680526733,8.755595207214355,1.5490485429763794,46.08154296875,3.3111572265625,1.64794921875
2.9299999,1.278503656387329,8.583212852478027,1.0797849893569946,-11.3372802734375,-4.1351318359375,15.045166015625
2.9499999,1.115697979927063,8.583212852478027,0.36152446269989014,-40.52734375,-3.84521484375,25.115966796875
2.9699999,0.9097966551780701,8.98543930053711,-0.26336219906806946,-51.7120361328125,-0.0152587890625,20.599365234375
2.9899999,0.727837324142456,9.452308654785156,-0.6057330369949341,-43.5638427734375,-0.4119873046875,26.5655517578125
3.0099999,0.6105214357376099,9.919178009033203,-0.706289529800415,-16.265869140625,-4.94384765625,24.9786376953125
3.0299999,0.608127236366272,10.093954086303711,-0.6224924325942993,-9.1094970703125,-6.4544677734375,12.7410888671875
3.0499999,0.7134721279144287,10.002974510192871,-0.4620809257030487,-26.0772705078125,-0.640869140625,3.7689208984375
3.0699999,0.9433154463768005,9.794678688049316,-0.23702596127986908,-34.0423583984375,-6.011962890625,1.3580322265625
3.0899999,1.1803414821624756,9.59596061706543,-0.0454898327589035,-4.8370361328125,-21.9879150390625,-5.55419921875
3.1099999,1.357512354850769,9.402029991149902,0.009576806798577309,28.6712646484375,-30.792236328125,-18.5546875
3.1299999,1.3551181554794312,9.23443603515625,-0.27054479718208313,35.21728515625,-19.6380615234375,-28.74755859375
3.1499999,1.1516109704971313,9.217676162719727,-0.8954314589500427,16.5252685546875,2.6397705078125,-30.548095703125
3.1699999,0.8427590131759644,9.337387084960938,-1.6376339197158813,-30.1361083984375,24.0478515625,-6.500244140625
3.1899999,0.5602431893348694,9.605537414550781,-2.1523873805999756,-78.094482421875,29.571533203125,18.24951171875
3.2099999,0.3902548849582672,9.950302124023438,-2.185906171798706,-96.099853515625,22.796630859375,17.333984375
3.2299999,0.35434186458587646,10.113107681274414,-1.7334020137786865,-50.5523681640625,17.2271728515625,4.69970703125
3.2499999,0.36152446269989014,10.038887977600098,-1.0749965906143188,3.8909912109375,12.0849609375,-15.9759521484375
3.2699999,0.3663128614425659,9.773131370544434,-0.30885201692581177,19.22607421875,19.1802978515625,-31.31103515625
3.2899999,0.30885201692581177,9.5408935546875,0.27054479718208313,11.1236572265625,23.406982421875,-35.5377197265625
3.3099999,0.15322890877723694,9.428366661071777,0.6200982332229614,-29.4647216796875,11.8255615234375,-22.9644775390625
3.3299999000000002,0.05027823522686958,9.445125579833984,0.9624691009521484,-97.71728515625,-10.3759765625,-13.427734375
3.3499999,-0.043095629662275314,9.469067573547363,1.2761094570159912,-92.6513671875,-8.575439453125,-17.4102783203125
3.3699999,-0.11971008777618408,9.308655738830566,1.5059528350830078,-39.8101806640625,-20.2789306640625,-30.82275390625
3.3899999,-0.11013327538967133,9.150638580322266,1.968033790588379,-41.3818359375,-13.1072998046875,-22.6593017578125
3.4099999,-0.08858546614646912,9.016563415527344,2.4612393379211426,-63.0035400390625,-9.0484619140625,-9.979248046875
3.4299999,-0.0694318488240242,9.069235801696777,2.894589900970459,-50.4913330078125,-27.679443359375,-5.950927734375
3.4499999,-0.05506663769483566,9.241618156433105,3.2800562381744385,-37.3992919921875,-27.587890625,-12.908935546875
3.4699999,-0.10295066982507706,9.251194953918457,3.533841609954834,-48.6297607421875,-8.2855224609375,-11.8255615234375
3.4899999,-0.12689268589019775,9.26795482635498,3.6727054119110107,-36.2548828125,-15.6097412109375,-24.90234375
3.5099999,-0.15322890877723694,9.258378028869629,3.8786067962646484,-45.7763671875,-25.7568359375,-26.031494140625
3.5299999,-0.12689268589019775,9.548076629638672,4.292803764343262,-51.361083984375,-4.69970703125,-24.47509765625
3.5499999,-0.15801730751991272,9.852140426635742,4.786009311676025,-22.125244140625,3.3721923828125,-25.9246826171875
3.5699999,-0.23702596127986908,10.096348762512207,5.185841083526611,23.284912109375,-28.1219482421875,-21.05712890625
3.5899999,-0.43095630407333374,10.192116737365723,5.415684223175049,36.3311767578125,-48.553466796875,-20.599365234375
3.6099999,-0.7015010714530945,10.187328338623047,5.298368453979492,36.3311767578125,-53.619384765625,-13.3209228515625
3.6299999,-0.9983820915222168,10.139444351196289,4.807557106018066,45.989990234375,-60.9588623046875,-5.9661865234375
3.6499999,-1.192312479019165,10.120290756225586,4.216189384460449,36.3311767578125,-66.40625,-8.056640625
3.6699999,-1.2425906658172607,9.928754806518555,3.7038300037384033,7.8277587890625,-54.0008544921875,-5.0048828125
3.6899999,-1.170764684677124,9.607931137084961,3.378218650817871,9.5672607421875,-41.7327880859375,-12.3748779296875
3.7099999,-0.9624691009521484,9.227252960205078,3.3303346633911133,31.3873291015625,-29.9530029296875,-23.193359375
3.7299999,-0.7134721279144287,8.882488250732422,3.4093432426452637,41.8701171875,-30.4107666015625,-27.1759033203125
3.7499999,-0.4620809257030487,8.686163902282715,3.691859006881714,32.7911376953125,-18.9208984375,-23.3001708984375
3.7699999,-0.2777273952960968,8.5903959274292,4.0533833503723145,32.6995849609375,-13.6260986328125,-21.0723876953125
3.7899999,-0.2059013396501541,8.621520042419434,4.2090067863464355,28.99169921875,-37.1551513671875,-22.6898193359375
3.8099999,-0.20350714027881622,8.69095230102539,4.2329487800598145,-20.233154296875,-38.5284423828125,-15.8538818359375
3.8299999000000002,-0.26096799969673157,8.80587387084961,4.065354347229004,-67.5811767578125,-21.1334228515625,-9.124755859375
3.8499999,-0.3232172429561615,9.004592895507812,3.869029998779297,-36.5753173828125,-14.83154296875,-26.214599609375
3.8699999,-0.38546648621559143,9.172186851501465,3.7445313930511475,7.659912109375,-27.191162109375,-31.097412109375
3.8899999,-0.47644615173339844,9.23443603515625,3.840299606323242,-25.6195068359375,-28.1829833984375,-18.035888671875
3.9099999,-0.6033388376235962,9.193734169006348,3.8307228088378906,-35.9649658203125,-33.63037109375,-11.90185546875
3.9299999,-0.7398083209991455,9.057265281677246,3.6846764087677,-21.8048095703125,-41.0003662109375,-11.71875
3.9499999,-0.828393816947937,8.868123054504395,3.5697548389434814,-37.8875732421875,-33.447265625,-11.566162109375
3.9699999,-0.871489405632019,8.62630844116211,3.428496837615967,-48.5992431640625,-32.1044921875,-8.0718994140625
3.9899999,-0.8451532125473022,8.389283180236816,3.383007049560547,-19.6990966796875,-36.6058349609375,-14.6942138671875
4.0099999,-0.7757213711738586,8.192957878112793,3.4620156288146973,-6.0577392578125,-34.1339111328125,-20.8740234375
4.029999900000001,-0.6871358752250671,8.058882713317871,3.7158010005950928,-26.336669921875,-33.2794189453125,-15.350341796875
4.0499999,-0.6153098344802856,8.015787124633789,4.041412353515625,-41.32080078125,-43.5028076171875,-13.1378173828125
4.069999900000001,-0.5913678407669067,8.04691219329834,4.335899353027344,-12.8173828125,-60.6842041015625,-17.7459716796875
4.0899999000000005,-0.6344634294509888,8.087613105773926,4.434061527252197,1.190185546875,-64.9261474609375,-20.2484130859375
4.1099999,-0.7206547260284424,8.197746276855469,4.228160381317139,-7.3394775390625,-53.3447265625,-21.91162109375
4.1299999000000005,-0.7996633648872375,8.382100105285645,3.9647979736328125,-14.4500732421875,-42.3126220703125,-19.805908203125
4.1499999,-0.8427590131759644,8.588001251220703,3.754108190536499,-6.927490234375,-48.4161376953125,-16.3116455078125
4.1699999000000005,-0.8523358106613159,8.786720275878906,3.756502389907837,-0.0762939453125,-56.4727783203125,-16.6168212890625
4.1899999,-0.849941611289978,8.916007041931152,3.8307228088378906,-13.3819580078125,-55.9539794921875,-15.3350830078125
4.209999900000001,-0.8643068075180054,8.983044624328613,3.869029998779297,-17.3797607421875,-51.0711669921875,-14.984130859375
4.2299999,-0.8930372595787048,9.014169692993164,3.914519786834717,-4.9591064453125,-51.7578125,-13.73291015625
4.249999900000001,-0.912190854549408,9.038111686706543,4.015076160430908,11.505126953125,-55.11474609375,-18.85986328125
4.2699999,-0.9409212470054626,9.062053680419922,3.9384617805480957,36.0870361328125,-65.3076171875,-21.9268798828125
4.289999900000001,-0.9696516990661621,9.136273384094238,3.6511576175689697,35.2783203125,-62.5152587890625,-16.17431640625
4.3099999,-1.01753568649292,9.32302188873291,3.114856481552124,9.46044921875,-44.952392578125,-7.1868896484375
4.329999900000001,-1.091755986213684,9.543288230895996,2.4684219360351562,9.033203125,-29.4189453125,-0.9307861328125
4.3499999,-1.1755530834197998,9.797073364257812,1.9584569931030273,21.8048095703125,-19.683837890625,-3.021240234375
4.369999900000001,-1.2545616626739502,10.005369186401367,1.647210717201233,24.8565673828125,-15.533447265625,-2.8076171875
4.3899999,-1.2856862545013428,10.199298858642578,1.5107412338256836,22.76611328125,-8.23974609375,1.0528564453125
4.409999900000001,-1.2880805730819702,10.338163375854492,1.4676456451416016,28.5797119140625,2.197265625,6.0272216796875
4.4299999,-1.280897855758667,10.398017883300781,1.4700398445129395,25.970458984375,6.40869140625,15.0604248046875
4.449999900000001,-1.2521674633026123,10.340557098388672,1.558625340461731,4.8675537109375,10.68115234375,20.0042724609375
4.4699999,-1.1899182796478271,10.160991668701172,1.7166426181793213,-3.4332275390625,15.2130126953125,18.7225341796875
4.489999900000001,-1.0678139925003052,9.926360130310059,1.8986018896102905,7.38525390625,18.9666748046875,15.9454345703125
4.5099999,-0.933738648891449,9.619902610778809,2.0398597717285156,-4.1046142578125,17.791748046875,24.5819091796875
4.529999900000001,-0.7733271718025208,9.299078941345215,2.2361843585968018,-25.8026123046875,27.2369384765625,25.2532958984375
4.5499999,-0.6009446382522583,8.968679428100586,2.47560453414917,-26.7333984375,32.65380859375,18.7225341796875
4.569999900000001,-0.3663128614425659,8.75080680847168,2.9927520751953125,-25.4669189453125,25.1007080078125,17.5628662109375
4.5899999000000005,-0.047884032130241394,8.734047889709473,3.713406801223755,-14.404296875,11.0321044921875,16.5863037109375
4.609999900000001,0.2777273952960968,8.875306129455566,4.326322555541992,25.5279541015625,-3.5247802734375,15.4266357421875
4.6299999000000005,0.5554547905921936,9.081207275390625,4.7405195236206055,33.1573486328125,-2.6397705078125,18.2342529296875
4.6499999,0.7493851184844971,9.184157371520996,4.843470096588135,10.3759765625,3.9215087890625,21.331787109375
4.6699999000000005,0.8547300100326538,9.141061782836914,4.716577529907227,5.43212890625,2.4261474609375,16.998291015625
4.6899999,0.9097966551780701,9.02135181427002,4.441244125366211,23.6663818359375,-3.1280517578125,7.598876953125
4.709999900000001,0.9002198576927185,8.927978515625,4.07014274597168,19.3328857421875,-1.6937255859375,6.134033203125
4.7299999,0.8164227604866028,8.892065048217773,3.624821424484253,-5.5694580078125,7.080078125,12.20703125
4.749999900000001,0.6703764796257019,8.887276649475098,3.179499864578247,-17.4713134765625,5.950927734375,15.838623046875
4.7699999,0.4836287498474121,8.848969459533691,2.765302896499634,-19.95849609375,-1.1444091796875,9.8114013671875
4.789999900000001,0.2968810200691223,8.75080680847168,2.4444799423217773,-21.087646484375,2.410888671875,5.8746337890625
4.8099999,0.1149216815829277,8.611943244934082,2.2242133617401123,-19.9127197265625,13.3209228515625,7.354736328125
4.829999900000001,-0.0454898327589035,8.463502883911133,2.1595699787139893,-10.955810546875,15.6097412109375,8.11767578125
4.8499999,-0.20111294090747833,8.339004516601562,2.2601263523101807,2.960205078125,11.077880859375,2.7313232421875
4.869999900000001,-0.3734954595565796,8.200140953063965,2.3319525718688965,15.533447265625,7.6904296875,-5.340576171875
4.8899999,-0.5410895943641663,8.159439086914062,2.3080103397369385,0.0762939453125,17.27294921875,-10.8184814453125
4.909999900000001,-0.6991068720817566,8.255207061767578,2.209848165512085,-30.6549072265625,33.8287353515625,-5.9356689453125
4.9299999,-0.7829039692878723,8.432378768920898,2.2218191623687744,-21.3775634765625,39.9322509765625,1.8768310546875
4.949999900000001,-0.8020575642585754,8.607154846191406,2.43011474609375,-11.871337890625,35.430908203125,4.57763671875
4.9699999,-0.768538773059845,8.621520042419434,2.779668092727661,1.4190673828125,41.3055419921875,-3.90625
4.989999900000001,-0.6823474764823914,8.47547435760498,3.2537200450897217,7.4005126953125,62.2100830078125,-14.678955078125
5.0099999,-0.6631938815116882,8.20492935180664,3.603273630142212,4.5013427734375,58.7310791015625,-13.6566162109375
5.029999900000001,-0.6919242739677429,8.051700592041016,3.797203779220581,24.3072509765625,54.718017578125,-12.4053955078125
5.0499999,-0.7757213711738586,7.975085735321045,3.8283286094665527,49.0570068359375,60.8367919921875,0.48828125
5.069999900000001,-0.8619126081466675,7.888894557952881,3.5386300086975098,66.436767578125,62.957763671875,4.425048828125
5.0899999000000005,-0.9145850539207458,7.99184513092041,3.2369606494903564,39.031982421875,68.206787109375,-6.7596435546875
5.109999900000001,-0.8978256583213806,8.092401504516602,3.0526070594787598,7.8582763671875,76.8280029296875,-13.61083984375
5.1299999000000005,-0.8547300100326538,8.288725852966309,2.9927520751953125,61.767578125,74.127197265625,-11.993408203125
5.1499999,-0.8020575642585754,8.38688850402832,2.9065608978271484,89.447021484375,61.981201171875,-8.8653564453125
5.1699999000000005,-0.7613561153411865,8.422801971435547,2.765302896499634,34.393310546875,64.910888671875,-22.88818359375
5.1899999,-0.727837324142456,8.429984092712402,2.6408045291900635,-18.0206298828125,70.2362060546875,-31.0211181640625
5.209999900000001,-0.7326257228851318,8.427590370178223,2.4899697303771973,-6.2713623046875,52.1697998046875,-17.852783203125
5.2299999,-0.8212111592292786,8.585607528686523,2.4660277366638184,-1.6937255859375,39.7796630859375,-17.669677734375
5.249999900000001,-0.9672574996948242,8.724471092224121,2.6001031398773193,-10.5133056640625,49.9420166015625,-30.2276611328125
5.2699999,-1.1516109704971313,8.83699893951416,2.564189910888672,6.6986083984375,46.81396484375,-36.102294921875
5.289999900000001,-1.3958195447921753,8.920795440673828,2.535459518432617,2.4566650390625,39.85595703125,-38.3758544921875
5.3099999,-1.5705963373184204,9.078812599182129,2.3558945655822754,0.1220703125,34.4696044921875,-30.4412841796875
5.329999900000001,-1.764526605606079,9.2033109664917,2.229001760482788,20.2178955078125,38.6505126953125,-25.3143310546875
5.3499999,-1.9177556037902832,9.385271072387695,2.056619167327881,12.3291015625,31.1431884765625,-21.7132568359375
5.369999900000001,-2.030282974243164,9.440337181091309,2.1308395862579346,16.29638671875,22.0184326171875,-12.2222900390625
5.3899999,-2.121262788772583,9.435548782348633,2.0805611610412598,37.261962890625,19.3328857421875,-10.894775390625
5.409999900000001,-2.164358377456665,9.342175483703613,1.9536685943603516,47.4395751953125,27.2369384765625,-8.3465576171875
5.4299999,-2.1356279850006104,9.153033256530762,1.7070658206939697,47.576904296875,37.139892578125,-2.8076171875
5.449999900000001,-2.1475989818573,8.987833023071289,1.4939818382263184,45.989990234375,25.970458984375,-7.0648193359375
5.4699999,-2.0901381969451904,8.825027465820312,1.1659762859344482,71.5179443359375,6.2255859375,-11.8560791015625
5.489999900000001,-2.161964178085327,8.834604263305664,0.8571242094039917,42.8924560546875,-0.67138671875,-26.1383056640625
5.5099999,-2.3104045391082764,8.96389102935791,0.3711012601852417,7.965087890625,3.9215087890625,-25.4364013671875
5.529999900000001,-2.537853717803955,9.167398452758789,-0.10534487664699554,-10.1165771484375,8.1634521484375,-15.4266357421875
5.5499999,-2.8419175148010254,9.311050415039062,-0.5051765441894531,-9.4757080078125,9.6893310546875,-13.8702392578125
5.569999900000001,-3.095702886581421,9.428366661071777,-0.5147533416748047,-6.256103515625,16.2353515625,-25.421142578125
5.5899999000000005,-3.294421434402466,9.44991397857666,-0.3878606855869293,-10.3912353515625,11.0626220703125,-24.017333984375
5.609999900000001,-3.4189200401306152,9.454702377319336,-0.10055647045373917,-17.4560546875,0.335693359375,-18.2647705078125
5.6299999000000005,-3.490746021270752,9.524134635925293,0.181959331035614,-12.8173828125,9.27734375,-26.519775390625
5.6499999,-3.533841609954834,9.512163162231445,0.4596867263317108,6.317138671875,27.7252197265625,-30.6396484375
5.6699999000000005,-3.5410242080688477,9.50737476348877,0.7398083209991455,9.185791015625,28.564453125,-24.658203125
5.6899999,-3.5218706130981445,9.47146224975586,1.0558429956436157,7.99560546875,17.059326171875,-24.47509765625
5.709999900000001,-3.490746021270752,9.418789863586426,1.3407529592514038,25.93994140625,5.0506591796875,-23.5443115234375
5.7299999,-3.464409828186035,9.327810287475586,1.357512354850769,33.477783203125,-5.279541015625,-23.590087890625
5.749999900000001,-3.466804027557373,9.275136947631836,1.1492167711257935,1.52587890625,-9.8114013671875,-21.42333984375
5.7699999,-3.533841609954834,9.239224433898926,0.8427590131759644,-20.7366943359375,-7.1868896484375,-16.4947509765625
5.789999900000001,-3.622427225112915,9.239224433898926,0.5147533416748047,-5.5389404296875,-8.36181640625,-15.1214599609375
5.8099999,-3.7181951999664307,9.248801231384277,0.3256114423274994,6.2713623046875,-6.40869140625,-16.5252685546875
5.829999900000001,-3.797203779220581,9.23443603515625,0.2059013396501541,-4.1656494140625,-0.8392333984375,-10.8642578125
5.8499999,-3.866635799407959,9.157821655273438,0.08858546614646912,-16.29638671875,0.48828125,-2.1209716796875
5.869999900000001,-3.9217023849487305,9.062053680419922,0.0694318488240242,-25.93994140625,1.312255859375,-2.1209716796875
5.8899999,-3.9911341667175293,8.87291145324707,0.13407529890537262,-40.1153564453125,2.777099609375,-8.941650390625
5.909999900000001,-4.041412353515625,8.767566680908203,0.363918662071228,-64.51416015625,2.38037109375,-7.0953369140625
5.9299999,-4.02465295791626,8.619126319885254,0.871489405632019,-87.646484375,8.30078125,5.584716796875
5.949999900000001,-4.010287761688232,8.53532886505127,1.4173674583435059,-47.149658203125,-8.30078125,-0.0762939453125
5.9699999,-3.9863457679748535,8.49941635131836,1.9943699836730957,11.9781494140625,-26.6876220703125,-19.0582275390625
5.989999900000001,-3.9624037742614746,8.501810073852539,2.4157495498657227,44.4183349609375,-26.153564453125,-24.9786376953125
6.0099999,-4.010287761688232,8.564059257507324,2.4827871322631836,72.7386474609375,-21.392822265625,-23.468017578125
6.029999900000001,-4.043806552886963,8.698134422302246,2.27209734916687,97.015380859375,-15.9454345703125,-28.1524658203125
6.0499999,-4.086902141571045,8.89685344696045,1.742978811264038,73.638916015625,-15.380859375,-23.9410400390625
6.069999900000001,-4.122815132141113,9.040505409240723,1.235408067703247,-3.6773681640625,-12.969970703125,-12.5732421875
6.0899999000000005,-4.144362926483154,9.239224433898926,0.8164227604866028,-17.1051025390625,-11.474609375,-5.9814453125
6.109999900000001,-4.156333923339844,9.339780807495117,0.6631938815116882,18.98193359375,-17.6849365234375,-4.180908203125
6.1299999000000005,-4.120420932769775,9.476250648498535,0.730231523513794,26.397705078125,-26.4892578125,-5.3253173828125
6.149999900000001,-4.086902141571045,9.591172218322754,0.8331822156906128,18.9056396484375,-30.029296875,1.8310546875
6.1699999000000005,-4.077325344085693,9.775525093078613,0.8068459630012512,23.5595703125,-19.4549560546875,0.946044921875
6.1899999,-4.120420932769775,9.947908401489258,0.7493851184844971,1.129150390625,-8.7890625,7.5531005859375
6.209999900000001,-4.261679172515869,9.921571731567383,0.5913678407669067,-15.3350830078125,-11.1083984375,23.406982421875
6.2299999,-4.405331134796143,9.739612579345703,0.5099649429321289,-14.8773193359375,-10.80322265625,15.3350830078125
6.249999900000001,-4.462791919708252,9.44991397857666,0.3902548849582672,-18.9208984375,-10.0555419921875,-1.52587890625
6.2699999,-4.402936935424805,9.169792175292969,0.35673606395721436,-40.191650390625,-7.0648193359375,1.46484375
6.289999900000001,-4.199429988861084,9.11233139038086,0.4884171485900879,-45.3338623046875,3.021240234375,6.9580078125
6.3099999,-3.950432777404785,9.167398452758789,0.8403648138046265,-40.252685546875,1.3885498046875,12.298583984375
6.329999900000001,-3.7158010005950928,9.191340446472168,1.359906554222107,-34.48486328125,-6.0882568359375,16.54052734375
6.3499999,-3.514688014984131,9.20091724395752,2.0374655723571777,-29.876708984375,-8.7890625,16.3421630859375
6.369999900000001,-3.399766445159912,9.078812599182129,2.4420857429504395,12.20703125,-17.852783203125,7.0953369140625
6.3899999,-3.3303346633911133,8.980650901794434,2.5498247146606445,63.0340576171875,-19.7906494140625,-0.7171630859375
6.409999900000001,-3.272873640060425,8.913613319396973,2.3774423599243164,58.8226318359375,-7.4615478515625,3.3721923828125
6.4299999,-3.227383852005005,8.762778282165527,1.9105730056762695,49.31640625,-2.7313232421875,9.46044921875
6.449999900000001,-3.1866824626922607,8.638279914855957,1.3551181554794312,68.023681640625,2.4261474609375,0.732421875
6.4699999,-3.1699230670928955,8.497021675109863,0.8858546018600464,70.49560546875,19.04296875,-6.3934326171875
6.489999900000001,-3.2369606494903564,8.429984092712402,0.4812345504760742,58.65478515625,24.0478515625,-1.3427734375
6.5099999,-3.3303346633911133,8.559270858764648,0.2944868206977844,48.9044189453125,24.444580078125,-1.8310546875
6.529999900000001,-3.4093432426452637,8.853757858276367,0.09816227108240128,18.1884765625,15.106201171875,-3.7841796875
6.5499999,-3.4739866256713867,9.148244857788086,0.07900865375995636,-57.2357177734375,5.9967041015625,7.4615478515625
6.569999900000001,-3.4596214294433594,9.435548782348633,0.090979665517807,-70.86181640625,10.25390625,13.641357421875
6.5899999000000005,-3.4308910369873047,9.493009567260742,0.2777273952960968,-41.5496826171875,9.613037109375,14.434814453125
6.609999900000001,-3.359065055847168,9.411606788635254,0.569819986820221,-1.6632080078125,1.4190673828125,7.5531005859375
6.6299999000000005,-3.2537200450897217,9.184157371520996,0.8092401623725891,11.9781494140625,-5.5999755859375,1.9989013671875
6.649999900000001,-3.1435868740081787,8.935160636901855,0.9600749015808105,-15.869140625,-0.5035400390625,0.0152587890625
6.6699999000000005,-3.050212860107422,8.7484130859375,1.039083480834961,-27.3895263671875,8.0718994140625,-6.317138671875
6.6899999,-3.0166940689086914,8.633491516113281,1.1085153818130493,-12.26806640625,4.8065185546875,-9.5672607421875
6.709999900000001,-3.0526070594787598,8.576030731201172,1.2042834758758545,6.5460205078125,2.62451171875,-12.1917724609375
6.7299999,-3.1244332790374756,8.62391471862793,1.2952631711959839,17.7154541015625,6.195068359375,-19.6990966796875
6.749999900000001,-3.2321722507476807,8.71728801727295,1.3048399686813354,13.885498046875,2.7313232421875,-19.4854736328125
6.7699999,-3.3470940589904785,8.829815864562988,1.2306196689605713,23.9105224609375,-2.3956298828125,-15.045166015625
6.789999900000001,-3.4739866256713867,8.899248123168945,1.1204863786697388,48.9959716796875,0.1678466796875,-19.8516845703125
6.8099999,-3.5889084339141846,8.927978515625,0.9600749015808105,67.474365234375,5.3558349609375,-29.998779296875
6.829999900000001,-3.689464807510376,8.87051773071289,0.7038952708244324,58.837890625,1.6937255859375,-28.0609130859375
6.8499999,-3.7924153804779053,8.822632789611816,0.44771572947502136,19.04296875,-2.5482177734375,-17.63916015625
6.869999900000001,-3.88818359375,8.78193187713623,0.1843535304069519,7.50732421875,-1.7242431640625,-15.19775390625
6.8899999,-4.003105163574219,8.710105895996094,0.09816227108240128,-4.1351318359375,-0.946044921875,-15.228271484375
6.909999900000001,-4.113238334655762,8.609549522399902,0.08379705995321274,-8.9263916015625,-9.490966796875,-14.7705078125
6.9299999,-4.1874589920043945,8.307879447937012,0.14844051003456116,3.173828125,-14.22119140625,-18.0511474609375
6.949999900000001,-4.218583583831787,8.078036308288574,0.2825157940387726,-26.7486572265625,-13.18359375,-28.50341796875
6.9699999,-4.240131378173828,7.850587368011475,0.31603461503982544,-46.2799072265625,-15.3961181640625,-33.7677001953125
6.989999900000001,-4.259284973144531,7.7213006019592285,0.35913026332855225,-5.67626953125,-9.002685546875,-29.541015625
7.0099999,-4.316745758056641,7.706935405731201,0.33279404044151306,19.0582275390625,-4.9591064453125,-28.9459228515625
7.029999900000001,-4.4077253341674805,7.682993412017822,0.24420857429504395,8.2550048828125,-6.4544677734375,-35.09521484375
7.0499999,-4.517858505249023,7.666234016418457,0.15083470940589905,-7.9498291015625,-5.2490234375,-40.313720703125
7.069999900000001,-4.656722068786621,7.778761386871338,0.07182604819536209,-19.2413330078125,-5.9967041015625,-41.961669921875
7.0899999000000005,-4.7836151123046875,7.965508937835693,0.07422025501728058,-12.63427734375,-6.3934326171875,-35.6903076171875
7.109999900000001,-4.917690277099609,8.233659744262695,0.0694318488240242,-8.056640625,-8.7432861328125,-27.89306640625
7.1299999000000005,-5.039794445037842,8.446743965148926,0.13168109953403473,-7.2021484375,-6.4697265625,-25.6195068359375
7.149999900000001,-5.154716491699219,8.528146743774414,0.28730419278144836,-14.068603515625,-3.6773681640625,-26.1993408203125
7.1699999000000005,-5.25527286529541,8.497021675109863,0.47405192255973816,-18.85986328125,-10.772705078125,-27.679443359375
7.1899999,-5.327098846435547,8.38688850402832,0.6177040338516235,-2.3193359375,-14.495849609375,-28.8238525390625
7.209999900000001,-5.389348030090332,8.269572257995605,0.6727706789970398,6.927490234375,-7.232666015625,-28.8848876953125
7.2299999,-5.4444146156311035,8.209717750549316,0.6584054827690125,-1.28173828125,-0.274658203125,-27.740478515625
7.249999900000001,-5.518634796142578,8.164227485656738,0.5985504388809204,-6.0272216796875,-4.2572021484375,-23.9410400390625
7.2699999,-5.612008571624756,8.152256965637207,0.5985504388809204,-4.21142578125,-6.622314453125,-25.5279541015625
7.289999900000001,-5.710171222686768,8.109161376953125,0.5889736413955688,8.6517333984375,-0.885009765625,-28.50341796875
7.3099999,-5.815515995025635,8.054094314575195,0.5147533416748047,2.4566650390625,1.190185546875,-24.6734619140625
7.329999900000001,-5.906495571136475,8.063671112060547,0.42377370595932007,-10.5133056640625,2.8228759765625,-23.6053466796875
7.3499999,-5.983109951019287,8.121131896972656,0.395043283700943,-10.1776123046875,3.7841796875,-21.78955078125
7.369999900000001,-6.052541732788086,8.216899871826172,0.45010992884635925,-11.138916015625,-0.457763671875,-15.869140625
7.3899999,-6.107608318328857,8.303091049194336,0.5434837937355042,-10.9100341796875,-5.4779052734375,-12.939453125
7.409999900000001,-6.143521785736084,8.293514251708984,0.586579442024231,-3.570556640625,-3.5247802734375,-13.397216796875
7.4299999,-6.1770405769348145,8.216899871826172,0.5913678407669067,-11.627197265625,2.3651123046875,-13.4429931640625
7.449999900000001,-6.208165168762207,8.094796180725098,0.569819986820221,-24.200439453125,4.5623779296875,-12.054443359375
7.4699999,-6.246472358703613,7.987056732177734,0.6368576288223267,-23.0712890625,4.302978515625,-11.322021484375
7.489999900000001,-6.296750545501709,7.91283655166626,0.7637503147125244,-10.2386474609375,1.5716552734375,-10.0250244140625
7.5099999,-6.361393928527832,7.845798969268799,0.8690952062606812,-3.2958984375,-1.7547607421875,-7.354736328125
7.529999900000001,-6.428431510925293,7.783549785614014,0.9361328482627869,-4.7454833984375,0.9002685546875,-8.026123046875
7.5499999,-6.493074893951416,7.68538761138916,0.950498104095459,-10.3912353515625,2.227783203125,-7.843017578125
7.569999900000001,-6.524199485778809,7.5968017578125,0.9361328482627869,-13.85498046875,-1.52587890625,-9.1400146484375
7.5899999000000005,-6.531382083892822,7.510610580444336,1.0007762908935547,-19.71435546875,-1.617431640625,-7.965087890625
7.609999900000001,-6.507440090179443,7.400477409362793,1.0893617868423462,-11.444091796875,-2.7923583984375,-5.0048828125
7.6299999000000005,-6.476315498352051,7.285555839538574,1.1899182796478271,2.3040771484375,-5.67626953125,-6.988525390625
7.649999900000001,-6.447585105895996,7.108384609222412,1.2090718746185303,2.8839111328125,-11.0321044921875,-6.9427490234375
7.6699999000000005,-6.44279670715332,6.955155849456787,1.158793568611145,-10.9100341796875,-11.3067626953125,-7.14111328125
7.6899999,-6.45476770401001,6.840234279632568,1.048660397529602,-22.491455078125,-6.561279296875,-5.37109375
7.709999900000001,-6.476315498352051,6.809109687805176,0.933738648891449,-26.42822265625,-6.7596435546875,-3.4637451171875
7.7299999,-6.509834289550781,6.866570472717285,0.8762778043746948,-16.9677734375,-7.4005126953125,-4.8065185546875
7.749999900000001,-6.538564682006836,7.015010833740234,0.9074024558067322,-7.415771484375,-1.3885498046875,-7.537841796875
7.7699999,-6.5696892738342285,7.173028469085693,1.01753568649292,-8.48388671875,1.678466796875,-5.462646484375
7.789999900000001,-6.600813865661621,7.350199222564697,1.1061211824417114,0.8087158203125,-1.251220703125,-6.072998046875
7.8099999,-6.627150535583496,7.467514991760254,1.1659762859344482,6.927490234375,-0.9613037109375,-5.767822265625
7.829999900000001,-6.646304130554199,7.51779317855835,1.1994950771331787,-0.335693359375,5.0048828125,-2.7313232421875
7.8499999,-6.641515731811523,7.510610580444336,1.2114660739898682,-9.613037109375,5.9051513671875,-0.48828125
7.869999900000001,-6.619967937469482,7.467514991760254,1.2761094570159912,-7.1258544921875,2.2430419921875,-0.6103515625
7.8899999,-6.5912370681762695,7.407660007476807,1.3407529592514038,1.7547607421875,-0.213623046875,-0.5645751953125
7.909999900000001,-6.567295074462891,7.33583402633667,1.3694833517074585,2.593994140625,1.708984375,0.6866455078125
7.9299999,-6.555324077606201,7.268796443939209,1.3311761617660522,-5.0811767578125,2.99072265625,2.3956298828125
7.949999900000001,-6.564900875091553,7.208941459655762,1.2497732639312744,-11.5814208984375,1.3275146484375,2.99072265625
7.9699999,-6.588842868804932,7.144298076629639,1.1827356815338135,-10.3759765625,2.0294189453125,2.3956298828125
7.989999900000001,-6.629544734954834,7.094019412994385,1.173158884048462,-3.7841796875,5.0201416015625,0.274658203125
8.0099999,-6.655880928039551,7.046135425567627,1.192312479019165,0.7476806640625,3.997802734375,0.091552734375
8.0299999,-6.665457725524902,6.981492042541504,1.280897855758667,-1.4495849609375,3.6468505859375,0.152587890625
8.049999900000001,-6.651092529296875,6.936002254486084,1.3742717504501343,-4.2266845703125,2.9449462890625,0.5645751953125
8.069999900000001,-6.610390663146973,6.9024834632873535,1.4867992401123047,-6.5460205078125,2.50244140625,0.4119873046875
8.0899999,-6.562506675720215,6.909666061401367,1.6208745241165161,-4.730224609375,1.6326904296875,-0.06103515625
8.1099999,-6.521805286407471,6.952761650085449,1.6687586307525635,4.6539306640625,-3.1280517578125,0.152587890625
8.129999900000001,-6.50025749206543,7.029376029968262,1.6615760326385498,4.302978515625,-3.662109375,0.5645751953125
8.149999900000001,-6.50025749206543,7.103596210479736,1.580173134803772,-2.3651123046875,0.9918212890625,0.396728515625
8.1699999,-6.514622688293457,7.168240070343018,1.4508862495422363,-4.5013427734375,1.5869140625,-0.1678466796875
8.1899999,-6.524199485778809,7.223306655883789,1.357512354850769,-1.9073486328125,-0.732421875,-0.42724609375
8.2099999,-6.528987884521484,7.237671852111816,1.3215993642807007,-0.9765625,-1.251220703125,1.52587890625
8.229999900000001,-6.517016887664795,7.230489253997803,1.316810965538025,-0.5645751953125,-0.1220703125,1.6326904296875
8.2499999,-6.512228488922119,7.19936466217041,1.3455413579940796,-0.030517578125,1.1138916015625,0.5340576171875
8.2699999,-6.519411087036133,7.15387487411499,1.3886369466781616,0.67138671875,-0.091552734375,0.18310546875
8.2899999,-6.528987884521484,7.1251444816589355,1.4245500564575195,0.3814697265625,-2.3651123046875,0.54931640625
8.309999900000001,-6.536170482635498,7.134721279144287,1.4221558570861816,-3.8909912109375,-2.716064453125,0.5035400390625
8.3299999,-6.53377628326416,7.1490864753723145,1.414973258972168,-4.638671875,-0.2899169921875,0.9002685546875
8.3499999,-6.5265936851501465,7.194576263427734,1.403002142906189,-3.6163330078125,-0.0762939453125,0.0457763671875
8.3699999,-6.502651691436768,7.232883453369141,1.4101848602294922,1.4190673828125,-1.5869140625,-0.0152587890625
8.389999900000001,-6.476315498352051,7.268796443939209,1.4269442558288574,0.6866455078125,-2.4566650390625,1.46484375
8.4099999,-6.44279670715332,7.295132637023926,1.434126853942871,-0.1983642578125,-1.3275146484375,2.777099609375
8.4299999,-6.40927791595459,7.297526836395264,1.4197616577148438,-1.8157958984375,-0.9613037109375,3.631591796875
8.4499999,-6.390124320983887,7.266402244567871,1.41257905960083,0.2288818359375,-0.3814697265625,4.1046142578125
8.469999900000001,-6.3949127197265625,7.19936466217041,1.403002142906189,-1.678466796875,-0.6561279296875,4.33349609375
8.4899999,-6.406883716583252,7.122750282287598,1.4077905416488647,-2.471923828125,0.1983642578125,2.3040771484375
8.5099999,-6.40927791595459,7.041347026824951,1.3958195447921753,-2.2430419921875,0.1983642578125,1.2054443359375
8.5299999,-6.399701118469238,6.983886241912842,1.37906014919281,-1.556396484375,0.091552734375,1.3427734375
8.549999900000001,-6.385335922241211,6.957550048828125,1.3503297567367554,-4.2266845703125,0.48828125,1.2969970703125
8.569999900000001,-6.358999729156494,6.957550048828125,1.316810965538025,-4.486083984375,2.44140625,1.15966796875
8.5899999,-6.3518171310424805,6.957550048828125,1.2761094570159912,-5.096435546875,2.2430419921875,2.197265625
8.6099999,-6.349422931671143,6.9455790519714355,1.259350061416626,-5.7525634765625,4.425048828125,1.2969970703125
8.629999900000001,-6.356605529785156,6.916848659515381,1.2761094570159912,-4.1656494140625,4.5928955078125,-0.5645751953125
8.649999900000001,-6.375759124755859,6.890512466430664,1.3120225667953491,-3.8909912109375,0.9307861328125,-1.8768310546875
8.6699999,-6.404489517211914,6.88332986831665,1.335964560508728,-3.570556640625,-2.7008056640625,-1.3580322265625
8.6899999,-6.447585105895996,6.909666061401367,1.316810965538025,-0.1068115234375,-1.953125,-1.953125
8.709999900000001,-6.466738700866699,6.976703643798828,1.256955862045288,3.60107421875,1.7547607421875,-4.0435791015625
8.729999900000001,-6.471527099609375,7.084442615509033,1.1875240802764893,2.13623046875,2.5482177734375,-3.3721923828125
8.7499999,-6.452373504638672,7.2137298583984375,1.1755530834197998,0.3662109375,2.5634765625,-0.6866455078125
8.7699999,-6.426037311553955,7.328651428222656,1.1994950771331787,-3.3416748046875,1.953125,1.6937255859375
8.7899999,-6.4164605140686035,7.402871608734131,1.2689268589019775,-3.47900390625,3.265380859375,2.4261474609375
8.809999900000001,-6.418854713439941,7.400477409362793,1.3407529592514038,-5.706787109375,2.9449462890625,2.838134765625
8.8299999,-6.426037311553955,7.364564418792725,1.4053963422775269,-6.317138671875,4.2724609375,1.983642578125
8.8499999,-6.418854713439941,7.297526836395264,1.4772224426269531,-4.8828125,6.2713623046875,1.800537109375
8.8699999,-6.3973069190979,7.237671852111816,1.5658079385757446,-9.3536376953125,6.7291259765625,2.44140625
8.889999900000001,-6.354211330413818,7.182605266571045,1.6735470294952393,-12.5274658203125,4.913330078125,2.838134765625
8.9099999,-6.313509941101074,7.132327079772949,1.778891921043396,-9.0179443359375,3.2196044921875,1.9989013671875
8.9299999,-6.282385349273682,7.094019412994385,1.8267759084701538,-3.35693359375,2.349853515625,0.213623046875
8.9499999,-6.279991149902344,7.094019412994385,1.8076223134994507,-7.7972412109375,3.143310546875,-0.5645751953125
8.969999900000001,-6.301538944244385,7.108384609222412,1.7717092037200928,-14.9078369140625,5.67626953125,0.4119873046875
8.9899999,-6.342240333557129,7.163451671600342,1.7717092037200928,-14.4195556640625,5.0048828125,0.8544921875
9.0099999,-6.385335922241211,7.208941459655762,1.8124107122421265,-11.3525390625,-0.274658203125,1.0986328125
9.0299999,-6.40927791595459,7.237671852111816,1.8818424940109253,-3.204345703125,-1.068115234375,0.091552734375
9.049999900000001,-6.402095317840576,7.249642848968506,1.9129672050476074,-1.4495849609375,0.5340576171875,0.030517578125
9.069999900000001,-6.368576526641846,7.240066051483154,1.9345149993896484,-3.4942626953125,1.6326904296875,0.7781982421875
9.0899999,-6.31829833984375,7.216124057769775,1.9369091987609863,-3.96728515625,-0.5035400390625,1.6937255859375
9.1099999,-6.270414352416992,7.19936466217041,1.9488801956176758,-0.9765625,-2.4261474609375,0.6256103515625
9.129999900000001,-6.256049156188965,7.163451671600342,1.9321208000183105,0.579833984375,-2.4261474609375,0.3509521484375
9.149999900000001,-6.265625953674316,7.134721279144287,1.8746598958969116,1.7852783203125,-0.6561279296875,0.7476806640625
9.1699999,-6.296750545501709,7.0988078117370605,1.7741034030914307,2.2430419921875,-0.274658203125,0.67138671875
9.1899999,-6.342240333557129,7.072471618652344,1.678335428237915,1.007080078125,-0.5035400390625,-0.18310546875
9.209999900000001,-6.368576526641846,7.041347026824951,1.5921441316604614,0.54931640625,-0.7171630859375,-0.54931640625
9.229999900000001,-6.380547523498535,7.038952827453613,1.5466543436050415,0.79345703125,-0.67138671875,-1.2054443359375
9.2499999,-6.378153324127197,7.026981830596924,1.5059528350830078,0.701904296875,-1.4495849609375,0
9.2699999,-6.366182327270508,7.01979923248291,1.522712230682373,-4.2724609375,-1.1444091796875,1.3580322265625
9.2899999,-6.368576526641846,6.979097843170166,1.5514427423477173,-4.791259765625,-0.3509521484375,0.9918212890625
9.309999900000001,-6.380547523498535,6.916848659515381,1.577778935432434,-3.6773681640625,-3.11279296875,-0.4119873046875
9.3299999,-6.3973069190979,6.864176273345947,1.6136919260025024,-5.7220458984375,-2.25830078125,-3.2501220703125
9.3499999,-6.3973069190979,6.8378400802612305,1.6065093278884888,-3.9215087890625,-0.5340576171875,-3.7078857421875
9.3699999,-6.382941722869873,6.873753070831299,1.5969325304031372,-2.25830078125,-0.091552734375,-2.8076171875
9.389999900000001,-6.361393928527832,6.936002254486084,1.5921441316604614,-0.518798828125,0.6561279296875,-1.28173828125
9.4099999,-6.358999729156494,7.01979923248291,1.6304513216018677,-3.1585693359375,-0.30517578125,-0.7781982421875
9.4299999,-6.378153324127197,7.058106422424316,1.6615760326385498,-2.777099609375,-2.410888671875,-1.953125
9.4499999,-6.3949127197265625,7.101202011108398,1.656787633895874,3.448486328125,-3.2806396484375,-5.31005859375
9.469999900000001,-6.387730121612549,7.103596210479736,1.6687586307525635,5.2642822265625,3.0670166015625,-6.8206787109375
9.4899999,-6.370970726013184,7.117961883544922,1.6519991159439087,6.4239501953125,4.0130615234375,-6.34765625
9.5099999,-6.349422931671143,7.146692276000977,1.6519991159439087,11.0931396484375,1.495361328125,-6.4239501953125
9.5299999,-6.349422931671143,7.184999465942383,1.6519991159439087,11.0931396484375,2.3345947265625,-6.3323974609375
9.549999900000001,-6.375759124755859,7.204153060913086,1.6112977266311646,2.2735595703125,3.509521484375,-3.7994384765625
9.569999900000001,-6.3973069190979,7.223306655883789,1.5969325304031372,-6.1798095703125,6.6680908203125,-3.9215087890625
9.5899999,-6.418854713439941,7.2137298583984375,1.6041151285171509,-6.378173828125,4.486083984375,-4.425048828125
9.6099999,-6.4380083084106445,7.196970462799072,1.6927006244659424,-4.6844482421875,1.6632080078125,-4.3792724609375
9.629999900000001,-6.461950302124023,7.15387487411499,1.8171991109848022,-6.5155029296875,0.701904296875,-4.5318603515625
9.649999900000001,-6.490680694580078,7.139509677886963,1.9536685943603516,-8.60595703125,1.251220703125,-8.0108642578125
9.6699999,-6.509834289550781,7.117961883544922,2.027888774871826,-1.5716552734375,-0.67138671875,-10.25390625
9.6899999,-6.497863292694092,7.144298076629639,2.0829553604125977,5.4931640625,-0.7781982421875,-11.1541748046875
9.709999900000001,-6.469132900238037,7.2137298583984375,2.0685901641845703,7.3699951171875,0.30517578125,-9.7198486328125
9.729999900000001,-6.435614109039307,7.292738437652588,2.0207061767578125,5.9051513671875,-2.5177001953125,-6.1492919921875
9.7499999,-6.421248912811279,7.376535415649414,1.9632453918457031,8.8958740234375,-2.593994140625,-6.4849853515625
9.7699999,-6.435614109039307,7.422025203704834,1.8555063009262085,13.2904052734375,-4.1961669921875,-8.056640625
9.7899999,-6.461950302124023,7.448361396789551,1.7334020137786865,19.2413330078125,-2.2735595703125,-7.720947265625
9.809999900000001,-6.493074893951416,7.438784599304199,1.6184803247451782,15.1519775390625,3.4332275390625,-3.509521484375
9.8299999,-6.521805286407471,7.419631004333496,1.5729905366897583,4.547119140625,3.0670166015625,-0.946044921875
9.8499999,-6.5481414794921875,7.350199222564697,1.599326729774475,6.683349609375,-1.9073486328125,-0.396728515625
9.8699999,-6.564900875091553,7.295132637023926,1.6136919260025024,13.00048828125,-5.859375,-2.2125244140625
9.889999900000001,-6.584054470062256,7.16584587097168,1.6160861253738403,-9.613037109375,-3.7689208984375,-0.6866455078125
9.9099999,-6.610390663146973,7.058106422424316,1.5969325304031372,-28.411865234375,-0.3204345703125,0.6256103515625
9.9299999,-6.643909931182861,6.9024834632873535,1.5825673341751099,-19.1497802734375,-1.129150390625,0.518798828125
9.9499999,-6.71334171295166,6.754043102264404,1.6328455209732056,-11.23046875,-4.5013427734375,-0.823974609375
9.969999900000001,-6.801927089691162,6.607996463775635,1.6711528301239014,0.8392333984375,-4.6844482421875,-3.2958984375
9.9899999,-6.892906665802002,6.512228488922119,1.6735470294952393,17.1356201171875,-0.3814697265625,-9.307861328125
10.0099999,-6.979097843170166,6.4595561027526855,1.6184803247451782,23.1170654296875,1.861572265625,-8.544921875
10.0299999,-7.029376029968262,6.452373504638672,1.522712230682373,21.392822265625,0.457763671875,-5.8135986328125
10.049999900000001,-7.029376029968262,6.476315498352051,1.403002142906189,20.3857421875,0.335693359375,-5.79833984375
10.069999900000001,-6.993463039398193,6.502651691436768,1.2761094570159912,11.5203857421875,1.4495849609375,-4.1961669921875
10.0899999,-6.938396453857422,6.54574728012085,1.2330138683319092,2.777099609375,3.35693359375,-2.8228759765625
10.1099999,-6.890512466430664,6.572083473205566,1.235408067703247,5.5694580078125,1.4801025390625,-1.3885498046875
10.129999900000001,-6.854599475860596,6.596025466918945,1.3072341680526733,6.3934326171875,-2.593994140625,-1.28173828125
10.149999900000001,-6.835445880889893,6.600813865661621,1.381454348564148,-4.241943359375,-4.119873046875,-1.5869140625
10.1699999,-6.809109687805176,6.605602264404297,1.4389152526855469,-5.0201416015625,-3.4637451171875,-0.9613037109375
10.1899999,-6.787561893463135,6.636727333068848,1.460463047027588,-1.46484375,-4.364013671875,-0.762939453125
10.209999900000001,-6.785167694091797,6.670246124267578,1.4748282432556152,-0.4425048828125,-5.06591796875,-1.2054443359375
10.229999900000001,-6.797138690948486,6.737283706665039,1.482010841369629,2.2125244140625,-3.204345703125,-3.7689208984375
10.2499999,-6.835445880889893,6.768408298492432,1.4437036514282227,3.0517578125,-2.7923583984375,-3.9825439453125
10.2699999,-6.871358871459961,6.813898086547852,1.4101848602294922,1.64794921875,-2.471923828125,-3.9215087890625
10.2899999,-6.89530086517334,6.818686485290527,1.3982137441635132,0.091552734375,-1.5411376953125,-2.86865234375
10.309999900000001,-6.909666061401367,6.828263282775879,1.3934253454208374,4.3487548828125,-3.11279296875,-2.3651123046875
10.3299999,-6.926425457000732,6.8162922859191895,1.3910311460494995,4.2572021484375,-4.8675537109375,-2.1514892578125
10.3499999,-6.933608055114746,6.823474884033203,1.3646949529647827,2.532958984375,-2.3956298828125,-3.997802734375
10.3699999,-6.938396453857422,6.806715488433838,1.3072341680526733,-0.1220703125,0.42724609375,-2.716064453125
10.389999900000001,-6.936002254486084,6.811503887176514,1.2737152576446533,0.457763671875,1.678466796875,-3.1585693359375
10.4099999,-6.92881965637207,6.7923502922058105,1.3024457693099976,3.5552978515625,1.2664794921875,-3.326416015625
10.4299999,-6.921637058258057,6.763619899749756,1.3431471586227417,4.150390625,-2.4871826171875,-2.166748046875
10.4499999,-6.912060260772705,6.7061591148376465,1.3766659498214722,-0.8392333984375,-3.4637451171875,-1.617431640625
10.469999900000001,-6.9024834632873535,6.641515731811523,1.3670891523361206,-1.0986328125,-0.0762939453125,-3.448486328125
10.4899999,-6.897695064544678,6.586448669433594,1.3527239561080933,3.6773681640625,2.0599365234375,-5.79833984375
10.5099999,-6.909666061401367,6.560112476348877,1.3646949529647827,5.5999755859375,0.030517578125,-5.340576171875
10.5299999,-6.938396453857422,6.560112476348877,1.3718775510787964,9.5062255859375,-3.11279296875,-5.889892578125
10.549999900000001,-6.97430944442749,6.572083473205566,1.3623007535934448,14.4195556640625,-1.7547607421875,-7.9345703125
10.569999900000001,-7.005434036254883,6.581660270690918,1.3072341680526733,11.4898681640625,1.6021728515625,-8.9263916015625
10.5899999,-7.015010833740234,6.564900875091553,1.2449848651885986,7.080078125,2.3345947265625,-9.1552734375
10.6099999,-7.0317702293396,6.538564682006836,1.2186486721038818,4.730224609375,1.28173828125,-9.0179443359375
10.629999900000001,-7.022193431854248,6.493074893951416,1.2066776752471924,7.9803466796875,0.0762939453125,-12.4969482421875
10.649999900000001,-7.022193431854248,6.447585105895996,1.2186486721038818,4.364013671875,1.678466796875,-15.472412109375
10.6699999,-7.000645637512207,6.430825710296631,1.2258312702178955,7.415771484375,5.2642822265625,-14.9078369140625
10.6899999,-6.98628044128418,6.433219909667969,1.2976573705673218,7.8582763671875,5.1727294921875,-13.4735107421875
10.709999900000001,-6.9910688400268555,6.502651691436768,1.3623007535934448,5.9814453125,-0.6256103515625,-13.9007568359375
10.729999900000001,-7.017405033111572,6.521805286407471,1.3766659498214722,9.8724365234375,-4.852294921875,-12.4969482421875
10.7499999,-7.0557122230529785,6.550535678863525,1.335964560508728,15.8233642578125,3.47900390625,-13.641357421875
10.7699999,-7.105990409851074,6.507440090179443,1.2258312702178955,1.40380859375,5.584716796875,-12.664794921875
10.7899999,-7.1490864753723145,6.411672115325928,1.1085153818130493,-16.143798828125,-1.2054443359375,-12.14599609375
10.809999900000001,-7.194576263427734,6.337451934814453,1.048660397529602,-4.425048828125,0.396728515625,-16.5557861328125
10.8299999,-7.254431247711182,6.256049156188965,1.072602391242981,0.8392333984375,3.448486328125,-15.6097412109375
10.8499999,-7.311892032623291,6.210559368133545,1.1252747774124146,4.486083984375,1.0986328125,-15.5487060546875
10.8699999,-7.340622425079346,6.157886981964111,1.1875240802764893,24.139404296875,-0.9613037109375,-19.2108154296875
10.889999900000001,-7.357381820678711,6.078877925872803,1.2090718746185303,28.350830078125,-0.701904296875,-19.2718505859375
10.9099999,-7.3669586181640625,5.96874475479126,1.1468225717544556,17.059326171875,-1.2054443359375,-17.913818359375
10.9299999,-7.374141216278076,5.810727596282959,1.0582371950149536,13.580322265625,1.2969970703125,-18.4478759765625
10.9499999,-7.405265808105469,5.6455278396606445,0.9768342971801758,13.9312744140625,-1.190185546875,-20.5841064453125
10.969999900000001,-7.445967197418213,5.492298603057861,0.9289502501487732,24.4903564453125,-5.06591796875,-24.2156982421875
10.9899999,-7.503427982330322,5.372588634490967,0.9313444495201111,23.345947265625,-4.6844482421875,-24.2919921875
11.0099999,-7.577648162841797,5.348646640777588,0.8882488012313843,15.44189453125,-9.21630859375,-23.5595703125
11.0299999,-7.644686222076416,5.377377033233643,0.7972691655158997,26.2603759765625,-11.3067626953125,-23.8189697265625
11.049999900000001,-7.7213006019592285,5.442020416259766,0.667982280254364,16.9219970703125,-7.6751708984375,-23.5748291015625
11.069999900000001,-7.793126583099365,5.537788391113281,0.569819986820221,-12.8326416015625,-5.6610107421875,-24.810791015625
11.0899999,-7.8529815673828125,5.566518783569336,0.5434837937355042,-8.5296630859375,-3.7689208984375,-27.984619140625
11.1099999,-7.905653953552246,5.585672378540039,0.6823474764823914,1.2359619140625,-4.0740966796875,-29.96826171875
11.129999900000001,-7.953537940979004,5.626373767852783,0.8906430602073669,-3.23486328125,-8.11767578125,-31.341552734375
11.149999900000001,-7.9631147384643555,5.614402770996094,1.1037269830703735,8.4381103515625,-9.8114013671875,-26.91650390625
11.1699999,-7.994239330291748,5.633556365966797,1.2641384601593018,10.0555419921875,-8.575439453125,-27.2216796875
11.1899999,-8.022970199584961,5.681440830230713,1.3958195447921753,4.7607421875,-8.9874267578125,-28.6102294921875
11.209999900000001,-8.066065788269043,5.633556365966797,1.4173674583435059,8.1329345703125,-12.451171875,-25.7568359375
11.229999900000001,-8.128314971923828,5.6910176277160645,1.4197616577148438,5.3558349609375,-11.7950439453125,-28.99169921875
11.2499999,-8.20732307434082,5.774814605712891,1.4293384552001953,-9.8114013671875,-8.270263671875,-31.707763671875
11.2699999,-8.303091049194336,5.992686748504639,1.41257905960083,-12.969970703125,-11.2152099609375,-28.86962890625
11.2899999,-8.4108304977417,6.303933143615723,1.3000515699386597,4.5013427734375,-14.1143798828125,-26.885986328125
11.309999900000001,-8.525752067565918,6.746860504150391,1.161187767982483,1.983642578125,-9.3536376953125,-31.280517578125
11.3299999,-8.69334602355957,7.556100368499756,0.9552865028381348,-11.9171142578125,-1.9073486328125,-41.6259765625
11.3499999,-8.932766914367676,8.722076416015625,0.7206547260284424,0.579833984375,-0.91552734375,-33.7371826171875
11.3699999,-9.23682975769043,10.83855152130127,0.2753331959247589,6.3934326171875,-7.110595703125,-23.3154296875
11.389999900000001,-9.63187313079834,14.197615623474121,-0.6200982332229614,12.9547119140625,-11.871337890625,-1.6021728515625
11.4099999,-10.374075889587402,19.06981658935547,-1.659181833267212,36.224365234375,8.7127685546875,53.7872314453125
11.4299999,-11.956643104553223,26.43198585510254,-2.741360902786255,20.782470703125,4.425048828125,125.762939453125
11.4499999,-15.061923027038574,34.87633514404297,-3.442862033843994,-117.2943115234375,-42.48046875,271.759033203125
11.469999900000001,-19.819202423095703,41.955989837646484,-3.8091750144958496,-159.8052978515625,-54.87060546875,464.9505615234375
11.4899999,-26.111164093017578,46.09077835083008,-2.47560453414917,-134.8114013671875,-1.0223388671875,499.9847412109375
11.5099999,-32.8891487121582,45.14027786254883,0.3280056416988373,-159.3780517578125,-4.8370361328125,499.9847412109375
11.5299999,-38.838741302490234,39.17632293701172,4.14915132522583,-208.55712890625,-119.6441650390625,499.9847412109375
11.549999900000001,-42.65509796142578,29.65218734741211,9.062053680419922,-217.559814453125,-172.149658203125,499.9847412109375
11.569999900000001,-43.5625,18.52872657775879,12.703634262084961,-101.409912109375,-212.9364013671875,499.9847412109375
11.5899999,-41.529823303222656,7.556100368499756,13.651738166809082,35.5682373046875,-286.590576171875,499.9847412109375
11.6099999,-37.102943420410156,-2.0590133666992188,12.658143997192383,61.7218017578125,-257.080078125,480.4534912109375
11.629999900000001,-31.031248092651367,-9.373299598693848,9.090784072875977,101.837158203125,-206.4056396484375,414.4439697265625
11.649999900000001,-24.353818893432617,-14.247894287109375,5.013458251953125,121.1090087890625,-175.628662109375,316.4520263671875
11.6699999,-17.630901336669922,-17.02277374267578,0.6392518281936646,105.7281494140625,-178.8330078125,259.4451904296875
11.6899999,-11.657367706298828,-17.43697166442871,-2.6815059185028076,101.2420654296875,-137.5885009765625,221.588134765625
11.709999900000001,-6.818686485290527,-16.10100555419922,-5.104437828063965,67.5506591796875,-76.72119140625,184.0667724609375
11.729999900000001,-3.1459810733795166,-13.962984085083008,-6.57926607131958,61.46240234375,-46.20361328125,142.425537109375
11.7499999,-0.6105214357376099,-11.44907283782959,-6.45476770401001,54.534912109375,-13.1378173828125,88.134765625
11.7699999,1.1180921792984009,-8.834604263305664,-5.628767967224121,55.511474609375,-3.2958984375,34.027099609375
11.7899999,2.3080103397369385,-6.399701118469238,-4.316745758056641,59.7381591796875,-9.979248046875,24.2767333984375
11.809999900000001,3.1866824626922607,-4.185064792633057,-2.8586769104003906,21.30126953125,6.4544677734375,24.0020751953125
11.8299999,3.9839515686035156,-2.343923568725586,-1.845929503440857,57.1136474609375,13.5650634765625,-4.1351318359375
11.8499999,4.802768707275391,-0.9648633003234863,-1.173158884048462,111.0992431640625,14.4500732421875,-24.84130859375
11.8699999,5.590460777282715,0.2537853717803955,-0.9050082564353943,103.729248046875,16.7999267578125,-19.4549560546875
11.889999900000001,6.337451934814453,1.4269442558288574,-0.8810662031173706,52.001953125,27.7099609375,-2.9296875
11.9099999,7.026981830596924,2.3247697353363037,-0.8906430602073669,12.8631591796875,32.53173828125,9.58251953125
11.9299999,7.647080421447754,2.8850131034851074,-0.6847416758537292,12.26806640625,35.0494384765625,5.92041015625
11.9499999,8.17141056060791,2.956839084625244,-0.3064578175544739,18.310546875,31.402587890625,0.640869140625
11.969999900000001,8.588001251220703,2.762908697128296,0.1412578970193863,0.54931640625,29.23583984375,-0.244140625
11.9899999,8.865729331970215,2.427720546722412,0.569819986820221,-24.7650146484375,29.205322265625,0.8544921875
12.0099999,9.057265281677246,2.164358377456665,1.015141487121582,-29.876708984375,26.18408203125,-1.0986328125
12.0299999,9.196128845214844,1.8722656965255737,1.1779472827911377,3.143310546875,11.8408203125,-3.90625
12.049999900000001,9.318233489990234,1.6400281190872192,1.3048399686813354,23.01025390625,15.716552734375,-7.99560546875
12.069999900000001,9.41639518737793,1.479616641998291,1.2617442607879639,10.9405517578125,24.627685546875,-14.923095703125
12.0899999,9.469067573547363,1.434126853942871,1.1348515748977661,1.708984375,17.9290771484375,-18.798828125
12.1099999,9.44991397857666,1.6280571222305298,1.1755530834197998,-4.7454833984375,12.5579833984375,-20.8892822265625
12.129999900000001,9.378087997436523,1.9752163887023926,1.2545616626739502,15.19775390625,8.880615234375,-19.927978515625
12.149999900000001,9.26795482635498,2.454056739807129,1.2856862545013428,25.2685546875,2.532958984375,-16.05224609375
12.1699999,9.167398452758789,2.8802247047424316,1.2042834758758545,9.796142578125,-1.4801025390625,-9.918212890625
12.1899999,9.083600997924805,3.1914708614349365,1.0319008827209473,-1.220703125,1.1138916015625,-7.049560546875
12.209999900000001,9.016563415527344,3.308786630630493,0.8212111592292786,6.6375732421875,3.3111572265625,-8.60595703125
12.229999900000001,8.959102630615234,3.31118106842041,0.730231523513794,12.451171875,3.5400390625,-12.0391845703125
12.2499999,8.913613319396973,3.2154128551483154,0.6655880808830261,14.068603515625,-2.105712890625,-12.8173828125
12.2699999,8.901641845703125,3.136404275894165,0.5506663918495178,18.49365234375,-3.7841796875,-11.5203857421875
12.289999900000002,8.937555313110352,3.0621838569641113,0.44532153010368347,12.7410888671875,4.0130615234375,-10.2691650390625
12.309999900000001,9.01895809173584,2.999934673309326,0.28969839215278625,27.557373046875,8.5601806640625,-12.14599609375
12.3299999,9.100360870361328,2.9496564865112305,0.1604115068912506,52.42919921875,6.805419921875,-14.8162841796875
12.3499999,9.162610054016113,2.940079689025879,0.12928688526153564,26.91650390625,5.126953125,-15.106201171875
12.3699999,9.174580574035645,2.985569477081299,0.1604115068912506,-9.1705322265625,5.5084228515625,-13.4124755859375
12.389999900000001,9.138668060302734,3.0573954582214355,0.24181437492370605,-6.561279296875,6.8511962890625,-12.20703125
12.4099999,9.033323287963867,3.162740468978882,0.33518823981285095,2.74658203125,4.0283203125,-13.763427734375
12.4299999,8.89685344696045,3.227383852005005,0.40222588181495667,-3.4332275390625,5.9661865234375,-14.7552490234375
12.4499999,8.729259490966797,3.3255462646484375,0.4213795065879822,-30.45654296875,7.14111328125,-16.7694091796875
12.469999900000001,8.559270858764648,3.3925838470458984,0.363918662071228,-35.70556640625,8.514404296875,-14.984130859375
12.4899999,8.394071578979492,3.421314239501953,0.4429273009300232,-33.99658203125,15.1214599609375,-10.1776123046875
12.5099999,8.245630264282227,3.3710360527038574,0.6368576288223267,-31.55517578125,14.34326171875,-10.5743408203125
12.5299999,8.157045364379883,3.227383852005005,0.828393816947937,10.25390625,14.5416259765625,-15.31982421875
12.549999900000001,8.125920295715332,3.0166940689086914,0.9457096457481384,21.3165283203125,18.1121826171875,-17.333984375
12.569999900000001,8.13789176940918,2.8634653091430664,0.9888052940368652,3.8909912109375,28.533935546875,-20.233154296875
12.5899999,8.111555099487305,2.738966703414917,0.9983820915222168,-13.5955810546875,29.6173095703125,-19.3939208984375
12.6099999,8.001421928405762,2.801215887069702,1.0295066833496094,-20.8282470703125,23.162841796875,-23.193359375
12.629999900000001,7.814674377441406,2.9448680877685547,0.9696516990661621,-18.9056396484375,18.7530517578125,-22.27783203125
12.649999900000001,7.548917770385742,3.1483752727508545,0.7589619159698486,-32.440185546875,27.679443359375,-14.2364501953125
12.6699999,7.220912456512451,3.268085241317749,0.6560112833976746,-39.8101806640625,56.6253662109375,-12.0086669921875
12.6899999,6.866570472717285,3.160346269607544,0.727837324142456,-36.346435546875,58.258056640625,-14.923095703125
12.709999900000001,6.57926607131958,2.935291290283203,0.9864110946655273,-11.3677978515625,41.9464111328125,-25.3753662109375
12.729999900000001,6.402095317840576,2.5977089405059814,1.3455413579940796,6.1798095703125,41.32080078125,-31.06689453125
12.7499999,6.358999729156494,2.343923568725586,1.7477672100067139,-0.8087158203125,57.12890625,-33.111572265625
12.7699999,6.399701118469238,2.190694570541382,2.0638017654418945,-30.3497314453125,46.5545654296875,-36.468505859375
12.789999900000002,6.502651691436768,2.1068975925445557,2.3942017555236816,-33.5540771484375,26.2603759765625,-42.6483154296875
12.809999900000001,6.598419666290283,2.1164743900299072,2.6623523235321045,-22.613525390625,23.4222412109375,-53.1463623046875
12.8299999,6.672640323638916,2.2649147510528564,2.8131868839263916,-8.026123046875,35.5987548828125,-64.8956298828125
12.8499999,6.691793918609619,2.7030537128448486,2.695871114730835,0.457763671875,35.1104736328125,-72.967529296875
12.8699999,6.658275127410889,3.4572272300720215,2.4468741416931152,-41.717529296875,23.651123046875,-70.098876953125
12.889999900000001,6.588842868804932,4.3406877517700195,2.2649147510528564,-56.4117431640625,37.04833984375,-61.737060546875
12.9099999,6.557718276977539,5.114014625549316,2.279279947280884,-23.590087890625,57.0526123046875,-61.3555908203125
12.9299999,6.517016887664795,5.621585369110107,2.604891538619995,-1.9683837890625,47.637939453125,-73.486328125
12.9499999,6.430825710296631,5.901707172393799,3.1435868740081787,17.15087890625,32.501220703125,-84.716796875
12.969999900000001,6.313509941101074,6.1267619132995605,3.509899616241455,30.3802490234375,27.8472900390625,-88.134765625
12.9899999,6.186617374420166,6.447585105895996,3.6152446269989014,22.4609375,34.72900390625,-85.9527587890625
13.0099999,6.035782337188721,6.852205276489258,3.4524388313293457,7.537841796875,36.346435546875,-82.0770263671875
13.0299999,5.8442463874816895,7.175422668457031,3.205836057662964,-1.800537109375,30.1055908203125,-77.45361328125
13.049999900000001,5.655104637145996,7.376535415649414,3.0358476638793945,-3.23486328125,30.8837890625,-80.01708984375
13.069999900000001,5.430049419403076,7.393294811248779,2.8778305053710938,16.1285400390625,35.5072021484375,-82.672119140625
13.0899999,5.193023681640625,7.331045627593994,2.873042106628418,31.6925048828125,43.7469482421875,-86.0595703125
13.1099999,4.900930881500244,7.230489253997803,2.896984100341797,27.8167724609375,37.4755859375,-85.845947265625
13.129999900000001,4.587290287017822,7.158663272857666,3.043030261993408,10.2386474609375,29.2510986328125,-85.5255126953125
13.149999900000001,4.268861770629883,7.228095054626465,3.181894063949585,21.514892578125,31.1431884765625,-93.017578125
13.1699999,4.02465295791626,7.314286231994629,3.3016040325164795,46.966552734375,33.63037109375,-95.4132080078125
13.1899999,3.8283286094665527,7.412448406219482,3.4356794357299805,43.9300537109375,31.646728515625,-94.6807861328125
13.209999900000001,3.641580820083618,7.376535415649414,3.5721490383148193,26.5655517578125,19.9127197265625,-99.18212890625
13.229999900000001,3.3925838470458984,7.390900611877441,3.7493197917938232,55.9234619140625,16.0369873046875,-119.6746826171875
13.2499999,3.066972494125366,7.632715225219727,3.825934410095215,108.1390380859375,14.1143798828125,-133.48388671875
13.2699999,2.7293899059295654,8.303091049194336,3.6104562282562256,68.4967041015625,1.1138916015625,-123.138427734375
13.289999900000002,2.4636335372924805,9.074024200439453,3.4811692237854004,-18.280029296875,8.9874267578125,-100.03662109375
13.309999900000001,2.2864625453948975,9.672574996948242,3.3039982318878174,-5.462646484375,21.7132568359375,-95.76416015625
13.3299999,2.229001760482788,9.81143856048584,3.2609026432037354,42.3736572265625,10.2691650390625,-113.2354736328125
13.3499999,2.1380221843719482,9.655815124511719,3.5865142345428467,30.2886962890625,5.3558349609375,-127.2430419921875
13.3699999,1.9704279899597168,9.421183586120605,4.003105163574219,5.9661865234375,-2.197265625,-127.0599365234375
13.389999900000001,1.6424223184585571,9.342175483703613,4.400542736053467,45.501708984375,-21.270751953125,-120.54443359375
13.4099999,1.2114660739898682,9.497797966003418,4.441244125366211,81.268310546875,-28.7933349609375,-130.6304931640625
13.4299999,0.7134721279144287,9.84256362915039,4.24970817565918,20.7672119140625,-26.702880859375,-132.9803466796875
13.4499999,0.14604631066322327,10.235212326049805,3.84269380569458,22.27783203125,-19.2413330078125,-124.0234375
13.469999900000001,-0.5410895943641663,10.795455932617188,3.5194764137268066,110.626220703125,-33.38623046875,-129.7760009765625
13.4899999,-1.3431471586227417,11.63342571258545,3.24414324760437,139.70947265625,-61.2030029296875,-135.589599609375
13.5099999,-2.185906171798706,12.607866287231445,2.779668092727661,89.8895263671875,-75.2410888671875,-105.16357421875
13.5299999,-2.942473888397217,13.510479927062988,2.013523578643799,50.35400390625,-60.7757568359375,-63.995361328125
13.549999900000001,-3.4596214294433594,13.951013565063477,0.9744400978088379,49.346923828125,-50.048828125,-45.7305908203125
13.569999900000001,-3.6798880100250244,13.57512378692627,0.047884032130241394,58.77685546875,-44.2962646484375,-49.13330078125
13.5899999,-3.641580820083618,12.593501091003418,-0.42377370595932007,39.8406982421875,-38.116455078125,-61.95068359375
13.6099999,-3.4596214294433594,11.398794174194336,-0.40940847992897034,39.9017333984375,-38.39111328125,-68.29833984375
13.629999900000001,-3.294421434402466,10.3549222946167,0.07182604819536209,59.4482421875,-47.1343994140625,-64.9261474609375
13.649999900000001,-3.2585084438323975,9.576807022094727,0.6536170840263367,74.40185546875,-56.8389892578125,-62.3779296875
13.6699999,-3.421314239501953,9.069235801696777,0.9648633003234863,78.399658203125,-62.8662109375,-61.798095703125
13.6899999,-3.7636849880218506,8.827422142028809,0.7996633648872375,93.292236328125,-56.3812255859375,-61.3861083984375
13.709999900000001,-4.1874589920043945,8.884882926940918,0.3447650372982025,86.4105224609375,-43.0450439453125,-59.1278076171875
13.729999900000001,-4.563348293304443,9.102754592895508,-0.19632454216480255,53.680419921875,-43.670654296875,-48.0804443359375
13.7499999,-4.790797710418701,9.308655738830566,-0.5674257874488831,40.2069091796875,-47.54638671875,-38.0706787109375
13.7699999,-4.838681697845459,9.334992408752441,-0.7015010714530945,32.2265625,-47.79052734375,-34.5001220703125
13.789999900000002,-4.766855716705322,9.14345645904541,-0.6009446382522583,49.224853515625,-44.8455810546875,-37.200927734375
13.809999900000001,-4.663905143737793,8.827422142028809,-0.3878606855869293,89.53857421875,-46.9818115234375,-40.252685546875
13.8299999,-4.627991676330566,8.456320762634277,-0.24420857429504395,107.1624755859375,-56.9000244140625,-37.4755859375
13.8499999,-4.6950297355651855,8.061277389526367,-0.24420857429504395,80.0323486328125,-60.8673095703125,-33.75244140625
13.8699999,-4.8722004890441895,7.709329605102539,-0.47165772318840027,55.5267333984375,-53.89404296875,-38.177490234375
13.889999900000001,-5.073313236236572,7.398083209991455,-0.9385270476341248,69.1070556640625,-50.9796142578125,-44.3878173828125
13.9099999,-5.279214859008789,7.297526836395264,-1.400607943534851,69.9920654296875,-46.5545654296875,-48.03466796875
13.9299999,-5.463568210601807,7.479485988616943,-1.659181833267212,48.065185546875,-41.412353515625,-46.905517578125
13.9499999,-5.590460777282715,7.805097579956055,-1.8387469053268433,59.9517822265625,-46.2799072265625,-39.093017578125
13.969999900000001,-5.669469833374023,8.20492935180664,-2.0015525817871094,74.3865966796875,-53.6651611328125,-33.63037109375
13.9899999,-5.705382823944092,8.537723541259766,-2.1116859912872314,46.051025390625,-41.0614013671875,-33.1268310546875
14.0099999,-5.6670756340026855,8.7484130859375,-2.274491548538208,19.2413330078125,-30.059814453125,-30.731201171875
14.0299999,-5.600037574768066,8.853757858276367,-2.3295583724975586,24.8260498046875,-33.782958984375,-23.92578125
14.049999900000001,-5.5114521980285645,8.848969459533691,-2.276885747909546,23.834228515625,-42.1142578125,-17.27294921875
14.069999900000001,-5.446808815002441,8.700529098510742,-2.255337953567505,5.3558349609375,-45.9747314453125,-13.916015625
14.0899999,-5.439626216888428,8.516175270080566,-2.2601263523101807,-6.2408447265625,-35.46142578125,-18.1732177734375
14.1099999,-5.501875400543213,8.341399192810059,-2.2218191623687744,5.5389404296875,-25.8636474609375,-20.69091796875
14.129999900000001,-5.626373767852783,8.20492935180664,-2.1930887699127197,15.625,-37.628173828125,-15.2130126953125
14.149999900000001,-5.7556610107421875,8.154650688171387,-2.183511972427368,16.4031982421875,-43.8232421875,-12.3138427734375
14.1699999,-5.872976779937744,8.097189903259277,-2.255337953567505,2.105712890625,-33.8897705078125,-11.3983154296875
14.1899999,-5.954379558563232,8.090007781982422,-2.3056161403656006,1.434326171875,-21.8505859375,-13.7939453125
14.209999900000001,-6.021417140960693,8.085219383239746,-2.3032219409942627,26.0162353515625,-26.0162353515625,-13.458251953125
14.229999900000001,-6.0621185302734375,8.070854187011719,-2.188300371170044,31.31103515625,-35.7818603515625,-9.368896484375
14.2499999,-6.076483726501465,8.006210327148438,-2.054224967956543,10.650634765625,-35.2783203125,-8.392333984375
14.2699999,-6.030993938446045,7.8098859786987305,-2.013523578643799,2.01416015625,-31.005859375,-8.8348388671875
14.289999900000002,-5.959167957305908,7.5417351722717285,-2.008735179901123,14.9078369140625,-26.153564453125,-12.8326416015625
14.309999900000001,-5.906495571136475,7.232883453369141,-1.9728221893310547,29.2816162109375,-23.0255126953125,-19.0887451171875
14.3299999,-5.963956356048584,6.871358871459961,-1.9512743949890137,29.4342041015625,-22.308349609375,-21.209716796875
14.3499999,-6.169857978820801,6.651092529296875,-1.9081788063049316,10.55908203125,-20.263671875,-25.7110595703125
14.3699999,-6.478709697723389,6.495469093322754,-1.7741034030914307,-1.6632080078125,-15.7470703125,-28.6407470703125
14.389999900000001,-6.761225700378418,6.404489517211914,-1.678335428237915,7.0343017578125,-23.7274169921875,-25.5279541015625
14.4099999,-6.92881965637207,6.332663536071777,-1.5969325304031372,16.05224609375,-28.961181640625,-24.10888671875
14.4299999,-6.947973251342773,6.236895561218262,-1.53707754611969,19.2413330078125,-19.4091796875,-28.350830078125
14.4499999,-6.909666061401367,6.107608318328857,-1.6400281190872192,18.2037353515625,-17.8070068359375,-26.214599609375
14.469999900000001,-6.936002254486084,6.0190229415893555,-1.7310078144073486,12.298583984375,-16.78466796875,-22.308349609375
14.4899999,-7.089231014251709,5.990292549133301,-1.6687586307525635,-5.6915283203125,-9.7503662109375,-23.4527587890625
14.5099999,-7.319074630737305,5.9304375648498535,-1.6328455209732056,-6.8359375,-17.1966552734375,-22.3388671875
14.5299999,-7.539340972900391,5.901707172393799,-1.5873557329177856,13.7786865234375,-18.8751220703125,-25.08544921875
14.549999900000001,-7.687781810760498,5.901707172393799,-1.6328455209732056,1.373291015625,-12.2833251953125,-27.099609375
14.569999900000001,-7.738059997558594,6.033388137817383,-1.659181833267212,-27.28271484375,-2.777099609375,-27.7557373046875
14.5899999,-7.706935405731201,6.268020153045654,-1.5897499322891235,-7.415771484375,1.28173828125,-26.9927978515625
14.6099999,-7.668628215789795,6.557718276977539,-1.5203180313110352,22.8729248046875,-10.3607177734375,-20.2178955078125
14.629999900000001,-7.6351094245910645,6.766014099121094,-1.37906014919281,-9.4757080078125,-11.04736328125,-13.4429931640625
14.649999900000001,-7.627926826477051,6.766014099121094,-1.3239935636520386,-19.5159912109375,-1.007080078125,-14.068603515625
14.6699999,-7.647080421447754,6.631938934326172,-1.2737152576446533,5.3558349609375,2.7313232421875,-20.9197998046875
14.6899999,-7.666234016418457,6.45476770401001,-1.1420341730117798,10.1470947265625,-3.387451171875,-20.20263671875
14.709999900000001,-7.692570209503174,6.315904140472412,-1.0247182846069336,-3.936767578125,-11.566162109375,-14.678955078125
14.729999900000001,-7.718906402587891,6.27280855178833,-0.9744400978088379,11.474609375,-3.8604736328125,-17.974853515625
14.7499999,-7.814674377441406,6.435614109039307,-1.400607943534851,-33.294677734375,-12.2833251953125,-15.56396484375
14.7699999,-7.94635534286499,6.53377628326416,-1.6400281190872192,-67.6422119140625,-12.9852294921875,-15.777587890625
14.789999900000002,-8.073247909545898,6.689399719238281,-1.7764976024627686,-17.4407958984375,3.570556640625,-28.13720703125
14.809999900000001,-8.259995460510254,6.799532890319824,-1.8842366933822632,-15.8233642578125,-0.1983642578125,-32.470703125
14.8299999,-8.38449478149414,6.926425457000732,-1.843535304069519,-45.623779296875,-10.4522705078125,-35.46142578125
14.8499999,-8.482656478881836,7.189787864685059,-1.8698714971542358,9.1094970703125,-3.8909912109375,-44.49462890625
14.8699999,-8.62630844116211,7.5968017578125,-2.1954829692840576,43.51806640625,-24.993896484375,-41.7633056640625
14.889999900000001,-8.856152534484863,8.396465301513672,-3.028665065765381,66.34521484375,-37.90283203125,-42.266845703125
14.9099999,-9.253589630126953,9.639056205749512,-4.592078685760498,90.6982421875,-26.153564453125,-36.6973876953125
14.9299999,-9.955090522766113,11.839327812194824,-7.220912456512451,105.3314208984375,-4.1961669921875,-23.712158203125
14.9499999,-11.195286750793457,15.574281692504883,-11.022904396057129,63.9801025390625,11.16943359375,21.6217041015625
14.969999900000001,-13.366827964782715,21.39458656311035,-16.419435501098633,29.4342041015625,40.10009765625,108.5662841796875
14.9899999,-17.26219367980957,28.96744728088379,-22.306777954101562,43.02978515625,136.932373046875,239.715576171875
15.0099999,-23.33149528503418,36.50678634643555,-27.487829208374023,64.5904541015625,276.4129638671875,396.6064453125
15.0299999,-31.54839515686035,42.020633697509766,-29.83893585205078,133.392333984375,411.3616943359375,493.1182861328125
15.049999900000001,-40.509891510009766,43.526588439941406,-27.298686981201172,50.9796142578125,499.9847412109375,499.9847412109375
15.069999900000001,-48.0444450378418,40.059783935546875,-19.73301124572754,-94.9859619140625,499.9847412109375,499.9847412109375
15.0899999,-52.018821716308594,32.38157653808594,-9.265560150146484,-34.027099609375,413.26904296875,499.9847412109375
15.1099999,-51.36759567260742,21.973983764648438,1.987187385559082,57.0831298828125,338.19580078125,499.9847412109375
15.129999900000001,-46.399627685546875,10.884040832519531,10.826580047607422,69.8089599609375,279.4647216796875,455.0323486328125
15.149999900000001,-38.565799713134766,0.8547300100326538,15.773000717163086,139.3890380859375,221.4508056640625,386.444091796875
15.1699999,-29.563602447509766,-6.830657482147217,17.164031982421875,152.6947021484375,199.6917724609375,321.5179443359375
15.1899999,-20.915746688842773,-11.693281173706055,15.535974502563477,99.8382568359375,173.614501953125,252.0904541015625
15.209999900000001,-13.599065780639648,-14.183250427246094,12.679692268371582,44.3115234375,152.069091796875,200.653076171875
15.229999900000001,-8.085219383239746,-14.575900077819824,9.567230224609375,-1.7852783203125,120.3460693359375,148.5595703125
15.2499999,-4.280832767486572,-13.508086204528809,6.88332986831665,13.4735107421875,79.8187255859375,91.73583984375
15.2699999,-1.8507179021835327,-11.547234535217285,4.857835292816162,56.8695068359375,61.798095703125,54.13818359375
15.289999900000002,-0.3471592366695404,-9.107542991638184,3.383007049560547,46.7681884765625,56.5338134765625,34.7137451171875
15.309999900000001,0.727837324142456,-6.62236213684082,2.473210334777832,57.80029296875,61.126708984375,17.1051025390625
15.3299999,1.6663644313812256,-4.51067590713501,2.2002713680267334,76.873779296875,48.6602783203125,2.532958984375
15.3499999,2.6791117191314697,-2.8395233154296875,2.2002713680267334,75.5157470703125,18.2342529296875,-10.1776123046875
15.3699999,3.7900211811065674,-1.7573440074920654,2.1763293743133545,72.7996826171875,0.274658203125,-16.204833984375
15.389999900000001,4.900930881500244,-1.0271124839782715,1.9536685943603516,63.507080078125,4.8980712890625,-20.32470703125
15.4099999,5.904101371765137,-0.4692635238170624,1.460463047027588,45.684814453125,5.2490234375,-26.9927978515625
15.4299999,6.751648902893066,0.011971008032560349,0.8882488012313843,30.0750732421875,-10.07080078125,-29.693603515625
15.4499999,7.42681360244751,0.49320554733276367,0.35434186458587646,32.3638916015625,-12.5732421875,-32.257080078125
15.469999900000001,7.943961143493652,0.9840168952941895,-0.16519992053508759,13.9007568359375,-8.392333984375,-32.4249267578125
15.4899999,8.303091049194336,1.4915876388549805,-0.6057330369949341,2.899169921875,-4.21142578125,-33.1573486328125
15.5099999,8.494627952575684,2.1140801906585693,-0.9169792532920837,12.481689453125,-11.8255615234375,-33.3099365234375
15.5299999,8.592789649963379,2.760514497756958,-1.1994950771331787,4.6539306640625,-24.993896484375,-27.5115966796875
15.549999900000001,8.647856712341309,3.3877954483032227,-1.4891934394836426,-1.8463134765625,-22.1710205078125,-22.0947265625
15.569999900000001,8.746018409729004,3.799597978591919,-1.8962076902389526,-2.3345947265625,-8.392333984375,-21.17919921875
15.5899999,8.887276649475098,4.003105163574219,-2.1499931812286377,-11.627197265625,-0.7171630859375,-22.3388671875
15.6099999,9.026140213012695,4.039018154144287,-2.1954829692840576,4.730224609375,-4.0283203125,-23.834228515625
15.629999900000001,9.117119789123535,4.027047157287598,-1.9800047874450684,13.7481689453125,-17.2576904296875,-21.087646484375
15.649999900000001,9.162610054016113,3.9695863723754883,-1.7956513166427612,19.561767578125,-27.6031494140625,-14.2669677734375
15.6699999,9.136273384094238,3.8762125968933105,-1.8626888990402222,24.9176025390625,-24.932861328125,-9.979248046875
15.6899999,9.059659004211426,3.7038300037384033,-2.0685901641845703,7.965087890625,-11.138916015625,-9.94873046875
15.709999900000001,8.904036521911621,3.5027170181274414,-2.363077163696289,2.593994140625,-11.8408203125,-11.8255615234375
15.729999900000001,8.712499618530273,3.3470940589904785,-2.561795711517334,13.7939453125,-17.8680419921875,-14.5263671875
15.7499999,8.504204750061035,3.2537200450897217,-2.647987127304077,15.6097412109375,-18.6004638671875,-14.83154296875
15.7699999,8.334216117858887,3.246537446975708,-2.7748796939849854,11.627197265625,-13.5040283203125,-15.1214599609375
15.789999900000002,8.180987358093262,3.3039982318878174,-2.853888511657715,6.5155029296875,-11.016845703125,-15.44189453125
15.809999900000001,8.066065788269043,3.3901896476745605,-2.918531894683838,18.6309814453125,-12.969970703125,-16.3116455078125
15.8299999,7.967903137207031,3.49314022064209,-2.9017724990844727,32.7301025390625,-16.5863037109375,-16.571044921875
15.8499999,7.920019149780273,3.557783842086792,-2.892195701599121,31.2957763671875,-16.9219970703125,-14.6484375
15.869999900000002,7.924807548522949,3.5410242080688477,-2.935291290283203,16.4642333984375,-15.899658203125,-11.7340087890625
15.889999900000001,7.960720539093018,3.4739866256713867,-3.0095114707946777,10.284423828125,-12.6495361328125,-12.4053955078125
15.9099999,8.018181800842285,3.378218650817871,-3.066972494125366,25.787353515625,-10.711669921875,-14.8162841796875
15.9299999,8.08043098449707,3.3303346633911133,-3.1268274784088135,24.3988037109375,-15.07568359375,-15.3656005859375
15.9499999,8.133103370666504,3.3231520652770996,-3.224989652633667,11.3067626953125,-18.85986328125,-12.8936767578125
15.969999900000001,8.142680168151855,3.3662476539611816,-3.2776620388031006,-6.1492919921875,-14.16015625,-13.97705078125
15.9899999,8.090007781982422,3.4548330307006836,-3.2848446369171143,-2.9144287109375,-14.068603515625,-17.7001953125
16.0099999,7.9415669441223145,3.5697548389434814,-3.224989652633667,14.9383544921875,-19.47021484375,-20.751953125
16.0299999,7.733271598815918,3.7229835987091064,-3.1962592601776123,25.1922607421875,-21.5301513671875,-21.6217041015625
16.0499999,7.4555439949035645,3.9169139862060547,-3.2632968425750732,12.4664306640625,-15.2130126953125,-19.9432373046875
16.0699999,7.175422668457031,4.0749311447143555,-3.335123062133789,-20.56884765625,-9.063720703125,-15.8538818359375
16.089999900000002,6.909666061401367,4.2329487800598145,-3.2106244564056396,-23.8037109375,-6.4239501953125,-16.7083740234375
16.109999900000002,6.66785192489624,4.278438568115234,-2.9664158821105957,9.82666015625,-14.5416259765625,-16.4794921875
16.1299999,6.3949127197265625,4.259284973144531,-2.5282769203186035,10.009765625,-20.172119140625,-14.007568359375
16.1499999,6.124367713928223,4.134786128997803,-2.1045033931732178,-3.6468505859375,-19.622802734375,-15.228271484375
16.1699999,5.95677375793457,3.907337188720703,-1.889025092124939,7.1563720703125,-26.0162353515625,-17.486572265625
16.1899999,5.899312973022461,3.4955344200134277,-1.9847931861877441,5.9051513671875,-40.1611328125,-13.0615234375
16.2099999,5.961562156677246,3.0837318897247314,-2.1332337856292725,-15.56396484375,-31.2652587890625,-19.195556640625
16.2299999,5.944802761077881,2.734178304672241,-2.3247697353363037,-32.77587890625,-29.5257568359375,-27.679443359375
16.249999900000002,5.772420406341553,2.583343744277954,-2.38462495803833,-18.585205078125,-47.119140625,-30.8074951171875
16.269999900000002,5.489904403686523,2.7293899059295654,-2.3750481605529785,0.2593994140625,-60.5010986328125,-35.125732421875
16.2899999,5.286397457122803,2.9544448852539062,-2.6839001178741455,5.279541015625,-66.3604736328125,-32.6995849609375
16.3099999,5.2049946784973145,3.138798475265503,-3.201047658920288,13.092041015625,-47.8973388671875,-32.3486328125
16.3299999,5.284003257751465,3.3016040325164795,-3.6990416049957275,-4.4708251953125,-33.0963134765625,-59.08203125
16.3499999,5.384559631347656,3.450044631958008,-4.271255970001221,-13.00048828125,-61.6912841796875,-67.1844482421875
16.3699999,5.451597213745117,3.646369218826294,-4.941632270812988,-9.8419189453125,-81.207275390625,-60.97412109375
16.3899999,5.494692802429199,3.8570590019226074,-5.846640586853027,-39.642333984375,-60.302734375,-58.7921142578125
16.4099999,5.430049419403076,4.1611223220825195,-6.63433313369751,-72.7691650390625,-16.9219970703125,-73.5015869140625
16.429999900000002,5.319916248321533,4.55616569519043,-6.809109687805176,-64.727783203125,-4.2877197265625,-90.179443359375
16.4499999,5.173870086669922,5.008669853210449,-6.358999729156494,-28.0303955078125,-33.99658203125,-89.7064208984375
16.4699999,5.013458251953125,5.501875400543213,-5.66228723526001,-20.050048828125,-55.17578125,-84.5489501953125
16.4899999,4.838681697845459,5.954379558563232,-5.003881454467773,-58.807373046875,-39.1998291015625,-88.623046875
16.5099999,4.525041103363037,6.303933143615723,-4.630385875701904,-77.850341796875,-29.11376953125,-94.8944091796875
16.5299999,4.14915132522583,6.552929878234863,-4.314351558685303,-54.3212890625,-43.3807373046875,-93.81103515625
16.5499999,3.7158010005950928,6.648698329925537,-4.0533833503723145,-39.1845703125,-53.2379150390625,-91.7816162109375
16.5699999,3.361459255218506,6.502651691436768,-4.017470359802246,-60.516357421875,-51.2237548828125,-92.6513671875
16.589999900000002,3.1100680828094482,6.189011573791504,-4.14915132522583,-98.2513427734375,-40.802001953125,-99.334716796875
16.609999900000002,2.7940332889556885,6.0836663246154785,-3.993528366088867,-116.7755126953125,-35.125732421875,-120.635986328125
16.6299999,2.341529369354248,6.277596950531006,-3.909731388092041,-50.9490966796875,-58.9141845703125,-130.645751953125
16.6499999,1.7118542194366455,6.885724067687988,-4.003105163574219,-26.5655517578125,-76.1260986328125,-116.6229248046875
16.6699999,1.0893617868423462,7.438784599304199,-4.5825018882751465,-99.30419921875,-46.3104248046875,-105.3009033203125
16.6899999,0.5889736413955688,7.939172744750977,-5.142745018005371,-157.9742431640625,7.9193115234375,-123.2147216796875
16.7099999,0.19632454216480255,8.453926086425781,-5.161899089813232,-102.813720703125,18.6614990234375,-153.6712646484375
16.7299999,-0.12449848651885986,9.124302864074707,-4.168305397033691,-40.10009765625,-9.5672607421875,-153.8543701171875
16.749999900000002,-0.44771572947502136,9.871294021606445,-3.157952070236206,-39.1082763671875,-55.84716796875,-120.941162109375
16.769999900000002,-0.7805097699165344,10.553641319274902,-2.3535003662109375,-101.837158203125,-49.0875244140625,-110.443115234375
16.7899999,-1.0749965906143188,10.99896240234375,-2.0398597717285156,-100.372314453125,-10.43701171875,-137.298583984375
16.8099999,-1.455674648284912,11.429919242858887,-1.946485996246338,20.8740234375,-16.937255859375,-161.19384765625
16.8299999,-1.9584569931030273,12.294225692749023,-2.0446481704711914,101.62353515625,-50.1861572265625,-154.449462890625
16.8499999,-2.492363929748535,13.342885971069336,-2.676717519760132,33.843994140625,-60.7757568359375,-104.91943359375
16.8699999,-2.913743495941162,14.362815856933594,-3.423708438873291,-102.294921875,-13.5040283203125,-67.6422119140625
16.8899999,-3.0310592651367188,14.803349494934082,-4.240131378173828,-90.8660888671875,11.3067626953125,-61.5081787109375
16.9099999,-2.875436305999756,14.542381286621094,-4.338293552398682,-29.9224853515625,-1.3580322265625,-58.5174560546875
16.929999900000002,-2.6168625354766846,13.711592674255371,-3.6535518169403076,-43.1365966796875,-5.6304931640625,-51.055908203125
16.9499999,-2.3965959548950195,12.411541938781738,-2.6599581241607666,-87.554931640625,-0.5950927734375,-38.6199951171875
16.9699999,-2.3367409706115723,10.948684692382812,-1.5466543436050415,-99.090576171875,0.42724609375,-44.5404052734375
16.9899999,-2.473210334777832,9.641449928283691,-0.6727706789970398,-40.4510498046875,-14.4500732421875,-68.66455078125
17.0099999,-2.7748796939849854,8.80587387084961,-0.27054479718208313,6.6680908203125,-25.299072265625,-76.263427734375
17.0299999,-3.184288263320923,8.678980827331543,-0.33279404044151306,-39.5355224609375,-6.1187744140625,-63.9190673828125
17.0499999,-3.6535518169403076,9.193734169006348,-0.35673606395721436,-119.293212890625,20.99609375,-48.33984375
17.0699999,-4.089296340942383,9.880870819091797,-0.21787235140800476,-90.850830078125,11.16943359375,-40.2679443359375
17.089999900000002,-4.460397720336914,10.429142951965332,0.07182604819536209,-9.58251953125,-18.2647705078125,-44.6624755859375
17.109999900000002,-4.733336925506592,10.527304649353027,0.3232172429561615,-31.6925048828125,-11.077880859375,-38.2537841796875
17.1299999,-4.9152960777282715,10.261548042297363,0.10773907601833344,-62.103271484375,16.8914794921875,-34.4390869140625
17.1499999,-5.0014872550964355,9.818621635437012,-0.4165911078453064,-18.1884765625,45.5169677734375,-37.628173828125
17.1699999,-5.135562419891357,9.445125579833984,-0.5841852426528931,-25.9552001953125,55.1910400390625,-30.059814453125
17.1899999,-5.202600479125977,9.313444137573242,-0.43335050344467163,-77.850341796875,35.82763671875,-32.8521728515625
17.2099999,-5.295974254608154,9.39245319366455,0.11971008777618408,-74.0814208984375,23.01025390625,-33.203125
17.2299999,-5.34625244140625,9.57441234588623,0.706289529800415,-61.2030029296875,19.22607421875,-26.1077880859375
17.249999900000002,-5.339069843292236,9.684545516967773,1.1061211824417114,-72.1435546875,17.181396484375,-19.683837890625
17.269999900000002,-5.317522048950195,9.646238327026367,1.3215993642807007,-86.883544921875,26.0009765625,-21.3775634765625
17.2899999,-5.25527286529541,9.469067573547363,1.4269442558288574,-70.098876953125,36.4990234375,-28.289794921875
17.3099999,-5.20978307723999,9.153033256530762,1.6160861253738403,-51.3153076171875,37.2314453125,-22.6898193359375
17.3299999,-5.157110691070557,8.827422142028809,2.1092917919158936,-45.6390380859375,31.92138671875,-20.7061767578125
17.3499999,-5.157110691070557,8.485051155090332,2.691082715988159,19.989013671875,17.9901123046875,-24.1851806640625
17.3699999,-5.20978307723999,8.255207061767578,2.918531894683838,99.3499755859375,-10.101318359375,-25.0244140625
17.3899999,-5.331887245178223,8.08043098449707,2.676717519760132,68.328857421875,-11.7645263671875,-18.6920166015625
17.409999900000003,-5.494692802429199,8.039729118347168,2.03507137298584,-18.3258056640625,8.11767578125,-19.744873046875
17.429999900000002,-5.657498836517334,7.982268333435059,1.2234370708465576,-24.627685546875,16.0064697265625,-23.4375
17.4499999,-5.815515995025635,7.903259754180908,0.6775590777397156,-19.805908203125,5.2642822265625,-18.6767578125
17.4699999,-5.9304375648498535,7.7763671875,0.4908113479614258,-28.6712646484375,5.1727294921875,-17.0440673828125
17.4899999,-6.01423454284668,7.556100368499756,0.4620809257030487,-45.196533203125,13.48876953125,-15.8843994140625
17.5099999,-6.078877925872803,7.314286231994629,0.5626373887062073,-85.7391357421875,14.8468017578125,-16.8914794921875
17.5299999,-6.117185115814209,7.015010833740234,0.8044517636299133,-112.884521484375,16.8914794921875,-17.2119140625
17.5499999,-6.162675380706787,6.698976516723633,1.2330138683319092,-110.198974609375,16.78466796875,-19.34814453125
17.5699999,-6.196194171905518,6.406883716583252,1.7597382068634033,-80.74951171875,13.092041015625,-30.181884765625
17.589999900000002,-6.265625953674316,6.217741966247559,2.274491548538208,-31.0211181640625,13.7481689453125,-40.4815673828125
17.609999900000002,-6.3518171310424805,6.162675380706787,2.5091233253479004,-2.9754638671875,18.7530517578125,-43.4112548828125
17.6299999,-6.452373504638672,6.375759124755859,2.5258827209472656,-46.905517578125,26.6876220703125,-43.8232421875
17.6499999,-6.564900875091553,6.715735912322998,2.4899697303771973,-99.2279052734375,32.40966796875,-36.102294921875
17.6699999,-6.651092529296875,7.06528902053833,2.58813214302063,-36.9415283203125,35.4156494140625,-29.9224853515625
17.6899999,-6.720524311065674,7.321468830108643,2.719813108444214,25.9246826171875,16.3421630859375,-30.609130859375
17.7099999,-6.782773494720459,7.364564418792725,2.9065608978271484,7.6446533203125,7.7972412109375,-29.0985107421875
17.7299999,-6.845022678375244,7.252037048339844,2.913743495941162,-18.524169921875,12.176513671875,-26.336669921875
17.749999900000002,-6.912060260772705,7.096413612365723,2.7916390895843506,-4.4708251953125,11.04736328125,-31.158447265625
17.769999900000002,-6.979097843170166,6.947973251342773,2.6623523235321045,41.534423828125,11.53564453125,-34.6832275390625
17.7899999,-7.043741226196289,6.833051681518555,2.4875755310058594,66.5435791015625,11.566162109375,-29.9224853515625
17.8099999,-7.0988078117370605,6.763619899749756,2.2625205516815186,51.8035888671875,8.514404296875,-26.611328125
17.8299999,-7.151480674743652,6.691793918609619,2.1164743900299072,29.11376953125,5.950927734375,-26.42822265625
17.8499999,-7.2113356590271,6.651092529296875,1.987187385559082,52.30712890625,1.2664794921875,-27.923583984375
17.8699999,-7.2783732414245605,6.562506675720215,1.8363527059555054,73.883056640625,-8.2550048828125,-24.810791015625
17.8899999,-7.359776020050049,6.490680694580078,1.6927006244659424,37.0330810546875,-7.8887939453125,-22.857666015625
17.909999900000003,-7.448361396789551,6.390124320983887,1.4772224426269531,33.416748046875,1.220703125,-25.8331298828125
17.929999900000002,-7.524975776672363,6.315904140472412,1.2401964664459229,42.8924560546875,2.38037109375,-24.749755859375
17.9499999,-7.580042362213135,6.251260757446289,1.0414776802062988,23.4527587890625,-1.0528564453125,-18.3563232421875
17.9699999,-7.6111674308776855,6.184223175048828,0.9864110946655273,-1.617431640625,7.6446533203125,-14.2059326171875
17.9899999,-7.615955829620361,6.129156112670898,1.039083480834961,-15.869140625,7.0648193359375,-18.1121826171875
18.0099999,-7.601590633392334,6.021417140960693,1.2425906658172607,1.3427734375,-0.0762939453125,-21.91162109375
18.0299999,-7.587224960327148,5.87776517868042,1.3910311460494995,16.78466796875,-9.6282958984375,-23.8037109375
18.0499999,-7.582436561584473,5.774814605712891,1.4891934394836426,10.8184814453125,-3.2958984375,-30.82275390625
18.0699999,-7.587224960327148,5.585672378540039,1.3886369466781616,11.3983154296875,6.2103271484375,-32.5775146484375
18.089999900000002,-7.613561630249023,5.39174222946167,1.3527239561080933,8.6212158203125,9.1400146484375,-41.9921875
18.109999900000002,-7.680599212646484,5.224148273468018,1.3862427473068237,7.659912109375,2.13623046875,-60.394287109375
18.1299999,-7.723694801330566,5.109226226806641,1.4844050407409668,14.068603515625,-5.157470703125,-71.8841552734375
18.1499999,-7.879317760467529,5.178658485412598,1.625662922859192,-6.378173828125,-3.0059814453125,-79.65087890625
18.1699999,-8.087613105773926,5.195417881011963,1.699883222579956,14.1448974609375,-1.6632080078125,-89.1571044921875
18.1899999,-8.398859977722168,5.899312973022461,1.7190368175506592,36.9720458984375,-3.326416015625,-130.767822265625
18.2099999,-8.755595207214355,7.297526836395264,1.8579005002975464,36.590576171875,-3.8604736328125,-131.8511962890625
18.2299999,-9.210494041442871,9.768342971801758,1.7405846118927002,91.5069580078125,-10.7421875,-78.765869140625
18.249999900000002,-9.938331604003906,14.563928604125977,1.4748282432556152,185.4400634765625,-12.8326416015625,-52.337646484375
18.269999900000002,-11.334151268005371,21.009119033813477,1.290474772453308,143.890380859375,-14.0380859375,20.3857421875
18.2899999,-13.737929344177246,29.28826904296875,1.3838485479354858,28.0609130859375,-33.4014892578125,148.681640625
18.3099999,-17.669208526611328,38.37905502319336,0.6153098344802856,36.7279052734375,-106.6436767578125,292.6177978515625
18.3299999,-23.195026397705078,45.48265075683594,0.19393034279346466,91.094970703125,-42.8009033203125,447.784423828125
18.3499999,-29.932310104370117,49.14577865600586,-0.2849099934101105,63.4918212890625,51.910400390625,499.9847412109375
18.3699999,-36.86591720581055,47.09634017944336,-0.181959331035614,6.5765380859375,40.771484375,499.9847412109375
18.3899999,-42.5162353515625,40.3063850402832,1.314416766166687,-44.891357421875,12.176513671875,499.9847412109375
18.409999900000003,-45.66939926147461,29.601909637451172,3.552995204925537,-88.3941650390625,-24.7802734375,499.9847412109375
18.429999900000002,-45.607147216796875,17.56865119934082,5.731719017028809,48.76708984375,-43.182373046875,499.9847412109375
18.4499999,-42.200199127197266,5.51624059677124,7.043741226196289,74.005126953125,-61.8133544921875,499.9847412109375
18.4699999,-36.056678771972656,-5.018246650695801,6.7492547035217285,111.2823486328125,-80.2459716796875,446.7620849609375
18.4899999,-28.335376739501953,-12.868834495544434,5.51624059677124,147.3541259765625,-28.50341796875,318.206787109375
18.5099999,-20.324378967285156,-17.480066299438477,3.114856481552124,140.4571533203125,-8.209228515625,229.0802001953125
18.5299999,-13.646949768066406,-18.069040298461914,1.2880805730819702,55.96923828125,-0.6103515625,175.3692626953125
18.5499999,-8.846575736999512,-15.76581859588623,-0.181959331035614,12.8936767578125,-6.2713623046875,163.4521484375
18.5699999,-5.892130374908447,-11.987768173217773,-1.1300631761550903,24.871826171875,-9.94873046875,157.9742431640625
18.589999900000002,-4.1180267333984375,-8.090007781982422,-1.5394717454910278,0.9002685546875,22.674560546875,130.5389404296875
18.609999900000002,-2.6815059185028076,-5.233725070953369,-1.7860745191574097,41.7327880859375,49.346923828125,93.109130859375
18.6299999,-1.2282254695892334,-3.5721490383148193,-1.45806884765625,91.2628173828125,58.868408203125,67.291259765625
18.6499999,0.395043283700943,-2.7078421115875244,-0.7709329724311829,85.4949951171875,39.9932861328125,47.698974609375
18.6699999,2.121262788772583,-2.3558945655822754,-0.09816227108240128,81.3751220703125,20.233154296875,36.8804931640625
18.6899999,3.7493197917938232,-2.2218191623687744,0.42856210470199585,52.8106689453125,19.8516845703125,28.6102294921875
18.7099999,5.154716491699219,-2.030282974243164,0.6129156351089478,36.224365234375,22.979736328125,12.8326416015625
18.7299999,6.2201361656188965,-1.5275006294250488,0.5530605912208557,57.06787109375,16.5557861328125,-9.33837890625
18.749999900000002,6.919242858886719,-0.608127236366272,0.3208230137825012,53.7872314453125,10.284423828125,-14.0380859375
18.769999900000002,7.299921035766602,0.5913678407669067,0.05267243832349777,20.7366943359375,12.451171875,-3.6468505859375
18.7899999,7.515398979187012,1.702277421951294,-0.363918662071228,17.0440673828125,20.4010009765625,-1.9989013671875
18.8099999,7.570465564727783,2.6408045291900635,-0.6416460275650024,14.495849609375,22.52197265625,-18.8140869140625
18.8299999,7.568071365356445,3.2776620388031006,-0.8475474119186401,14.312744140625,16.4642333984375,-26.2908935546875
18.8499999,7.560888767242432,3.794809579849243,-0.9768342971801758,-10.6201171875,12.3748779296875,-14.8773193359375
18.8699999,7.594407558441162,4.240131378173828,-0.9145850539207458,-46.8292236328125,12.8631591796875,-5.5694580078125
18.8899999,7.723694801330566,4.520252704620361,-0.6272808313369751,-49.224853515625,12.939453125,-8.056640625
18.909999900000003,7.931990146636963,4.654327869415283,-0.38307225704193115,-4.3182373046875,2.166748046875,-14.9383544921875
18.929999900000002,8.142680168151855,4.7405195236206055,-0.07422025501728058,11.53564453125,0.6561279296875,-16.876220703125
18.9499999,8.283937454223633,4.843470096588135,-0.09816227108240128,-7.26318359375,2.655029296875,-11.9476318359375
18.9699999,8.343792915344238,5.023035049438477,-0.26575639843940735,-19.3023681640625,4.5013427734375,-10.6201171875
18.9899999,8.339004516601562,5.152322292327881,-0.5482721924781799,-9.063720703125,1.9989013671875,-10.6658935546875
19.0099999,8.300697326660156,5.238513469696045,-0.7206547260284424,8.72802734375,3.7994384765625,-12.115478515625
19.0299999,8.238448143005371,5.216965675354004,-0.8259995579719543,2.3956298828125,1.4801025390625,-11.29150390625
19.0499999,8.152256965637207,5.149928092956543,-0.8451532125473022,-2.8839111328125,-0.8392333984375,-11.5509033203125
19.0699999,8.018181800842285,5.0685248374938965,-0.7948749661445618,-11.1846923828125,-5.7373046875,-12.6800537109375
19.089999900000002,7.8314337730407715,5.0014872550964355,-0.8427590131759644,-8.85009765625,-9.6435546875,-11.90185546875
19.109999900000002,7.592013359069824,4.967968463897705,-0.9816226959228516,-9.7808837890625,-8.7127685546875,-9.7198486328125
19.1299999,7.321468830108643,4.972756862640381,-1.0606313943862915,-13.48876953125,2.13623046875,-11.7034912109375
19.1499999,7.0988078117370605,4.994304656982422,-1.2186486721038818,5.5389404296875,2.44140625,-13.0462646484375
19.1699999,6.964732646942139,5.0469770431518555,-1.2713210582733154,18.0206298828125,-1.8768310546875,-12.4359130859375
19.1899999,6.94079065322876,5.118803024291992,-1.2856862545013428,12.8173828125,4.730224609375,-11.5509033203125
19.2099999,7.0126166343688965,5.202600479125977,-1.3718775510787964,6.4697265625,8.23974609375,-11.41357421875
19.2299999,7.094019412994385,5.272032260894775,-1.4245500564575195,-23.62060546875,7.415771484375,-11.4288330078125
19.249999900000002,7.204153060913086,5.262455463409424,-1.2641384601593018,-48.0804443359375,5.7220458984375,-9.9334716796875
19.269999900000002,7.299921035766602,5.264849662780762,-1.1851298809051514,-15.3350830078125,2.288818359375,-15.13671875
19.2899999,7.321468830108643,5.262455463409424,-1.1204863786697388,-6.7596435546875,-5.9967041015625,-14.739990234375
19.3099999,7.204153060913086,5.3582234382629395,-1.115697979927063,-23.2086181640625,7.293701171875,-14.892578125
19.3299999,7.024587631225586,5.499481201171875,-1.3982137441635132,-26.79443359375,8.1329345703125,-11.0626220703125
19.3499999,6.718130111694336,5.669469833374023,-1.7477672100067139,-28.1982421875,6.6986083984375,-5.584716796875
19.3699999,6.368576526641846,5.825092792510986,-2.008735179901123,-53.40576171875,18.5546875,-2.0599365234375
19.3899999,5.95677375793457,5.8442463874816895,-2.078166961669922,-69.27490234375,28.3050537109375,1.434326171875
19.409999900000003,5.57370138168335,5.726930618286133,-1.7621324062347412,-66.8792724609375,30.517578125,1.7242431640625
19.429999900000002,5.276820659637451,5.473145008087158,-1.2473790645599365,-46.93603515625,29.4647216796875,-4.5166015625
19.4499999,5.154716491699219,5.078101634979248,-0.6512228846549988,-50.6591796875,25.238037109375,-5.8746337890625
19.4699999,5.157110691070557,4.6040496826171875,-0.07422025501728058,-58.9141845703125,36.92626953125,-9.8876953125
19.4899999,5.200206279754639,4.180276393890381,0.6153098344802856,-50.1556396484375,45.0286865234375,-21.484375
19.5099999,5.343858242034912,3.7852327823638916,1.1204863786697388,-15.5792236328125,25.1007080078125,-31.341552734375
19.5299999,5.556941986083984,3.5051112174987793,1.400607943534851,-4.69970703125,8.7738037109375,-34.3780517578125
19.5499999,5.889736175537109,3.2992098331451416,1.4484920501708984,-29.47998046875,24.749755859375,-40.313720703125
19.5699999,6.229712963104248,3.114856481552124,1.625662922859192,-38.177490234375,44.3115234375,-55.877685546875
19.589999900000002,6.495469093322754,3.134010076522827,2.0254945755004883,-10.7421875,22.5067138671875,-81.7413330078125
19.609999900000002,6.600813865661621,3.3686418533325195,2.1954829692840576,45.257568359375,-27.130126953125,-92.071533203125
19.6299999,6.497863292694092,3.931279182434082,2.1284453868865967,18.5089111328125,-16.7236328125,-89.9658203125
19.6499999,6.18182897567749,4.78122091293335,1.7166426181793213,-17.76123046875,25.1312255859375,-99.7772216796875
19.6699999,5.640739440917969,5.817910194396973,1.3192051649093628,11.6424560546875,18.12744140625,-115.203857421875
19.6899999,5.049371242523193,6.890512466430664,1.259350061416626,42.999267578125,-16.41845703125,-116.912841796875
19.7099999,4.503493309020996,7.910442352294922,1.170764684677124,20.4010009765625,-35.3546142578125,-103.607177734375
19.7299999,4.173093795776367,8.56645393371582,1.0295066833496094,-42.05322265625,-22.6898193359375,-88.3026123046875
19.749999900000002,4.086902141571045,8.793902397155762,1.1803414821624756,-47.576904296875,5.67626953125,-99.3499755859375
19.769999900000002,4.113238334655762,8.712499618530273,1.5849615335464478,16.8304443359375,-21.3470458984375,-123.443603515625
19.7899999,4.1395745277404785,8.616731643676758,1.9297266006469727,61.7523193359375,-79.40673828125,-126.4190673828125
19.8099999,4.067748546600342,8.810662269592285,1.7717092037200928,58.2122802734375,-75.5157470703125,-108.82568359375
19.8299999,3.866635799407959,9.320627212524414,1.1563993692398071,33.9508056640625,-17.791748046875,-100.341796875
19.8499999,3.6990416049957275,9.880870819091797,0.5363011956214905,18.4173583984375,3.4027099609375,-105.438232421875
19.8699999,3.5697548389434814,10.299856185913086,0.15083470940589905,58.0291748046875,-44.1131591796875,-105.6060791015625
19.8899999,3.4811692237854004,10.587160110473633,0.11971008777618408,80.0323486328125,-49.6978759765625,-106.4910888671875
19.909999900000003,3.3207578659057617,10.845733642578125,0.16998831927776337,29.815673828125,-35.21728515625,-102.508544921875
19.929999900000002,2.9975404739379883,11.219228744506836,0.21547815203666687,-9.063720703125,-41.259765625,-97.869873046875
19.9499999,2.5282769203186035,11.580753326416016,0.44771572947502136,33.660888671875,-61.8896484375,-91.8731689453125
19.9699999,1.9704279899597168,11.72201156616211,0.6727706789970398,43.76220703125,-77.5146484375,-84.5794677734375
19.9899999,1.4652514457702637,11.561599731445312,0.5051765441894531,1.251220703125,-90.6219482421875,-82.0159912109375
20.0099999,1.1013327836990356,11.185709953308105,0.181959331035614,-16.17431640625,-70.4803466796875,-90.2099609375
20.0299999,0.9169792532920837,10.702081680297852,-0.33039984107017517,34.3780517578125,-52.6580810546875,-97.8240966796875
20.0499999,0.7541735172271729,10.541669845581055,-0.689530074596405,60.8062744140625,-65.7806396484375,-99.2584228515625
20.0699999,0.5363011956214905,10.704475402832031,-0.9983820915222168,39.73388671875,-68.6798095703125,-88.623046875
20.089999900000002,0.26096799969673157,10.860098838806152,-1.237802267074585,-12.9547119140625,-61.7523193359375,-61.6302490234375
20.109999900000002,-0.07422025501728058,10.953473091125488,-1.3551181554794312,-40.5426025390625,-59.9822998046875,-58.837890625
20.1299999,-0.33039984107017517,10.613495826721191,-1.3958195447921753,-10.894775390625,-74.432373046875,-73.8525390625
20.1499999,-0.545877993106842,9.99100399017334,-1.2401964664459229,17.669677734375,-81.3140869140625,-86.1053466796875
20.1699999,-0.8475474119186401,9.536105155944824,-1.0103530883789062,46.6766357421875,-69.000244140625,-94.17724609375
20.1899999,-1.216254472732544,9.265560150146484,-0.6703764796257019,39.4439697265625,-62.1490478515625,-87.0819091796875
20.2099999,-1.7166426181793213,9.39245319366455,-0.4189853072166443,30.6396484375,-77.911376953125,-77.9571533203125
20.2299999,-2.2457611560821533,9.655815124511719,-0.4620809257030487,29.296875,-91.217041015625,-70.0531005859375
