# Time (seconds),Accel_X,Accel_Y,Accel_Z,Gyro_X,Gyro_Y,Gyro_Z
0.0099999,-0.9457096457481384,1.3910311460494995,-9.045293807983398,-12.5885009765625,2.227783203125,13.2598876953125
0.029999900000000003,-0.8954314589500427,1.0199298858642578,-9.3828763961792,-11.41357421875,6.9580078125,5.096435546875
0.0499999,-0.7781155705451965,0.8164227604866028,-9.555258750915527,-9.5977783203125,13.1683349609375,3.7078857421875
0.0699999,-0.6488286852836609,0.8044517636299133,-9.533711433410645,-7.476806640625,7.32421875,10.4522705078125
0.08999990000000001,-0.5626373887062073,0.8786720037460327,-9.320627212524414,-7.1868896484375,-2.7923583984375,19.7906494140625
0.10999990000000001,-0.5578489899635315,1.070208191871643,-9.023746490478516,-8.087158203125,-10.9100341796875,16.6778564453125
0.1299999,-0.629675030708313,1.2713210582733154,-8.80587387084961,-0.30517578125,-22.7813720703125,13.00048828125
0.14999990000000002,-0.727837324142456,1.4221558570861816,-8.69334602355957,8.1329345703125,-26.67236328125,24.3377685546875
0.1699999,-0.7996633648872375,1.4844050407409668,-8.65982723236084,6.744384765625,-17.3187255859375,28.045654296875
0.1899999,-0.8140285611152649,1.3838485479354858,-8.69095230102539,-4.4708251953125,-11.0015869140625,17.02880859375
0.20999990000000002,-0.8523358106613159,1.1300631761550903,-8.87051773071289,-28.8848876953125,-9.27734375,10.3912353515625
0.2299999,-0.9026140570640564,1.0127472877502441,-9.033323287963867,-54.13818359375,25.4974365234375,10.7574462890625
0.2499999,-1.0271124839782715,1.0342950820922852,-9.23443603515625,-52.1240234375,74.0509033203125,11.932373046875
0.2699999,-1.2449848651885986,1.2737152576446533,-9.045293807983398,-121.124267578125,132.049560546875,58.074951171875
0.28999990000000003,-1.2545616626739502,1.802833914756775,-8.494627952575684,-88.958740234375,119.3695068359375,73.91357421875
0.3099999,-1.192312479019165,2.47560453414917,-7.663839817047119,-44.0216064453125,36.0870361328125,40.8782958984375
0.3299999,-0.9169792532920837,3.203441858291626,-7.096413612365723,-36.5447998046875,-20.0347900390625,35.064697265625
0.34999990000000003,-0.5650315880775452,3.670311212539673,-7.06528902053833,-21.331787109375,-24.1241455078125,66.8487548828125
0.3699999,-0.21547815203666687,3.5960910320281982,-7.754819393157959,-3.448486328125,-15.380859375,54.4281005859375
0.3899999,0.0694318488240242,3.224989652633667,-8.803479194641113,23.3001708984375,-6.3018798828125,-31.55517578125
0.40999990000000003,0.27054479718208313,2.9017724990844727,-9.68694019317627,39.2608642578125,8.9874267578125,-115.9820556640625
0.4299999,0.31364041566848755,3.0861260890960693,-10.15141487121582,41.748046875,-6.0882568359375,-120.8648681640625
0.4499999,0.15083470940589905,3.8810009956359863,-10.182539939880371,21.3775634765625,-56.7169189453125,-78.9337158203125
0.4699999,-0.1843535304069519,4.850652694702148,-10.137049674987793,25.9552001953125,-103.33251953125,-19.59228515625
0.4899999,-0.6368576288223267,5.621585369110107,-10.29746150970459,40.496826171875,-100.4180908203125,2.410888671875
0.5099999,-1.0965443849563599,5.901707172393799,-10.737994194030762,67.7642822265625,-58.6090087890625,-4.8370361328125
0.5299999,-1.4293384552001953,5.585672378540039,-11.310209274291992,87.371826171875,-35.186767578125,0.7171630859375
0.5499999,-1.5298948287963867,4.932055473327637,-11.858481407165527,57.2357177734375,-34.759521484375,-1.5411376953125
0.5699999,-1.338358759880066,4.307168960571289,-12.301408767700195,36.346435546875,-40.2374267578125,-28.62548828125
0.5899998999999999,-0.9696516990661621,3.8762125968933105,-12.689269065856934,4.6539306640625,-33.3404541015625,-24.47509765625
0.6099998999999999,-0.5913678407669067,3.581725835800171,-12.871228218078613,-6.2408447265625,-2.960205078125,24.47509765625
0.6299999,-0.363918662071228,3.294421434402466,-12.622231483459473,-4.1656494140625,48.614501953125,41.07666015625
0.6499999,-0.2346317619085312,2.9496564865112305,-11.769895553588867,-2.777099609375,67.7490234375,2.3040771484375
0.6699999,-0.15801730751991272,2.734178304672241,-10.376470565795898,-8.8043212890625,42.8314208984375,-26.9012451171875
0.6899999,-0.12210428714752197,2.8347349166870117,-8.935160636901855,-15.1214599609375,-8.331298828125,-0.885009765625
0.7099999,-0.11252748221158981,3.0119056701660156,-7.9631147384643555,-5.8746337890625,-35.70556640625,58.5784912109375
0.7299998999999999,-0.30885201692581177,2.9712042808532715,-7.728483200073242,-1.0528564453125,-9.2315673828125,76.4312744140625
0.7499998999999999,-0.5817909836769104,2.5450363159179688,-8.11634349822998,13.0615234375,32.623291015625,25.7110595703125
0.7699999,-0.8379706144332886,1.8938134908676147,-8.552088737487793,53.0242919921875,62.6068115234375,-20.4010009765625
0.7899999,-1.0342950820922852,1.4891934394836426,-8.5903959274292,40.46630859375,70.37353515625,-15.7012939453125
0.8099999,-1.1013327836990356,1.357512354850769,-8.259995460510254,12.420654296875,29.815673828125,21.8353271484375
0.8299999,-1.1228805780410767,1.482010841369629,-7.922413349151611,10.345458984375,-24.078369140625,42.9229736328125
0.8499998999999999,-1.170764684677124,1.6424223184585571,-7.927201747894287,31.158447265625,-25.2685546875,38.8641357421875
0.8699998999999999,-1.2258312702178955,1.656787633895874,-8.458714485168457,49.0875244140625,-4.8828125,43.6859130859375
0.8899999,-1.3431471586227417,1.4101848602294922,-9.186552047729492,41.6259765625,7.8125,53.4820556640625
0.9099999,-1.5131354331970215,0.8906430602073669,-9.710882186889648,25.20751953125,17.4713134765625,43.548583984375
0.9299999,-1.6927006244659424,0.27054479718208313,-9.871294021606445,10.406494140625,9.8114013671875,2.6702880859375
0.9499999,-1.764526605606079,-0.17477671802043915,-9.691728591918945,5.7220458984375,-6.6070556640625,-28.7322998046875
0.9699998999999999,-1.699883222579956,-0.16998831927776337,-9.390059471130371,8.636474609375,-15.2587890625,-38.4368896484375
0.9899998999999999,-1.460463047027588,0.17956513166427612,-9.184157371520996,30.792236328125,-15.228271484375,-20.5230712890625
1.0099999,-1.1252747774124146,0.6440402865409851,-9.08838939666748,43.9605712890625,-4.5013427734375,-0.030517578125
1.0299999,-0.7852981686592102,1.0342950820922852,-9.117119789123535,28.1524658203125,2.3040771484375,-0.5645751953125
1.0499999,-0.5339069962501526,1.2832920551300049,-9.20091724395752,17.0745849609375,1.5869140625,-2.349853515625
1.0699999,-0.44532153010368347,1.3982137441635132,-9.404424667358398,28.8848876953125,-6.256103515625,9.2010498046875
1.0899999,-0.507570743560791,1.316810965538025,-9.672574996948242,48.095703125,-0.457763671875,22.6287841796875
1.1099999,-0.689530074596405,1.0055646896362305,-9.911994934082031,52.91748046875,13.00048828125,14.556884765625
1.1299999,-0.8882488012313843,0.4357447028160095,-10.041281700134277,51.1322021484375,8.544921875,1.251220703125
1.1499999,-1.0031704902648926,-0.15322890877723694,-9.96945571899414,41.8701171875,-4.94384765625,-9.1400146484375
1.1699998999999999,-1.0031704902648926,-0.5315127968788147,-9.782708168029785,37.17041015625,-21.7437744140625,-15.4266357421875
1.1899998999999999,-0.8930372595787048,-0.586579442024231,-9.622296333312988,29.9835205078125,-38.2232666015625,-15.4571533203125
1.2099999,-0.7326257228851318,-0.28969839215278625,-9.59835433959961,22.491455078125,-34.8663330078125,-14.923095703125
1.2299999,-0.6057330369949341,0.20350714027881622,-9.744400978088379,21.8658447265625,-21.30126953125,-0.823974609375
1.2499999,-0.5722141861915588,0.5770025849342346,-9.979032516479492,22.1405029296875,-10.2691650390625,25.4669189453125
1.2699999,-0.6919242739677429,0.629675030708313,-10.11550235748291,18.4783935546875,6.2408447265625,33.4320068359375
1.2899999,-0.8762778043746948,0.3471592366695404,-10.046070098876953,22.064208984375,14.190673828125,8.6669921875
1.3099999,-1.0630255937576294,-0.023942016065120697,-9.81143856048584,19.8974609375,2.1820068359375,-8.3160400390625
1.3299999,-1.1300631761550903,-0.31842881441116333,-9.593565940856934,12.786865234375,-15.0604248046875,9.09423828125
1.3499999,-1.0797849893569946,-0.4836287498474121,-9.545681953430176,5.4779052734375,-11.810302734375,33.7982177734375
1.3699999,-1.01753568649292,-0.608127236366272,-9.701305389404297,1.861572265625,4.180908203125,32.4554443359375
1.3899999,-0.9768342971801758,-0.7709329724311829,-9.897629737854004,-6.439208984375,24.627685546875,18.4326171875
1.4099999,-1.0031704902648926,-0.7876923680305481,-10.019734382629395,-11.41357421875,27.862548828125,7.1868896484375
1.4299998999999999,-1.0342950820922852,-0.5530605912208557,-10.125079154968262,-11.71875,6.9122314453125,16.2200927734375
1.4499999,-1.0295066833496094,-0.16519992053508759,-10.280701637268066,-3.753662109375,-4.974365234375,41.1376953125
1.4699999,-1.0438719987869263,0.0933738648891449,-10.472238540649414,5.401611328125,8.36181640625,57.6019287109375
1.4899999,-1.0558429956436157,-0.023942016065120697,-10.60391902923584,-0.3509521484375,26.336669921875,52.5970458984375
1.5099999,-1.0845733880996704,-0.45010992884635925,-10.508151054382324,-18.951416015625,33.9813232421875,31.2347412109375
1.5299999,-1.0630255937576294,-0.8786720037460327,-10.144232749938965,-35.064697265625,29.6478271484375,11.5966796875
1.5499999,-0.9241618514060974,-0.9672574996948242,-9.68933391571045,-37.9791259765625,11.3983154296875,8.3770751953125
1.5699999,-0.7493851184844971,-0.7038952708244324,-9.351752281188965,-37.841796875,-5.218505859375,28.6407470703125
1.5899999,-0.5746083855628967,-0.3280056416988373,-9.258378028869629,-41.7327880859375,-2.99072265625,57.9681396484375
1.6099999,-0.45489832758903503,-0.035913024097681046,-9.464279174804688,-40.34423828125,4.21142578125,51.2542724609375
1.6299999,-0.3758896589279175,0.038307227194309235,-9.787496566772461,-34.11865234375,15.777587890625,28.25927734375
1.6499999,-0.31364041566848755,0.05027823522686958,-10.050858497619629,-31.9671630859375,27.34375,18.6920166015625
1.6699999,-0.22505496442317963,0.1364694982767105,-10.132261276245117,-30.517578125,27.6641845703125,21.2860107421875
1.6899998999999999,-0.1364694982767105,0.33758243918418884,-10.06043529510498,-29.296875,20.4010009765625,25.6805419921875
1.7099999,-0.05985504388809204,0.6248866319656372,-9.916783332824707,-21.636962890625,19.317626953125,21.91162109375
1.7299999,-0.011971008032560349,0.9169792532920837,-9.770736694335938,-13.5955810546875,24.2919921875,21.5606689453125
1.7499999,-0.0071826050989329815,1.0989385843276978,-9.672574996948242,-11.932373046875,21.270751953125,29.541015625
1.7699999,-0.023942016065120697,1.1635819673538208,-9.600749015808105,-12.51220703125,12.6953125,28.5491943359375
1.7899999,-0.06224924325942993,1.0965443849563599,-9.579200744628906,-7.87353515625,8.7890625,17.913818359375
1.8099999,-0.0933738648891449,0.9169792532920837,-9.531316757202148,-1.7242431640625,18.2037353515625,14.678955078125
1.8299999,-0.090979665517807,0.7733271718025208,-9.452308654785156,1.7242431640625,23.345947265625,11.322021484375
1.8499999,-0.05267243832349777,0.7230489253997803,-9.26795482635498,4.5928955078125,17.730712890625,5.340576171875
1.8699999,0.028730420395731926,0.730231523513794,-9.004592895507812,5.096435546875,5.55419921875,14.1754150390625
1.8899999,0.13407529890537262,0.7661445140838623,-8.765172004699707,12.2528076171875,-10.345458984375,23.4832763671875
1.9099999,0.2513911724090576,0.7230489253997803,-8.650250434875488,19.744873046875,-21.759033203125,26.031494140625
1.9299998999999999,0.35673606395721436,0.569819986820221,-8.71728801727295,21.5606689453125,-28.50341796875,19.8211669921875
1.9499999,0.4596867263317108,0.35434186458587646,-8.978256225585938,25.787353515625,-32.3333740234375,10.07080078125
1.9699999,0.545877993106842,0.20111294090747833,-9.397241592407227,26.7181396484375,-32.6080322265625,1.953125
1.9899999,0.629675030708313,0.090979665517807,-9.837775230407715,30.94482421875,-17.7001953125,2.716064453125
2.0099999,0.6943184733390808,0.07661445438861847,-10.127472877502441,29.7393798828125,3.96728515625,-2.3956298828125
2.0299999,0.7254431247711182,0.1388636976480484,-10.177751541137695,22.6898193359375,9.70458984375,-14.617919921875
2.0499999,0.7015010714530945,0.2777273952960968,-9.923966407775879,13.5650634765625,5.9356689453125,-12.4359130859375
2.0699999,0.6153098344802856,0.4429273009300232,-9.47146224975586,8.6822509765625,1.9378662109375,3.35693359375
2.0899999,0.4692635238170624,0.5482721924781799,-9.05487060546875,0.0457763671875,-12.14599609375,15.625
2.1099999,0.28730419278144836,0.48602294921875,-8.83939266204834,-9.94873046875,-27.2216796875,13.48876953125
2.1299999,0.0933738648891449,0.2801215946674347,-8.882488250732422,-6.317138671875,-23.3306884765625,1.28173828125
2.1499999,-0.043095629662275314,0.08379705995321274,-9.131484985351562,-3.326416015625,-12.51220703125,-7.1258544921875
2.1699999,-0.10773907601833344,-0.004788403399288654,-9.454702377319336,-3.84521484375,-13.5955810546875,-5.157470703125
2.1899999,-0.08140286058187485,0.07182604819536209,-9.730035781860352,-6.378173828125,-15.7623291015625,-0.2288818359375
2.2099999,0.016759412363171577,0.2992752194404602,-9.919178009033203,0.06103515625,-11.3983154296875,-3.570556640625
2.2299999,0.14604631066322327,0.5746083855628967,-10.000580787658691,2.5634765625,-3.692626953125,-0.1983642578125
2.2499999,0.23942017555236816,0.7254431247711182,-10.005369186401367,4.1961669921875,-7.2174072265625,14.556884765625
2.2699999,0.2585737705230713,0.6751648783683777,-9.95748519897461,6.6375732421875,-11.962890625,15.9912109375
2.2899999,0.17717093229293823,0.45250412821769714,-9.890447616577148,8.636474609375,-8.8348388671875,-2.3956298828125
2.3099999,0.021547814831137657,0.17238251864910126,-9.873687744140625,7.4310302734375,-5.5084228515625,-13.0615234375
2.3299999,-0.40222588181495667,-0.1149216815829277,-9.914389610290527,-3.47900390625,-1.0528564453125,11.29150390625
2.3499999,-0.5985504388809204,-0.20350714027881622,-9.971850395202637,-4.638671875,-4.0435791015625,7.720947265625
2.3699999,-0.7589619159698486,-0.31842881441116333,-9.988609313964844,-0.2593994140625,-3.6773681640625,-10.955810546875
2.3899999,-0.8403648138046265,-0.3926490843296051,-9.988609313964844,-2.532958984375,-1.28173828125,-19.683837890625
2.4099999,-0.8307880163192749,-0.2944868206977844,-9.99339771270752,-8.2550048828125,-9.6435546875,-16.0369873046875
2.4299999,-0.7589619159698486,-0.06464344263076782,-10.002974510192871,-0.030517578125,-12.786865234375,-14.2822265625
2.4499999,-0.6751648783683777,0.16998831927776337,-9.923966407775879,-1.251220703125,1.6326904296875,-5.7373046875
2.4699999,-0.6607996821403503,0.2968810200691223,-9.81143856048584,0.7781982421875,-6.4849853515625,-6.4239501953125
2.4899999,-0.7158663272857666,0.26815059781074524,-9.672574996948242,3.3416748046875,-24.47509765625,-14.373779296875
2.5099999,-0.8188169598579407,0.16519992053508759,-9.57441234588623,12.969970703125,-27.923583984375,-15.411376953125
2.5299999,-0.9864110946655273,-0.026336219161748886,-9.617507934570312,14.739990234375,-21.942138671875,-9.5062255859375
2.5499999,-1.1037269830703735,-0.28969839215278625,-9.768342971801758,-2.3956298828125,-5.706787109375,-3.8909912109375
2.5699999,-1.2186486721038818,-0.5003881454467773,-9.926360130310059,-18.2647705078125,0.0152587890625,-25.1312255859375
2.5899999,-1.2234370708465576,-0.6129156351089478,-10.010157585144043,-13.5650634765625,3.448486328125,-40.313720703125
2.6099999,-1.1659762859344482,-0.47165772318840027,-10.036493301391602,-5.7220458984375,-4.638671875,-33.1268310546875
2.6299999,-1.1037269830703735,-0.14365209639072418,-9.976638793945312,-12.1307373046875,-3.0975341796875,-19.805908203125
2.6499999,-1.0199298858642578,0.12449848651885986,-9.974244117736816,4.2877197265625,7.4920654296875,-3.8299560546875
2.6699999,-1.0223240852355957,0.2753331959247589,-9.916783332824707,8.97216796875,22.705078125,-9.9029541015625
2.6899999,-1.0414776802062988,0.26575639843940735,-9.81143856048584,6.40869140625,28.01513671875,-17.333984375
2.7099999,-1.1037269830703735,0.19393034279346466,-9.50737476348877,0.2288818359375,16.845703125,-3.35693359375
2.7299999,-1.2066776752471924,0.17238251864910126,-9.069235801696777,-22.308349609375,-11.3677978515625,13.2598876953125
2.7499999,-1.3215993642807007,0.15801730751991272,-8.62630844116211,-38.6505126953125,-40.5120849609375,32.4859619140625
2.7699999,-1.4748282432556152,0.10773907601833344,-8.310274124145508,-55.6488037109375,-48.370361328125,41.1224365234375
2.7899999,-1.5490485429763794,-0.05027823522686958,-8.26239013671875,-55.328369140625,-50.262451171875,30.0445556640625
2.8099999,-1.6735470294952393,-0.17956513166427612,-8.51138687133789,-50.1861572265625,-62.225341796875,-2.13623046875
2.8299999,-1.7597382068634033,-0.3208230137825012,-9.107542991638184,-19.287109375,-64.63623046875,-21.453857421875
2.8499999,-1.9081788063049316,-0.37828385829925537,-9.75637149810791,-2.532958984375,-31.036376953125,-30.45654296875
2.8699999,-2.0374655723571777,-0.3208230137825012,-10.35252857208252,-3.6468505859375,-9.002685546875,-39.2913818359375
2.8899999,-2.1499931812286377,-0.22744916379451752,-10.706870079040527,-6.9580078125,-15.411376953125,-40.313720703125
2.9099999,-2.1978771686553955,-0.0933738648891449,-10.76193618774414,-4.974365234375,-17.364501953125,-39.00146484375
2.9299999,-2.2361843585968018,0.09816227108240128,-10.730812072753906,6.927490234375,-10.833740234375,-49.9114990234375
2.9499999,-2.293645143508911,0.27054479718208313,-10.613495826721191,25.0091552734375,5.2032470703125,-58.6700439453125
2.9699999,-2.3319525718688965,0.4357447028160095,-10.529699325561523,59.63134765625,10.5438232421875,-57.3577880859375
2.9899999,-2.3367409706115723,0.5746083855628967,-10.431536674499512,54.473876953125,4.2266845703125,-52.2918701171875
3.0099999,-2.2816741466522217,0.6991068720817566,-10.390835762023926,26.9622802734375,6.072998046875,-41.6412353515625
3.0299999,-2.1954829692840576,0.7589619159698486,-10.417171478271484,11.0931396484375,22.2930908203125,-22.5830078125
3.0499999,-2.2026655673980713,0.5051765441894531,-10.362105369567871,14.8468017578125,43.5943603515625,-4.7607421875
3.0699999,-2.2625205516815186,0.14604631066322327,-10.340557098388672,71.380615234375,39.520263671875,-31.9671630859375
3.0899999,-2.360682964324951,-0.33758243918418884,-10.45547866821289,128.7078857421875,49.7283935546875,-73.6541748046875
3.1099999,-2.3319525718688965,-0.6967126727104187,-10.54406452178955,131.3629150390625,119.81201171875,-59.4482421875
3.1299999,-2.0207061767578125,-0.7924807667732239,-10.44350814819336,90.9576416015625,156.5399169921875,-23.2696533203125
3.1499999,-1.5849615335464478,-1.0295066833496094,-10.079588890075684,56.5643310546875,71.1517333984375,3.1585693359375
3.1699999,-1.0031704902648926,-1.359906554222107,-9.402029991149902,34.0728759765625,-27.6947021484375,-17.39501953125
3.1899999,-0.545877993106842,-1.6735470294952393,-8.83699893951416,16.11328125,-52.7801513671875,-62.43896484375
3.2099999,-0.24660277366638184,-1.821987509727478,-8.633491516113281,4.8370361328125,-28.1219482421875,-54.534912109375
3.2299999,-0.20111294090747833,-1.6184803247451782,-8.796297073364258,-9.429931640625,-15.899658203125,-15.5792236328125
3.2499999,-0.23702596127986908,-1.2737152576446533,-9.174580574035645,-20.050048828125,-11.7950439453125,5.3558349609375
3.2699999,-0.35913026332855225,-1.1492167711257935,-9.39245319366455,-27.557373046875,19.6380615234375,22.5830078125
3.2899999,-0.40940847992897034,-1.316810965538025,-9.308655738830566,-49.1180419921875,24.200439453125,13.5498046875
3.3099999,-0.4884171485900879,-1.556231141090393,-9.150638580322266,-83.160400390625,-32.8521728515625,-10.4217529296875
3.3299999000000002,-0.5602431893348694,-1.6831238269805908,-9.14585018157959,-62.7288818359375,-70.6787109375,-10.43701171875
3.3499999,-0.6847416758537292,-1.623268723487854,-9.275136947631836,-21.8048095703125,-27.9998779296875,8.5601806640625
3.3699999,-0.8427590131759644,-1.482010841369629,-9.497797966003418,-16.3421630859375,3.47900390625,27.2674560546875
3.3899999,-1.0438719987869263,-1.3886369466781616,-9.679757118225098,-36.19384765625,-45.3033447265625,25.5584716796875
3.4099999,-1.1803414821624756,-1.4867992401123047,-9.746794700622559,-30.0445556640625,-80.74951171875,10.5743408203125
3.4299999,-1.3766659498214722,-1.6160861253738403,-9.739612579345703,-5.31005859375,-38.5589599609375,-9.918212890625
3.4499999,-1.4891934394836426,-1.6280571222305298,-9.921571731567383,-2.38037109375,-8.8958740234375,-24.993896484375
3.4699999,-1.5490485429763794,-1.359906554222107,-10.096348762512207,-13.9007568359375,-7.720947265625,-29.876708984375
3.4899999,-1.5825673341751099,-0.9026140570640564,-10.077195167541504,-11.1541748046875,12.847900390625,-19.53125
3.5099999,-1.5322890281677246,-0.40940847992897034,-10.017339706420898,2.5634765625,15.2435302734375,-2.0599365234375
3.5299999,-1.4939818382263184,-0.0454898327589035,-9.8784761428833,-5.401611328125,3.814697265625,-3.2806396484375
3.5499999,-1.3934253454208374,0.08140286058187485,-9.782708168029785,-20.8282470703125,3.7994384765625,-9.490966796875
3.5699999,-1.2880805730819702,0.019153613597154617,-9.744400978088379,-20.56884765625,7.0037841796875,-8.1634521484375
3.5899999,-1.2114660739898682,-0.06464344263076782,-9.739612579345703,-9.429931640625,10.31494140625,-11.6424560546875
3.6099999,-1.1468225717544556,-0.15562310814857483,-9.679757118225098,-7.110595703125,10.8184814453125,-12.420654296875
3.6299999,-1.1276689767837524,-0.14604631066322327,-9.672574996948242,-4.3182373046875,-2.8839111328125,-13.702392578125
3.6499999,-1.1180921792984009,-0.06464344263076782,-9.737217903137207,3.1890869140625,-0.518798828125,-11.6729736328125
3.6699999,-1.1037269830703735,0.16519992053508759,-9.907206535339355,1.1444091796875,26.1688232421875,-7.415771484375
3.6899999,-1.1037269830703735,0.3711012601852417,-10.022128105163574,-5.3558349609375,42.5872802734375,4.69970703125
3.7099999,-1.1109095811843872,0.36152446269989014,-9.96945571899414,-8.7890625,28.4423828125,20.1263427734375
3.7299999,-1.0965443849563599,0.2777273952960968,-9.821015357971191,-6.4544677734375,-0.9918212890625,-0.6103515625
3.7499999,-1.0654197931289673,0.12928688526153564,-9.653421401977539,4.119873046875,-5.4931640625,-22.216796875
3.7699999,-0.993593692779541,-0.019153613597154617,-9.576807022094727,2.9296875,11.810302734375,-5.0811767578125
3.7899999,-0.8930372595787048,-0.0454898327589035,-9.648633003234863,-7.049560546875,9.6282958984375,5.950927734375
3.8099999,-0.8547300100326538,-0.031124621629714966,-9.718064308166504,-13.8092041015625,4.6539306640625,-5.18798828125
3.8299999000000002,-0.7876923680305481,-0.033518824726343155,-9.761159896850586,-7.171630859375,13.9617919921875,-10.3912353515625
3.8499999,-0.7996633648872375,0.07661445438861847,-9.780313491821289,-5.218505859375,17.425537109375,-8.5601806640625
3.8699999,-0.7948749661445618,0.1364694982767105,-9.710882186889648,-0.9918212890625,16.05224609375,4.9285888671875
3.8899999,-0.7972691655158997,0.13407529890537262,-9.66299819946289,1.3275146484375,4.364013671875,2.9449462890625
3.9099999,-0.7948749661445618,0.014365210197865963,-9.660603523254395,-1.40380859375,-0.6866455078125,-12.4359130859375
3.9299999,-0.7757213711738586,-0.1412578970193863,-9.684545516967773,0.3204345703125,9.735107421875,-15.0299072265625
3.9499999,-0.7350199222564697,-0.30885201692581177,-9.75637149810791,4.6539306640625,9.033203125,-7.5225830078125
3.9699999,-0.6631938815116882,-0.42856210470199585,-9.80904483795166,2.7618408203125,-1.5106201171875,-6.2713623046875
3.9899999,-0.5913678407669067,-0.5267243981361389,-9.859322547912598,-1.8463134765625,-4.7149658203125,-14.678955078125
4.0099999,-0.524330198764801,-0.6009446382522583,-9.888052940368652,0.1068115234375,2.2125244140625,-18.463134765625
4.029999900000001,-0.4692635238170624,-0.5722141861915588,-9.93354320526123,4.1961669921875,2.5177001953125,-17.4407958984375
4.0499999,-0.44532153010368347,-0.5291185975074768,-9.995792388916016,8.4381103515625,-7.01904296875,-13.5345458984375
4.069999900000001,-0.44532153010368347,-0.5578489899635315,-10.055646896362305,7.8582763671875,-4.150390625,-8.0108642578125
4.0899999000000005,-0.45010992884635925,-0.629675030708313,-10.144232749938965,6.072998046875,4.180908203125,-19.4854736328125
4.1099999,-0.4668693244457245,-0.7158663272857666,-10.220847129821777,4.1351318359375,6.8359375,-30.57861328125
4.1299999000000005,-0.47165772318840027,-0.7038952708244324,-10.24000072479248,1.8310546875,11.5509033203125,-28.01513671875
4.1499999,-0.4572925269603729,-0.6105214357376099,-10.168174743652344,3.96728515625,16.876220703125,-19.7296142578125
4.1699999000000005,-0.44532153010368347,-0.49320554733276367,-10.007762908935547,-0.48828125,14.312744140625,-17.7764892578125
4.1899999,-0.4405331015586853,-0.3878606855869293,-9.785101890563965,-7.87353515625,9.8876953125,-24.0936279296875
4.209999900000001,-0.4644751250743866,-0.26575639843940735,-9.579200744628906,-8.941650390625,1.953125,-25.2227783203125
4.2299999,-0.5219359993934631,-0.17477671802043915,-9.409213066101074,-0.0457763671875,1.8463134765625,-13.1378173828125
4.249999900000001,-0.5817909836769104,-0.15562310814857483,-9.306262016296387,4.058837890625,6.561279296875,-4.1351318359375
4.2699999,-0.6344634294509888,-0.1867477297782898,-9.308655738830566,1.52587890625,-0.3814697265625,-13.6566162109375
4.289999900000001,-0.6655880808830261,-0.31124621629714966,-9.342175483703613,-2.8839111328125,-0.5035400390625,-18.85986328125
4.3099999,-0.6775590777397156,-0.3974374830722809,-9.452308654785156,-6.0882568359375,2.471923828125,-15.5487060546875
4.329999900000001,-0.6727706789970398,-0.3687070608139038,-9.543288230895996,-3.936767578125,7.354736328125,-15.869140625
4.3499999,-0.6631938815116882,-0.2561795711517334,-9.588777542114258,-3.2196044921875,9.918212890625,-15.19775390625
4.369999900000001,-0.6440402865409851,-0.11252748221158981,-9.576807022094727,-1.9683837890625,1.8157958984375,-9.0179443359375
4.3899999,-0.6416460275650024,-0.009576806798577309,-9.536105155944824,5.950927734375,-2.288818359375,-4.3792724609375
4.409999900000001,-0.6584054827690125,-0.026336219161748886,-9.555258750915527,4.4708251953125,-2.2430419921875,-3.997802734375
4.4299999,-0.689530074596405,-0.08379705995321274,-9.670180320739746,2.532958984375,-0.30517578125,-11.7645263671875
4.449999900000001,-0.7158663272857666,-0.14604631066322327,-9.742006301879883,4.8675537109375,9.58251953125,-15.1824951171875
4.4699999,-0.7038952708244324,-0.15322890877723694,-9.718064308166504,9.429931640625,12.2833251953125,-7.8277587890625
4.489999900000001,-0.6584054827690125,-0.1364694982767105,-9.586383819580078,9.521484375,0.1068115234375,-2.25830078125
4.5099999,-0.5913678407669067,-0.21547815203666687,-9.41639518737793,12.5885009765625,-8.0108642578125,-0.5645751953125
4.529999900000001,-0.5339069962501526,-0.4165911078453064,-9.327810287475586,14.9078369140625,-6.4239501953125,-3.509521484375
4.5499999,-0.5003881454467773,-0.6943184733390808,-9.423578262329102,10.7574462890625,-5.4779052734375,-10.2996826171875
4.569999900000001,-0.5003881454467773,-0.8978256583213806,-9.605537414550781,1.7547607421875,-1.46484375,-17.364501953125
4.5899999000000005,-0.5147533416748047,-0.9624691009521484,-9.785101890563965,-4.425048828125,4.547119140625,-17.7001953125
4.609999900000001,-0.5339069962501526,-0.8786720037460327,-9.892841339111328,-4.5166015625,4.6844482421875,-12.603759765625
4.6299999000000005,-0.5363011956214905,-0.7254431247711182,-9.895236015319824,3.90625,1.312255859375,-11.71875
4.6499999,-0.5195417404174805,-0.6105214357376099,-9.806650161743164,4.1961669921875,-1.220703125,-14.312744140625
4.6699999000000005,-0.48602294921875,-0.6009446382522583,-9.670180320739746,-0.823974609375,-0.8087158203125,-14.434814453125
4.6899999,-0.4381389021873474,-0.5937620401382446,-9.59596061706543,-2.471923828125,-4.0283203125,-17.486572265625
4.709999900000001,-0.395043283700943,-0.5027823448181152,-9.615114212036133,-1.0223388671875,-6.622314453125,-21.8353271484375
4.7299999,-0.3734954595565796,-0.3016694188117981,-9.75397777557373,3.7841796875,-5.157470703125,-15.9149169921875
4.749999900000001,-0.395043283700943,-0.06703764945268631,-9.988609313964844,5.1116943359375,-2.2735595703125,-2.3193359375
4.7699999,-0.45250412821769714,0.047884032130241394,-10.204087257385254,5.37109375,2.349853515625,2.593994140625
4.789999900000001,-0.5267243981361389,0.004788403399288654,-10.345345497131348,2.105712890625,5.4473876953125,-4.0283203125
4.8099999,-0.5961562395095825,-0.20111294090747833,-10.333374977111816,-1.739501953125,7.904052734375,-7.904052734375
4.829999900000001,-0.6224924325942993,-0.40701428055763245,-10.168174743652344,-2.4261474609375,9.368896484375,-7.2784423828125
4.8499999,-0.6009446382522583,-0.5482721924781799,-9.907206535339355,-1.708984375,5.4931640625,-5.9661865234375
4.869999900000001,-0.5339069962501526,-0.6512228846549988,-9.593565940856934,-2.4871826171875,3.7841796875,-3.143310546875
4.8899999,-0.4405331015586853,-0.7805097699165344,-9.334992408752441,-5.5084228515625,2.0751953125,-1.8463134765625
4.909999900000001,-0.3447650372982025,-0.993593692779541,-9.217676162719727,-5.8135986328125,-2.25830078125,-4.364013671875
4.9299999,-0.26575639843940735,-1.235408067703247,-9.241618156433105,-5.401611328125,-1.0833740234375,-11.8865966796875
4.949999900000001,-0.2059013396501541,-1.414973258972168,-9.425971984863281,-7.01904296875,2.6397705078125,-17.51708984375
4.9699999,-0.16759411990642548,-1.4867992401123047,-9.66539192199707,-7.965087890625,6.3934326171875,-15.7318115234375
4.989999900000001,-0.15083470940589905,-1.4269442558288574,-9.880870819091797,-5.2947998046875,7.171630859375,-13.00048828125
5.0099999,-0.14365209639072418,-1.3335703611373901,-10.038887977600098,-5.9051513671875,2.0904541015625,-12.0697021484375
5.029999900000001,-0.1604115068912506,-1.3670891523361206,-10.043676376342773,-9.5062255859375,4.364013671875,-8.6822509765625
5.0499999,-0.16519992053508759,-1.479616641998291,-10.02691650390625,-8.4075927734375,1.2054443359375,-15.4266357421875
5.069999900000001,-0.17717093229293823,-1.702277421951294,-10.043676376342773,-9.857177734375,-4.9591064453125,-24.10888671875
5.0899999000000005,-0.17956513166427612,-1.9728221893310547,-10.160991668701172,-15.6097412109375,-2.25830078125,-23.6358642578125
5.109999900000001,-0.17717093229293823,-2.1092917919158936,-10.36449909210205,-12.2222900390625,3.4637451171875,-34.7747802734375
5.1299999000000005,-0.18914192914962769,-2.1164743900299072,-10.527304649353027,-0.2593994140625,11.71875,-45.7000732421875
5.1499999,-0.2106897532939911,-2.013523578643799,-10.515334129333496,-1.6937255859375,14.5721435546875,-43.853759765625
5.1699999000000005,-0.22266076505184174,-1.7860745191574097,-10.378864288330078,-6.103515625,8.1024169921875,-46.905517578125
5.1899999,-0.21308395266532898,-1.4915876388549805,-10.20887565612793,-6.89697265625,7.8887939453125,-53.3447265625
5.209999900000001,-0.17956513166427612,-1.1324573755264282,-10.070012092590332,1.89208984375,21.7437744140625,-54.443359375
5.2299999,-0.1364694982767105,-0.8786720037460327,-9.99339771270752,14.2059326171875,36.43798828125,-46.417236328125
5.249999900000001,-0.11252748221158981,-0.8044517636299133,-9.890447616577148,17.791748046875,41.7327880859375,-43.45703125
5.2699999,-0.1149216815829277,-0.8858546018600464,-9.727641105651855,18.9971923828125,41.290283203125,-63.629150390625
5.289999900000001,-0.12928688526153564,-1.137245774269104,-9.519346237182617,20.0653076171875,36.5447998046875,-73.5321044921875
5.3099999,-0.1388636976480484,-1.2401964664459229,-9.466673851013184,6.5155029296875,26.6265869140625,-75.3021240234375
5.329999900000001,0.011971008032560349,-1.0893617868423462,-9.53849983215332,11.627197265625,35.5224609375,-86.5020751953125
5.3499999,0.2059013396501541,-0.7924807667732239,-9.655815124511719,26.0162353515625,33.233642578125,-80.3985595703125
5.369999900000001,0.49559974670410156,-0.4884171485900879,-9.835380554199219,27.2369384765625,13.641357421875,-69.9462890625
5.3899999,0.7038952708244324,-0.19393034279346466,-9.888052940368652,21.575927734375,2.9449462890625,-81.085205078125
5.409999900000001,0.811634361743927,-0.040701430290937424,-9.830592155456543,23.651123046875,10.345458984375,-85.26611328125
5.4299999,0.8355764150619507,0.09576806426048279,-9.835380554199219,19.04296875,9.979248046875,-69.2291259765625
5.449999900000001,0.7996633648872375,0.15083470940589905,-9.828198432922363,17.9595947265625,9.124755859375,-49.01123046875
5.4699999,0.7589619159698486,-0.016759412363171577,-9.718064308166504,17.1356201171875,15.19775390625,-33.8897705078125
5.489999900000001,0.706289529800415,-0.2825157940387726,-9.512163162231445,11.8255615234375,2.0294189453125,-44.5404052734375
5.5099999,0.6177040338516235,-0.7876923680305481,-9.133879661560059,20.8740234375,-15.9912109375,-50.4913330078125
5.529999900000001,0.5722141861915588,-1.139639973640442,-8.920795440673828,19.287109375,-31.8603515625,-46.8902587890625
5.5499999,0.5386953949928284,-1.4173674583435059,-8.990227699279785,5.615234375,-27.099609375,-58.7615966796875
5.569999900000001,0.5578489899635315,-1.558625340461731,-9.346963882446289,-4.150390625,-4.974365234375,-67.2760009765625
5.5899999000000005,0.5722141861915588,-1.6496049165725708,-9.885659217834473,9.3994140625,-8.514404296875,-59.4940185546875
5.609999900000001,0.5722141861915588,-1.6855180263519287,-10.194510459899902,12.14599609375,0.42724609375,-66.6961669921875
5.6299999000000005,0.5650315880775452,-1.6663644313812256,-10.295066833496094,14.0838623046875,-0.8697509765625,-74.2645263671875
5.6499999,0.5602431893348694,-1.5059528350830078,-10.237606048583984,10.2691650390625,-10.498046875,-70.8770751953125
5.6699999000000005,0.5770025849342346,-1.2545616626739502,-10.11789608001709,6.9732666015625,-9.1705322265625,-62.3321533203125
5.6899999,0.608127236366272,-0.9816226959228516,-10.02452278137207,11.5814208984375,-6.0577392578125,-52.398681640625
5.709999900000001,0.646434485912323,-0.828393816947937,-9.95748519897461,13.153076171875,-5.3558349609375,-50.384521484375
5.7299999,0.6536170840263367,-0.8475474119186401,-9.873687744140625,-8.36181640625,-3.0364990234375,-47.088623046875
5.749999900000001,0.629675030708313,-0.950498104095459,-9.832986831665039,-19.439697265625,-4.1351318359375,-55.5572509765625
5.7699999,0.5650315880775452,-1.1779472827911377,-9.856928825378418,-17.8375244140625,-5.615234375,-54.0008544921875
5.789999900000001,0.49320554733276367,-1.280897855758667,-9.959878921508789,-21.17919921875,-7.6751708984375,-66.9403076171875
5.8099999,0.4405331015586853,-1.1851298809051514,-10.055646896362305,-34.912109375,-9.58251953125,-89.0960693359375
5.829999900000001,0.44532153010368347,-0.7637503147125244,-10.144232749938965,-21.7742919921875,-7.2174072265625,-80.7647705078125
5.8499999,0.48602294921875,-0.21787235140800476,-10.144232749938965,7.3089599609375,2.838134765625,-42.2821044921875
5.869999900000001,0.5554547905921936,0.21547815203666687,-9.983820915222168,10.498046875,16.1895751953125,-16.9525146484375
5.8899999,0.6200982332229614,0.3878606855869293,-9.744400978088379,8.1634521484375,9.2926025390625,-38.14697265625
5.909999900000001,0.6967126727104187,0.2537853717803955,-9.385271072387695,4.7607421875,1.129150390625,-57.2967529296875
5.9299999,0.727837324142456,0.10534487664699554,-9.047688484191895,4.638671875,-4.2266845703125,-55.7098388671875
5.949999900000001,0.7661445140838623,0.07661445438861847,-8.856152534484863,12.87841796875,-11.5966796875,-44.9066162109375
5.9699999,0.727837324142456,0.15801730751991272,-8.825027465820312,15.5181884765625,-12.359619140625,-42.144775390625
5.989999900000001,0.6607996821403503,0.24899697303771973,-8.942343711853027,0.9002685546875,-2.1209716796875,-42.022705078125
6.0099999,0.569819986820221,0.26096799969673157,-9.136273384094238,-13.427734375,5.1422119140625,-38.87939453125
6.029999900000001,0.4572925269603729,0.22744916379451752,-9.332598686218262,-21.2249755859375,4.486083984375,-33.782958984375
6.0499999,0.33997663855552673,0.2346317619085312,-9.519346237182617,-23.468017578125,0.4119873046875,-32.1807861328125
6.069999900000001,0.2106897532939911,0.28969839215278625,-9.691728591918945,-27.1453857421875,1.007080078125,-23.406982421875
6.0899999000000005,0.05267243832349777,0.28969839215278625,-9.86650562286377,-35.0799560546875,6.5765380859375,-0.67138671875
6.109999900000001,-0.05267243832349777,0.13407529890537262,-10.074800491333008,-40.4815673828125,5.1116943359375,8.9111328125
6.1299999000000005,-0.10534487664699554,-0.10055647045373917,-10.211270332336426,-37.139892578125,9.002685546875,-12.87841796875
6.149999900000001,-0.06464344263076782,-0.26575639843940735,-10.14902114868164,-34.2864990234375,25.87890625,-33.660888671875
6.1699999000000005,0.08619125932455063,-0.004788403399288654,-9.890447616577148,-27.4505615234375,21.759033203125,-35.46142578125
6.1899999,0.304063618183136,0.8307880163192749,-9.50498104095459,-2.25830078125,5.035400390625,-15.6707763671875
6.209999900000001,0.5841852426528931,1.9033904075622559,-9.165003776550293,11.260986328125,-2.0294189453125,34.8358154296875
6.2299999,0.8331822156906128,2.518700122833252,-9.05487060546875,32.318115234375,-2.2430419921875,87.799072265625
6.249999900000001,1.0271124839782715,2.3343467712402344,-9.155426979064941,47.1649169921875,6.6375732421875,80.078125
6.2699999,1.1803414821624756,1.4700398445129395,-9.334992408752441,33.99658203125,13.7176513671875,4.82177734375
6.289999900000001,1.2761094570159912,0.2968810200691223,-9.550470352172852,14.95361328125,7.0953369140625,-26.9927978515625
6.3099999,1.338358759880066,-0.5674257874488831,-9.672574996948242,7.9193115234375,5.0506591796875,-24.7039794921875
6.329999900000001,1.4389152526855469,-0.7422025203704834,-9.77791976928711,-5.035400390625,6.8359375,-43.7469482421875
6.3499999,1.4628572463989258,-0.5027823448181152,-9.830592155456543,-7.049560546875,-0.8544921875,-27.2979736328125
6.369999900000001,1.479616641998291,-0.019153613597154617,-9.854534149169922,-19.866943359375,-3.3721923828125,10.894775390625
6.3899999,1.4508862495422363,0.4884171485900879,-9.847352027893066,-18.98193359375,-1.129150390625,19.4854736328125
6.409999900000001,1.3934253454208374,0.7469909191131592,-9.799467086791992,-17.7001953125,4.119873046875,12.7716064453125
6.4299999,1.316810965538025,0.8212111592292786,-9.751583099365234,-23.92578125,-2.532958984375,11.1846923828125
6.449999900000001,1.235408067703247,0.7350199222564697,-9.646238327026367,-26.2908935546875,1.220703125,19.53125
6.4699999,1.213860273361206,0.646434485912323,-9.402029991149902,-20.904541015625,8.148193359375,33.14208984375
6.489999900000001,1.158793568611145,0.4644751250743866,-9.301473617553711,-24.7955322265625,-21.636962890625,36.9110107421875
6.5099999,1.1204863786697388,0.21547815203666687,-9.26795482635498,-27.89306640625,-37.4298095703125,29.6173095703125
6.529999900000001,1.1037269830703735,0.019153613597154617,-9.29189682006836,-13.1072998046875,2.227783203125,4.39453125
6.5499999,1.0606313943862915,-0.05746084079146385,-9.433155059814453,-16.845703125,10.1165771484375,-1.3885498046875
6.569999900000001,1.0773907899856567,0.05985504388809204,-9.5408935546875,-26.67236328125,-7.476806640625,16.265869140625
6.5899999000000005,1.137245774269104,0.37828385829925537,-9.583989143371582,-21.1029052734375,-5.5694580078125,18.1427001953125
6.609999900000001,1.1659762859344482,0.6320692300796509,-9.615114212036133,-22.8271484375,8.0718994140625,25.390625
6.6299999000000005,1.1875240802764893,0.6799532771110535,-9.670180320739746,-27.4810791015625,5.8135986328125,36.773681640625
6.649999900000001,1.1659762859344482,0.5434837937355042,-9.653421401977539,-14.3280029296875,0.152587890625,22.5982666015625
6.6699999000000005,1.1348515748977661,0.3208230137825012,-9.660603523254395,5.2490234375,-0.1983642578125,1.1444091796875
6.6899999,1.1348515748977661,0.17717093229293823,-9.624691009521484,3.7841796875,4.8370361328125,-6.2255859375
6.709999900000001,1.091755986213684,0.21308395266532898,-9.50498104095459,-21.392822265625,6.0577392578125,4.180908203125
6.7299999,1.1109095811843872,0.44532153010368347,-9.509769439697266,-23.74267578125,-14.495849609375,3.082275390625
6.749999900000001,1.0749965906143188,0.751779317855835,-9.521739959716797,-4.21142578125,-12.939453125,0.3509521484375
6.7699999,1.0821791887283325,0.9576807022094727,-9.619902610778809,2.593994140625,9.6588134765625,14.2364501953125
6.789999900000001,1.0893617868423462,0.9888052940368652,-9.6989107131958,-6.04248046875,10.040283203125,19.6685791015625
6.8099999,1.1180921792984009,0.8786720037460327,-9.742006301879883,6.103515625,-10.986328125,-1.8310546875
6.829999900000001,1.1563993692398071,0.727837324142456,-9.720458984375,-1.2054443359375,-10.9100341796875,-15.5792236328125
6.8499999,1.2066776752471924,0.730231523513794,-9.737217903137207,-5.92041015625,2.6397705078125,-7.720947265625
6.869999900000001,1.259350061416626,0.8810662031173706,-9.77791976928711,11.9476318359375,-1.190185546875,0.3662109375
6.8899999,1.2856862545013428,0.9840168952941895,-9.873687744140625,37.872314453125,-17.4102783203125,2.74658203125
6.909999900000001,1.2713210582733154,1.039083480834961,-9.921571731567383,33.355712890625,-11.2762451171875,-12.9547119140625
6.9299999,1.235408067703247,0.9433154463768005,-9.921571731567383,29.876708984375,7.32421875,-14.6331787109375
6.949999900000001,1.2114660739898682,0.9313444495201111,-9.871294021606445,24.993896484375,-0.1068115234375,-4.638671875
6.9699999,1.1755530834197998,0.9097966551780701,-9.775525093078613,13.36669921875,-16.05224609375,16.998291015625
6.989999900000001,1.137245774269104,0.8164227604866028,-9.72285270690918,0.762939453125,-10.223388671875,34.97314453125
7.0099999,1.072602391242981,0.5722141861915588,-9.75637149810791,0.3662109375,4.638671875,25.3448486328125
7.029999900000001,1.0007762908935547,0.2513911724090576,-9.852140426635742,5.0201416015625,8.544921875,3.60107421875
7.0499999,0.9409212470054626,-0.11252748221158981,-9.890447616577148,0.152587890625,7.99560546875,1.8157958984375
7.069999900000001,0.9241618514060974,-0.304063618183136,-9.84495735168457,-11.0015869140625,8.60595703125,0.7781982421875
7.0899999000000005,0.9481038451194763,-0.2513911724090576,-9.773131370544434,-2.50244140625,6.8206787109375,-13.4735107421875
7.109999900000001,1.0079588890075684,-0.090979665517807,-9.624691009521484,11.810302734375,10.1165771484375,-8.9569091796875
7.1299999000000005,1.0797849893569946,0.07661445438861847,-9.485827445983887,17.5933837890625,2.716064453125,1.77001953125
7.149999900000001,1.137245774269104,0.19871874153614044,-9.500192642211914,19.744873046875,-15.411376953125,-13.1072998046875
7.1699999000000005,1.1875240802764893,0.23702596127986908,-9.533711433410645,28.0914306640625,-2.410888671875,-31.0211181640625
7.1899999,1.2306196689605713,0.24899697303771973,-9.603142738342285,17.8070068359375,18.4326171875,-20.6756591796875
7.209999900000001,1.2737152576446533,0.31842881441116333,-9.651026725769043,-3.5552978515625,6.16455078125,-1.3275146484375
7.2299999,1.3096283674240112,0.40940847992897034,-9.612719535827637,-18.2952880859375,-10.68115234375,6.4239501953125
7.249999900000001,1.314416766166687,0.3998316824436188,-9.536105155944824,-21.5301513671875,-9.8114013671875,8.6669921875
7.2699999,1.280897855758667,0.3447650372982025,-9.552865028381348,-16.2506103515625,-6.622314453125,7.293701171875
7.289999900000001,1.2090718746185303,0.304063618183136,-9.62947940826416,-5.462646484375,-11.3067626953125,-0.457763671875
7.3099999,1.1228805780410767,0.21308395266532898,-9.694122314453125,-1.7547607421875,-11.810302734375,2.8228759765625
7.329999900000001,1.0319008827209473,0.15801730751991272,-9.737217903137207,-0.54931640625,-11.749267578125,-0.6256103515625
7.3499999,0.950498104095459,0.15801730751991272,-9.737217903137207,-3.326416015625,-15.44189453125,-13.3056640625
7.369999900000001,0.8954314589500427,0.24420857429504395,-9.701305389404297,-4.33349609375,-17.2882080078125,-14.190673828125
7.3899999,0.8547300100326538,0.3998316824436188,-9.684545516967773,1.8463134765625,-21.484375,-0.48828125
7.409999900000001,0.8236053586006165,0.5027823448181152,-9.725247383117676,11.1083984375,-22.4609375,9.82666015625
7.4299999,0.8020575642585754,0.5267243981361389,-9.86650562286377,19.134521484375,-16.9525146484375,-3.814697265625
7.449999900000001,0.7709329724311829,0.3926490843296051,-9.96945571899414,3.4942626953125,3.7078857421875,-10.101318359375
7.4699999,0.7613561153411865,0.24660277366638184,-10.103530883789062,-5.2032470703125,7.3699951171875,-5.6304931640625
7.489999900000001,0.730231523513794,0.18914192914962769,-10.177751541137695,8.4991455078125,3.4637451171875,-14.801025390625
7.5099999,0.7398083209991455,-0.004788403399288654,-10.302249908447266,76.4312744140625,7.476806640625,-34.9884033203125
7.529999900000001,0.7110779285430908,-0.17477671802043915,-10.144232749938965,117.0806884765625,26.0009765625,-57.1441650390625
7.5499999,0.730231523513794,-0.4381389021873474,-9.914389610290527,72.4334716796875,12.4664306640625,-50.2471923828125
7.569999900000001,0.7589619159698486,-0.6416460275650024,-9.627084732055664,35.3546142578125,-33.7677001953125,-35.9344482421875
7.5899999000000005,0.7757213711738586,-0.6129156351089478,-9.440337181091309,-2.410888671875,-31.8756103515625,-23.2696533203125
7.609999900000001,0.7972691655158997,-0.5267243981361389,-9.437943458557129,-12.664794921875,3.4027099609375,-3.2196044921875
7.6299999000000005,0.7757213711738586,-0.4620809257030487,-9.569623947143555,-5.157470703125,5.523681640625,5.2947998046875
7.649999900000001,0.7398083209991455,-0.5099649429321289,-9.674968719482422,3.6773681640625,-16.5557861328125,-5.279541015625
7.6699999000000005,0.7015010714530945,-0.6033388376235962,-9.718064308166504,-0.213623046875,-15.2130126953125,-17.303466796875
7.6899999,0.6727706789970398,-0.6320692300796509,-9.799467086791992,-8.026123046875,-2.0599365234375,-13.61083984375
7.709999900000001,0.6488286852836609,-0.5578489899635315,-9.873687744140625,-6.0577392578125,4.57763671875,-2.227783203125
7.7299999,0.6344634294509888,-0.45489832758903503,-9.9000244140625,1.800537109375,4.364013671875,-0.3662109375
7.749999900000001,0.6200982332229614,-0.36152446269989014,-9.847352027893066,-1.5869140625,1.0986328125,-5.6915283203125
7.7699999,0.608127236366272,-0.363918662071228,-9.758766174316406,-7.14111328125,0.152587890625,-2.6397705078125
7.789999900000001,0.5961562395095825,-0.38546648621559143,-9.674968719482422,-8.36181640625,-0.2899169921875,4.5013427734375
7.8099999,0.5746083855628967,-0.4596867263317108,-9.639056205749512,0.335693359375,-4.8980712890625,2.13623046875
7.829999900000001,0.5530605912208557,-0.5889736413955688,-9.653421401977539,15.80810546875,-4.33349609375,-8.392333984375
7.8499999,0.5267243981361389,-0.7134721279144287,-9.703699111938477,14.34326171875,1.8310546875,-16.448974609375
7.869999900000001,0.5171475410461426,-0.8164227604866028,-9.758766174316406,11.7034912109375,4.5013427734375,-14.4195556640625
7.8899999,0.5386953949928284,-0.8403648138046265,-9.797073364257812,14.2364501953125,3.387451171875,-15.2587890625
7.909999900000001,0.5793967843055725,-0.8451532125473022,-9.806650161743164,9.1094970703125,2.6397705078125,-12.6953125
7.9299999,0.6512228846549988,-0.9026140570640564,-9.782708168029785,5.4779052734375,4.4403076171875,-9.124755859375
7.949999900000001,0.7206547260284424,-1.0127472877502441,-9.775525093078613,-1.190185546875,0.6256103515625,-11.2762451171875
7.9699999,0.7733271718025208,-1.137245774269104,-9.773131370544434,-10.4827880859375,-2.1820068359375,-17.9290771484375
7.989999900000001,0.7972691655158997,-1.2401964664459229,-9.78989028930664,-8.2550048828125,0.152587890625,-21.6827392578125
8.0099999,0.7972691655158997,-1.192312479019165,-9.806650161743164,-11.444091796875,6.04248046875,-23.1781005859375
8.0299999,0.7876923680305481,-0.9552865028381348,-9.84495735168457,-17.913818359375,3.326416015625,-17.181396484375
8.049999900000001,0.7709329724311829,-0.6560112833976746,-9.873687744140625,-16.6015625,-0.8544921875,-3.875732421875
8.069999900000001,0.7637503147125244,-0.35434186458587646,-9.86889934539795,-8.85009765625,3.5247802734375,1.77001953125
8.0899999,0.7541735172271729,-0.15801730751991272,-9.823410034179688,-7.5836181640625,5.0201416015625,-2.197265625
8.1099999,0.7493851184844971,-0.1364694982767105,-9.763554573059082,-13.6871337890625,-0.4425048828125,-0.3662109375
8.129999900000001,0.7493851184844971,-0.15083470940589905,-9.677363395690918,-13.00048828125,0.0762939453125,-1.251220703125
8.149999900000001,0.751779317855835,-0.181959331035614,-9.622296333312988,-5.7830810546875,3.1280517578125,-1.983642578125
8.1699999,0.7565677165985107,-0.22744916379451752,-9.579200744628906,-5.18798828125,1.9989013671875,2.9449462890625
8.1899999,0.7565677165985107,-0.272938996553421,-9.519346237182617,-8.1634521484375,0.6561279296875,2.0294189453125
8.2099999,0.7493851184844971,-0.3758896589279175,-9.509769439697266,-1.922607421875,-4.7607421875,-4.4403076171875
8.229999900000001,0.7350199222564697,-0.40940847992897034,-9.512163162231445,1.434326171875,-2.8228759765625,-11.0931396484375
8.2499999,0.7158663272857666,-0.35673606395721436,-9.555258750915527,-0.8087158203125,0.732421875,-9.4146728515625
8.2699999,0.6991068720817566,-0.22505496442317963,-9.605537414550781,-2.532958984375,-0.5950927734375,0.48828125
8.2899999,0.689530074596405,-0.12928688526153564,-9.615114212036133,-0.9307861328125,-1.15966796875,4.608154296875
8.309999900000001,0.6847416758537292,-0.10295066982507706,-9.66299819946289,3.0364990234375,-4.241943359375,-0.6866455078125
8.3299999,0.689530074596405,-0.10773907601833344,-9.710882186889648,3.9520263671875,-2.349853515625,-8.7890625
8.3499999,0.6943184733390808,-0.12210428714752197,-9.75397777557373,0.30517578125,3.4027099609375,-2.62451171875
8.3699999,0.7038952708244324,-0.07661445438861847,-9.794678688049316,-5.615234375,1.1138916015625,3.387451171875
8.389999900000001,0.6943184733390808,-0.038307227194309235,-9.780313491821289,-8.3160400390625,0.79345703125,2.7923583984375
8.4099999,0.6799532771110535,-0.05985504388809204,-9.761159896850586,-1.77001953125,0.885009765625,1.2054443359375
8.4299999,0.6584054827690125,-0.10773907601833344,-9.797073364257812,1.800537109375,-2.4871826171875,1.28173828125
8.4499999,0.6392518281936646,-0.20111294090747833,-9.830592155456543,-1.3275146484375,0.946044921875,4.69970703125
8.469999900000001,0.6344634294509888,-0.28730419278144836,-9.9000244140625,-3.0670166015625,1.77001953125,4.0283203125
8.4899999,0.6416460275650024,-0.38546648621559143,-9.962273597717285,-1.129150390625,-0.67138671875,0.48828125
8.5099999,0.6584054827690125,-0.40462008118629456,-9.979032516479492,-1.5411376953125,3.2806396484375,-2.410888671875
8.5299999,0.6799532771110535,-0.43095630407333374,-9.99100399017334,-3.082275390625,3.448486328125,2.2430419921875
8.549999900000001,0.7134721279144287,-0.40940847992897034,-9.93593692779541,-1.9073486328125,3.72314453125,3.509521484375
8.569999900000001,0.7422025203704834,-0.38546648621559143,-9.883264541625977,-2.25830078125,1.46484375,-2.0599365234375
8.5899999,0.7733271718025208,-0.3687070608139038,-9.804255485534668,-4.4403076171875,1.2969970703125,-2.9754638671875
8.6099999,0.7948749661445618,-0.3232172429561615,-9.734824180603027,-2.25830078125,3.7078857421875,-0.1983642578125
8.629999900000001,0.8020575642585754,-0.2513911724090576,-9.694122314453125,-1.15966796875,1.556396484375,1.5869140625
8.649999900000001,0.7996633648872375,-0.16519992053508759,-9.660603523254395,-0.6256103515625,1.7547607421875,0.5340576171875
8.6699999,0.7924807667732239,-0.12210428714752197,-9.658209800720215,0.4119873046875,2.349853515625,2.166748046875
8.6899999,0.7829039692878723,-0.12449848651885986,-9.670180320739746,2.0751953125,1.6937255859375,1.800537109375
8.709999900000001,0.7757213711738586,-0.15322890877723694,-9.694122314453125,1.6937255859375,1.2969970703125,-1.8157958984375
8.729999900000001,0.768538773059845,-0.17477671802043915,-9.701305389404297,0.7476806640625,2.1209716796875,-3.0059814453125
8.7499999,0.7613561153411865,-0.18914192914962769,-9.710882186889648,0.7781982421875,1.678466796875,1.708984375
8.7699999,0.7613561153411865,-0.1604115068912506,-9.706093788146973,0.30517578125,1.373291015625,2.655029296875
8.7899999,0.768538773059845,-0.1388636976480484,-9.667786598205566,1.556396484375,2.6702880859375,0.1068115234375
8.809999900000001,0.7709329724311829,-0.15562310814857483,-9.639056205749512,2.5177001953125,-0.3204345703125,1.0986328125
8.8299999,0.768538773059845,-0.19871874153614044,-9.627084732055664,1.9073486328125,-2.288818359375,2.50244140625
8.8499999,0.7709329724311829,-0.21547815203666687,-9.651026725769043,1.129150390625,-0.732421875,-0.946044921875
8.8699999,0.7733271718025208,-0.24660277366638184,-9.6989107131958,2.166748046875,1.5716552734375,-0.4730224609375
8.889999900000001,0.7852981686592102,-0.2298433631658554,-9.720458984375,3.0364990234375,2.01416015625,0.0457763671875
8.9099999,0.7948749661445618,-0.22505496442317963,-9.746794700622559,2.5634765625,-1.708984375,0.7781982421875
8.9299999,0.7924807667732239,-0.22026655077934265,-9.751583099365234,2.288818359375,-1.3427734375,1.3580322265625
8.9499999,0.7781155705451965,-0.2777273952960968,-9.765948295593262,4.57763671875,2.2430419921875,1.251220703125
8.969999900000001,0.7613561153411865,-0.35434186458587646,-9.78989028930664,5.4931640625,1.5869140625,-0.732421875
8.9899999,0.7541735172271729,-0.40940847992897034,-9.761159896850586,4.5013427734375,1.7547607421875,-4.9285888671875
9.0099999,0.7613561153411865,-0.4405331015586853,-9.713275909423828,3.3416748046875,-0.4425048828125,-3.0059814453125
9.0299999,0.7805097699165344,-0.3926490843296051,-9.696516990661621,-0.9765625,-4.82177734375,0.579833984375
9.049999900000001,0.8020575642585754,-0.31603461503982544,-9.696516990661621,-2.838134765625,-1.0833740234375,1.8768310546875
9.069999900000001,0.8188169598579407,-0.2753331959247589,-9.751583099365234,-1.007080078125,1.15966796875,3.23486328125
9.0899999,0.8307880163192749,-0.24660277366638184,-9.80904483795166,-0.0762939453125,0.3509521484375,0.4425048828125
9.1099999,0.8403648138046265,-0.24899697303771973,-9.832986831665039,-2.716064453125,2.0904541015625,-0.335693359375
9.129999900000001,0.8475474119186401,-0.23702596127986908,-9.816226959228516,-3.753662109375,2.7313232421875,2.6397705078125
9.149999900000001,0.8523358106613159,-0.2346317619085312,-9.773131370544434,-1.6937255859375,1.7547607421875,4.5928955078125
9.1699999,0.849941611289978,-0.27054479718208313,-9.732429504394531,-0.1983642578125,0.0457763671875,4.669189453125
9.1899999,0.8403648138046265,-0.33758243918418884,-9.718064308166504,0.885009765625,0.1220703125,0.79345703125
9.209999900000001,0.8331822156906128,-0.40701428055763245,-9.763554573059082,-0.4730224609375,-0.213623046875,-1.46484375
9.229999900000001,0.8259995579719543,-0.47644615173339844,-9.78989028930664,0.18310546875,3.204345703125,1.1749267578125
9.2499999,0.8259995579719543,-0.4908113479614258,-9.813833236694336,-1.190185546875,2.5787353515625,0.91552734375
9.2699999,0.8331822156906128,-0.45010992884635925,-9.794678688049316,-0.18310546875,0.8697509765625,-2.9449462890625
9.2899999,0.8379706144332886,-0.4213795065879822,-9.78989028930664,0.7781982421875,-0.2899169921875,0.4119873046875
9.309999900000001,0.8451532125473022,-0.3878606855869293,-9.770736694335938,2.6092529296875,2.0751953125,1.9989013671875
9.3299999,0.8475474119186401,-0.3663128614425659,-9.770736694335938,2.4261474609375,2.899169921875,-1.4495849609375
9.3499999,0.8451532125473022,-0.3423708379268646,-9.746794700622559,2.3651123046875,1.678466796875,-2.86865234375
9.3699999,0.8451532125473022,-0.33518823981285095,-9.694122314453125,2.0294189453125,2.3956298828125,1.9073486328125
9.389999900000001,0.849941611289978,-0.2944868206977844,-9.648633003234863,2.227783203125,0.9765625,2.13623046875
9.4099999,0.8595184087753296,-0.3064578175544739,-9.583989143371582,3.84521484375,1.8310546875,0.946044921875
9.4299999,0.8690952062606812,-0.3495534360408783,-9.550470352172852,3.5858154296875,-0.1220703125,-0.244140625
9.4499999,0.871489405632019,-0.40940847992897034,-9.5624418258667,-0.0152587890625,-3.11279296875,-1.40380859375
9.469999900000001,0.8595184087753296,-0.4596867263317108,-9.579200744628906,-0.1983642578125,0.7781982421875,-0.946044921875
9.4899999,0.8451532125473022,-0.4884171485900879,-9.648633003234863,0.3509521484375,0.335693359375,0.335693359375
9.5099999,0.8331822156906128,-0.49799394607543945,-9.725247383117676,-0.0457763671875,-1.251220703125,0.274658203125
9.5299999,0.828393816947937,-0.5339069962501526,-9.761159896850586,-0.6103515625,1.0833740234375,0.42724609375
9.549999900000001,0.8307880163192749,-0.5482721924781799,-9.78989028930664,0.579833984375,0.6103515625,-3.2501220703125
9.569999900000001,0.8427590131759644,-0.545877993106842,-9.806650161743164,-0.8087158203125,-2.8228759765625,-5.1727294921875
9.5899999,0.8595184087753296,-0.507570743560791,-9.782708168029785,0.732421875,1.190185546875,-3.2501220703125
9.6099999,0.871489405632019,-0.42856210470199585,-9.797073364257812,-0.2288818359375,0.030517578125,-2.1209716796875
9.629999900000001,0.8834604024887085,-0.31842881441116333,-9.768342971801758,-0.18310546875,1.2969970703125,-2.86865234375
9.649999900000001,0.8858546018600464,-0.2298433631658554,-9.77791976928711,1.220703125,0.1983642578125,-1.0528564453125
9.6699999,0.8834604024887085,-0.16519992053508759,-9.75637149810791,0.6103515625,-0.1373291015625,1.03759765625
9.6899999,0.8762778043746948,-0.14844051003456116,-9.739612579345703,1.861572265625,1.434326171875,0.9613037109375
9.709999900000001,0.8643068075180054,-0.20111294090747833,-9.75637149810791,0.6103515625,-2.593994140625,1.4495849609375
9.729999900000001,0.849941611289978,-0.2825157940387726,-9.75637149810791,0.5950927734375,0.5950927734375,0.640869140625
9.7499999,0.8331822156906128,-0.35673606395721436,-9.780313491821289,0.6103515625,1.1444091796875,-1.495361328125
9.7699999,0.8188169598579407,-0.40701428055763245,-9.804255485534668,2.13623046875,0.18310546875,-1.2664794921875
9.7899999,0.8140285611152649,-0.4620809257030487,-9.816226959228516,1.8310546875,0.244140625,2.38037109375
9.809999900000001,0.8092401623725891,-0.49320554733276367,-9.80904483795166,1.0833740234375,2.410888671875,-0.3814697265625
9.8299999,0.8092401623725891,-0.48602294921875,-9.794678688049316,-0.30517578125,1.739501953125,-4.6844482421875
9.8499999,0.811634361743927,-0.4644751250743866,-9.77791976928711,-0.030517578125,-0.3509521484375,-0.8544921875
9.8699999,0.8140285611152649,-0.42856210470199585,-9.725247383117676,0.518798828125,1.617431640625,3.2501220703125
9.889999900000001,0.8188169598579407,-0.40940847992897034,-9.66539192199707,1.5411376953125,1.373291015625,0.152587890625
9.9099999,0.8307880163192749,-0.40940847992897034,-9.576807022094727,2.3651123046875,-0.9307861328125,-4.2266845703125
9.9299999,0.8427590131759644,-0.3974374830722809,-9.50498104095459,2.2735595703125,-3.173828125,-2.44140625
9.9499999,0.8619126081466675,-0.3902548849582672,-9.466673851013184,1.46484375,-2.7618408203125,3.0059814453125
9.969999900000001,0.8786720037460327,-0.35913026332855225,-9.521739959716797,-2.288818359375,-2.9754638671875,1.0833740234375
9.9899999,0.8858546018600464,-0.33997663855552673,-9.63187313079834,-2.716064453125,-1.6021728515625,-2.25830078125
10.0099999,0.8834604024887085,-0.33518823981285095,-9.744400978088379,-0.0762939453125,2.2125244140625,0.9613037109375
10.0299999,0.871489405632019,-0.3495534360408783,-9.852140426635742,-0.9307861328125,-0.7781982421875,4.9591064453125
10.049999900000001,0.8571242094039917,-0.3878606855869293,-9.892841339111328,-3.6163330078125,-1.3580322265625,3.082275390625
10.069999900000001,0.8475474119186401,-0.44532153010368347,-9.904812812805176,-3.9215087890625,-0.4730224609375,-0.7171630859375
10.0899999,0.8451532125473022,-0.507570743560791,-9.914389610290527,-1.7852783203125,-1.3885498046875,-0.4425048828125
10.1099999,0.849941611289978,-0.5482721924781799,-9.890447616577148,-1.6326904296875,0.7781982421875,1.1749267578125
10.129999900000001,0.8619126081466675,-0.5626373887062073,-9.880870819091797,-3.2806396484375,0.2593994140625,-1.03759765625
10.149999900000001,0.8738836050033569,-0.5339069962501526,-9.86889934539795,-3.72314453125,-0.4730224609375,-3.4942626953125
10.1699999,0.8834604024887085,-0.4644751250743866,-9.84256362915039,-2.01416015625,1.922607421875,-2.532958984375
10.1899999,0.8882488012313843,-0.38307225704193115,-9.81143856048584,-1.5716552734375,2.1820068359375,1.0833740234375
10.209999900000001,0.8882488012313843,-0.3016694188117981,-9.775525093078613,-1.3885498046875,0.6103515625,0.152587890625
10.229999900000001,0.8834604024887085,-0.2849099934101105,-9.737217903137207,-1.5106201171875,0.4425048828125,-0.4730224609375
10.2499999,0.8738836050033569,-0.30885201692581177,-9.701305389404297,-0.5645751953125,2.38037109375,-0.518798828125
10.2699999,0.8595184087753296,-0.3471592366695404,-9.68933391571045,-1.6632080078125,1.46484375,-0.67138671875
10.2899999,0.8475474119186401,-0.395043283700943,-9.679757118225098,-1.2054443359375,0.30517578125,-0.518798828125
10.309999900000001,0.8331822156906128,-0.4692635238170624,-9.677363395690918,-0.5645751953125,0.762939453125,1.0223388671875
10.3299999,0.8259995579719543,-0.5291185975074768,-9.660603523254395,1.2054443359375,1.9683837890625,-2.44140625
10.3499999,0.8236053586006165,-0.5626373887062073,-9.653421401977539,0.5035400390625,0.091552734375,-5.3558349609375
10.3699999,0.828393816947937,-0.5410895943641663,-9.617507934570312,-0.8697509765625,0.06103515625,-4.5166015625
10.389999900000001,0.8355764150619507,-0.5147533416748047,-9.57201862335205,-0.152587890625,0.0152587890625,-0.946044921875
10.4099999,0.8379706144332886,-0.47165772318840027,-9.560047149658203,0.823974609375,-2.9296875,-3.3111572265625
10.4299999,0.828393816947937,-0.4357447028160095,-9.528923034667969,-1.007080078125,-1.983642578125,-7.5531005859375
10.4499999,0.8092401623725891,-0.3998316824436188,-9.531316757202148,-1.3427734375,-1.7852783203125,-5.0506591796875
10.469999900000001,0.7805097699165344,-0.3734954595565796,-9.557653427124023,-0.1220703125,-4.2266845703125,-0.946044921875
10.4899999,0.7565677165985107,-0.3758896589279175,-9.560047149658203,0.7476806640625,-1.3885498046875,-1.8157958984375
10.5099999,0.7445967197418213,-0.3734954595565796,-9.586383819580078,-0.7476806640625,-2.2430419921875,-8.1939697265625
10.5299999,0.7493851184844971,-0.3495534360408783,-9.643844604492188,-2.227783203125,-6.7291259765625,-8.60595703125
10.549999900000001,0.7637503147125244,-0.2513911724090576,-9.732429504394531,-2.1820068359375,-5.7220458984375,-4.1656494140625
10.569999900000001,0.7852981686592102,-0.10773907601833344,-9.84495735168457,-0.823974609375,-0.701904296875,-2.1820068359375
10.5899999,0.7996633648872375,-0.002394201699644327,-9.950302124023438,0.885009765625,-0.18310546875,-1.251220703125
10.6099999,0.8140285611152649,0.016759412363171577,-9.974244117736816,1.678466796875,0.0457763671875,-0.3814697265625
10.629999900000001,0.8236053586006165,-0.028730420395731926,-9.955090522766113,-0.3662109375,-1.861572265625,-1.2969970703125
10.649999900000001,0.8236053586006165,-0.09816227108240128,-9.904812812805176,-2.044677734375,-1.7852783203125,-2.105712890625
10.6699999,0.811634361743927,-0.18914192914962769,-9.856928825378418,-0.9918212890625,0.457763671875,0.3814697265625
10.6899999,0.7924807667732239,-0.27054479718208313,-9.821015357971191,-0.48828125,0.1220703125,1.0528564453125
10.709999900000001,0.7757213711738586,-0.33997663855552673,-9.775525093078613,-0.213623046875,-0.5340576171875,-3.1585693359375
10.729999900000001,0.7613561153411865,-0.3663128614425659,-9.744400978088379,-1.64794921875,-2.0599365234375,-4.8980712890625
10.7499999,0.7565677165985107,-0.33758243918418884,-9.734824180603027,-2.5177001953125,-1.922607421875,-2.197265625
10.7699999,0.7565677165985107,-0.2753331959247589,-9.751583099365234,-2.0599365234375,-0.152587890625,1.1444091796875
10.7899999,0.7541735172271729,-0.22505496442317963,-9.782708168029785,-1.3275146484375,0.42724609375,0.6103515625
10.809999900000001,0.7469909191131592,-0.2106897532939911,-9.806650161743164,-0.213623046875,0.06103515625,-1.8157958984375
10.8299999,0.7398083209991455,-0.23702596127986908,-9.801861763000488,0.2899169921875,0.6561279296875,-1.6021728515625
10.8499999,0.7326257228851318,-0.28730419278144836,-9.780313491821289,-0.1068115234375,0.244140625,0.3509521484375
10.8699999,0.7374141216278076,-0.28969839215278625,-9.751583099365234,-1.46484375,-0.6256103515625,-2.5177001953125
10.889999900000001,0.7493851184844971,-0.28730419278144836,-9.718064308166504,-1.861572265625,-0.0457763671875,-2.1209716796875
10.9099999,0.7613561153411865,-0.2801215946674347,-9.703699111938477,-0.5950927734375,-0.7781982421875,0.8392333984375
10.9299999,0.768538773059845,-0.2513911724090576,-9.6989107131958,0.457763671875,-0.06103515625,-0.762939453125
10.9499999,0.7709329724311829,-0.2537853717803955,-9.734824180603027,0.4730224609375,-0.8087158203125,-1.617431640625
10.969999900000001,0.7637503147125244,-0.2585737705230713,-9.739612579345703,-0.0152587890625,1.556396484375,-0.91552734375
10.9899999,0.7565677165985107,-0.2537853717803955,-9.725247383117676,-0.1220703125,2.166748046875,-0.823974609375
11.0099999,0.7493851184844971,-0.2513911724090576,-9.713275909423828,0.1678466796875,-3.0670166015625,-0.8544921875
11.0299999,0.7445967197418213,-0.26575639843940735,-9.672574996948242,0.4425048828125,-1.434326171875,-0.5035400390625
11.049999900000001,0.7398083209991455,-0.28730419278144836,-9.68933391571045,0.2899169921875,-0.335693359375,-1.1138916015625
11.069999900000001,0.7422025203704834,-0.31842881441116333,-9.734824180603027,1.0223388671875,-0.91552734375,-2.105712890625
11.0899999,0.7469909191131592,-0.31842881441116333,-9.794678688049316,0.6866455078125,0.213623046875,-3.3111572265625
11.1099999,0.7565677165985107,-0.29209262132644653,-9.832986831665039,1.40380859375,0.6256103515625,-2.9449462890625
11.129999900000001,0.7613561153411865,-0.22026655077934265,-9.847352027893066,1.6632080078125,0.244140625,-1.800537109375
11.149999900000001,0.7661445140838623,-0.17956513166427612,-9.818621635437012,1.068115234375,-0.5035400390625,0.7476806640625
11.1699999,0.7637503147125244,-0.19871874153614044,-9.787496566772461,-0.335693359375,-0.732421875,2.38037109375
11.1899999,0.7565677165985107,-0.29209262132644653,-9.758766174316406,-0.885009765625,-0.3204345703125,-1.3885498046875
11.209999900000001,0.7445967197418213,-0.38067805767059326,-9.718064308166504,-1.007080078125,1.068115234375,-6.3934326171875
11.229999900000001,0.7350199222564697,-0.45250412821769714,-9.679757118225098,-1.7547607421875,-0.8697509765625,-4.7454833984375
11.2499999,0.7326257228851318,-0.44771572947502136,-9.658209800720215,-2.4566650390625,-4.2266845703125,-2.288818359375
11.2699999,0.7398083209991455,-0.38067805767059326,-9.677363395690918,-1.068115234375,-3.1280517578125,-4.180908203125
11.2899999,0.751779317855835,-0.272938996553421,-9.737217903137207,-0.3204345703125,0.1373291015625,-5.4779052734375
11.309999900000001,0.7613561153411865,-0.17717093229293823,-9.801861763000488,0.3204345703125,1.9073486328125,-1.3885498046875
11.3299999,0.768538773059845,-0.12689268589019775,-9.84256362915039,0.640869140625,0.091552734375,2.2430419921875
11.3499999,0.7637503147125244,-0.14604631066322327,-9.818621635437012,-0.518798828125,0.091552734375,-0.579833984375
11.3699999,0.7541735172271729,-0.22026655077934265,-9.782708168029785,-1.4495849609375,-0.274658203125,-4.486083984375
11.389999900000001,0.7326257228851318,-0.2801215946674347,-9.734824180603027,-1.1138916015625,-1.3885498046875,-4.1046142578125
11.4099999,0.7086837291717529,-0.33518823981285095,-9.684545516967773,0.0152587890625,-0.0152587890625,-0.396728515625
11.4299999,0.6823474764823914,-0.3519476354122162,-9.66299819946289,-1.9989013671875,-2.25830078125,-2.197265625
11.4499999,0.6584054827690125,-0.3663128614425659,-9.660603523254395,-2.8533935546875,-2.410888671875,-6.2103271484375
11.469999900000001,0.6416460275650024,-0.33758243918418884,-9.708487510681152,-1.0833740234375,-2.25830078125,-6.439208984375
11.4899999,0.629675030708313,-0.2585737705230713,-9.775525093078613,0.244140625,-1.1444091796875,-4.364013671875
11.5099999,0.629675030708313,-0.19393034279346466,-9.830592155456543,0.5035400390625,0.152587890625,-1.0986328125
11.5299999,0.6416460275650024,-0.14365209639072418,-9.876082420349121,-0.8392333984375,-0.9307861328125,-3.41796875
11.549999900000001,0.6560112833976746,-0.12449848651885986,-9.864110946655273,0.396728515625,-0.1983642578125,-6.3323974609375
11.569999900000001,0.6751648783683777,-0.1364694982767105,-9.797073364257812,2.50244140625,1.9989013671875,-2.9296875
11.5899999,0.6847416758537292,-0.1412578970193863,-9.701305389404297,-0.518798828125,-1.3427734375,-1.52587890625
11.6099999,0.6943184733390808,-0.15562310814857483,-9.59835433959961,-2.0751953125,-4.7149658203125,-3.96728515625
11.629999900000001,0.6967126727104187,-0.20350714027881622,-9.526528358459473,-0.1068115234375,-4.7454833984375,-4.9591064453125
11.649999900000001,0.6943184733390808,-0.22744916379451752,-9.512163162231445,-0.9307861328125,-3.2958984375,-6.2103271484375
11.6699999,0.6847416758537292,-0.21787235140800476,-9.5408935546875,-2.685546875,-3.7689208984375,-6.9427490234375
11.6899999,0.6560112833976746,-0.17717093229293823,-9.567230224609375,-4.0130615234375,-3.9215087890625,-5.3558349609375
11.709999900000001,0.6177040338516235,-0.10773907601833344,-9.591172218322754,-3.0517578125,-5.0506591796875,-5.3253173828125
11.729999900000001,0.5626373887062073,-0.07900865375995636,-9.576807022094727,-2.3040771484375,-5.67626953125,-4.2572021484375
11.7499999,0.5099649429321289,-0.10295066982507706,-9.533711433410645,-6.6070556640625,-6.6375732421875,-6.40869140625
11.7699999,0.44771572947502136,-0.13168109953403473,-9.47146224975586,-10.7269287109375,-11.1083984375,-12.054443359375
11.7899999,0.3878606855869293,-0.06703764945268631,-9.411606788635254,-8.514404296875,-13.397216796875,-17.7764892578125
11.809999900000001,0.31842881441116333,0.07422025501728058,-9.38048267364502,-7.4920654296875,-15.9912109375,-11.29150390625
11.8299999,0.23942017555236816,0.27054479718208313,-9.442731857299805,-9.2620849609375,-18.585205078125,-3.41796875
11.8499999,0.15801730751991272,0.45489832758903503,-9.560047149658203,-12.7105712890625,-15.8233642578125,-5.31005859375
11.8699999,0.06464344263076782,0.6129156351089478,-9.78989028930664,-16.021728515625,-13.9007568359375,-10.31494140625
11.889999900000001,-0.05267243832349777,0.7996633648872375,-10.043676376342773,-15.0299072265625,-10.7269287109375,-8.9263916015625
11.9099999,-0.1867477297782898,1.091755986213684,-10.244789123535156,-15.07568359375,-2.8228759765625,-6.7138671875
11.9299999,-0.35673606395721436,1.4963760375976562,-10.362105369567871,-22.8424072265625,-2.960205078125,-5.126953125
11.9499999,-0.5339069962501526,1.8794482946395874,-10.371682167053223,-24.8870849609375,-1.556396484375,5.2490234375
11.969999900000001,-0.7182605266571045,2.229001760482788,-10.290278434753418,-23.1475830078125,4.8065185546875,13.946533203125
11.9899999,-0.9097966551780701,2.454056739807129,-10.177751541137695,-25.9246826171875,12.7410888671875,15.2587890625
12.0099999,-1.1037269830703735,2.5761611461639404,-10.012551307678223,-33.14208984375,17.333984375,15.0146484375
12.0299999,-1.2976573705673218,2.7269957065582275,-9.794678688049316,-43.9300537109375,16.2506103515625,10.19287109375
12.049999900000001,-1.534683346748352,2.978386878967285,-9.639056205749512,-58.563232421875,11.383056640625,8.97216796875
12.069999900000001,-1.824381709098816,3.4596214294433594,-9.466673851013184,-74.5849609375,26.1383056640625,10.3302001953125
12.0899999,-2.1739351749420166,4.201824188232422,-9.318233489990234,-75.25634765625,34.7900390625,15.167236328125
12.1099999,-2.6144683361053467,5.250484466552734,-9.255983352661133,-67.3828125,13.97705078125,29.2510986328125
12.129999900000001,-3.184288263320923,6.689399719238281,-9.14585018157959,-52.6580810546875,4.6844482421875,35.247802734375
12.149999900000001,-3.8594532012939453,8.109161376953125,-9.009381294250488,-42.66357421875,17.15087890625,78.6895751953125
12.1699999,-4.654327869415283,9.437943458557129,-8.944737434387207,-49.25537109375,-3.7078857421875,118.71337890625
12.1899999,-5.48272180557251,10.347740173339844,-8.774748802185059,-44.891357421875,-19.683837890625,132.38525390625
12.209999900000001,-6.2847795486450195,10.642226219177246,-8.671798706054688,-11.1236572265625,-29.4342041015625,166.1529541015625
12.229999900000001,-7.029376029968262,10.393229484558105,-8.71728801727295,12.664794921875,-49.2706298828125,207.82470703125
12.2499999,-7.735665798187256,9.730035781860352,-8.645462036132812,-10.9405517578125,-47.332763671875,225.372314453125
12.2699999,-8.40843677520752,8.755595207214355,-8.774748802185059,-64.3310546875,-67.9779052734375,238.8153076171875
12.289999900000002,-9.083600997924805,7.603984832763672,-9.141061782836914,-86.944580078125,-115.3411865234375,263.763427734375
12.309999900000001,-9.737217903137207,6.464344501495361,-9.653421401977539,-60.48583984375,-106.26220703125,287.7197265625
12.3299999,-10.441113471984863,5.343858242034912,-10.47942066192627,-4.5318603515625,-97.4578857421875,319.7021484375
12.3499999,-11.113883972167969,3.974374771118164,-11.461043357849121,49.1790771484375,-117.1112060546875,368.9117431640625
12.3699999,-11.590330123901367,1.8770540952682495,-12.703634262084961,7.049560546875,-140.594482421875,403.7322998046875
12.389999900000001,-11.669339179992676,-0.7445967197418213,-14.142549514770508,-93.7347412109375,-113.4033203125,346.9390869140625
12.4099999,-11.24795913696289,-3.0119056701660156,-14.954183578491211,-147.003173828125,8.5296630859375,223.5107421875
12.4299999,-10.441113471984863,-4.199429988861084,-14.935029983520508,-106.7657470703125,33.5693359375,192.9168701171875
12.4499999,-9.50498104095459,-3.892971992492676,-13.979743957519531,-43.5638427734375,-63.201904296875,263.671875
12.469999900000001,-8.69095230102539,-2.655169725418091,-12.524068832397461,-4.2266845703125,-101.1962890625,303.466796875
12.4899999,-8.027758598327637,-1.338358759880066,-11.676521301269531,21.4080810546875,-81.3446044921875,277.6641845703125
12.5099999,-7.570465564727783,-0.6153098344802856,-11.676521301269531,16.7388916015625,-70.526123046875,260.80322265625
12.5299999,-7.16584587097168,-0.26575639843940735,-11.580753326416016,39.154052734375,-10.3302001953125,264.9383544921875
12.549999900000001,-6.785167694091797,-0.3974374830722809,-11.595118522644043,50.567626953125,-19.4549560546875,281.7840576171875
12.569999900000001,-6.399701118469238,-1.1109095811843872,-11.592724800109863,57.5408935546875,-88.9892578125,291.412353515625
12.5899999,-5.827486991882324,-2.0159177780151367,-11.027692794799805,105.40771484375,-11.4898681640625,249.32861328125
12.6099999,-5.200206279754639,-3.533841609954834,-10.223240852355957,114.3798828125,61.1419677734375,242.0501708984375
12.629999900000001,-4.441244125366211,-6.189011573791504,-8.851364135742188,28.4271240234375,25.0396728515625,303.680419921875
12.649999900000001,-3.648763418197632,-9.069235801696777,-7.275979042053223,-39.459228515625,-64.056396484375,209.3048095703125
12.6699999,-2.8419175148010254,-11.106701850891113,-6.497863292694092,-41.80908203125,-84.1827392578125,8.2855224609375
12.6899999,-2.054224967956543,-11.566388130187988,-7.225700855255127,-11.871337890625,-65.093994140625,5.157470703125
12.709999900000001,-1.3646949529647827,-10.512939453125,-9.038111686706543,9.09423828125,-28.0914306640625,119.62890625
12.729999900000001,-0.7661445140838623,-8.71728801727295,-10.94150161743164,-7.9345703125,20.8740234375,115.0665283203125
12.7499999,-0.2944868206977844,-7.450755596160889,-12.076353073120117,-6.7291259765625,32.684326171875,21.148681640625
12.7699999,0.08379705995321274,-6.696582317352295,-12.076353073120117,10.4522705078125,24.5208740234375,-3.96728515625
12.789999900000002,0.5123591423034668,-5.681440830230713,-11.362881660461426,-1.2969970703125,9.7808837890625,11.016845703125
12.809999900000001,0.8882488012313843,-4.771644115447998,-10.417171478271484,-15.0299072265625,8.6822509765625,39.00146484375
12.8299999,1.278503656387329,-3.794809579849243,-9.354146003723145,-12.5579833984375,30.5633544921875,11.71875
12.8499999,1.5945383310317993,-3.2178070545196533,-8.597578048706055,18.37158203125,-5.828857421875,-16.7236328125
12.8699999,1.8052281141281128,-2.674323320388794,-8.08043098449707,39.7186279296875,-42.755126953125,-7.0037841796875
12.889999900000001,1.922544002532959,-2.1811177730560303,-7.9415669441223145,20.3399658203125,-25.5279541015625,4.8828125
12.9099999,1.9129672050476074,-1.7166426181793213,-8.22887134552002,-2.838134765625,-6.9427490234375,3.7384033203125
12.9299999,1.8363527059555054,-1.41257905960083,-8.631096839904785,11.3067626953125,-7.9345703125,-14.2669677734375
12.9499999,1.7118542194366455,-1.213860273361206,-9.004592895507812,31.646728515625,-26.123046875,-12.8173828125
12.969999900000001,1.5538369417190552,-0.9816226959228516,-9.41400146484375,29.144287109375,-45.8221435546875,-8.36181640625
12.9899999,1.3982137441635132,-0.8403648138046265,-9.787496566772461,16.5557861328125,-23.86474609375,-1.6021728515625
13.0099999,1.237802267074585,-0.6703764796257019,-10.103530883789062,7.8582763671875,4.180908203125,-11.566162109375
13.0299999,1.0965443849563599,-0.6200982332229614,-10.266336441040039,22.003173828125,0.4119873046875,-15.899658203125
13.049999900000001,0.993593692779541,-0.5841852426528931,-10.177751541137695,27.6947021484375,-10.5743408203125,-10.6201171875
13.069999900000001,0.9457096457481384,-0.6057330369949341,-9.892841339111328,13.580322265625,-7.8277587890625,-11.688232421875
13.0899999,0.9313444495201111,-0.5650315880775452,-9.658209800720215,2.1209716796875,-18.310546875,-20.782470703125
13.1099999,0.993593692779541,-0.5315127968788147,-9.457097053527832,1.251220703125,-13.9617919921875,-21.484375
13.129999900000001,1.0271124839782715,-0.38546648621559143,-9.442731857299805,11.16943359375,-6.6070556640625,-15.350341796875
13.149999900000001,1.0845733880996704,-0.31364041566848755,-9.50737476348877,12.786865234375,1.2359619140625,-9.246826171875
13.1699999,1.113303780555725,-0.28730419278144836,-9.646238327026367,5.4779052734375,4.1656494140625,-14.6636962890625
13.1899999,1.1300631761550903,-0.31124621629714966,-9.823410034179688,-1.251220703125,-6.9122314453125,-22.5067138671875
13.209999900000001,1.1061211824417114,-0.24181437492370605,-9.950302124023438,5.9661865234375,-7.3394775390625,-21.9879150390625
13.229999900000001,1.0989385843276978,-0.1364694982767105,-10.067618370056152,12.847900390625,0,-7.171630859375
13.2499999,1.072602391242981,-0.19632454216480255,-10.129867553710938,12.298583984375,6.6986083984375,4.3487548828125
13.2699999,1.0534487962722778,-0.3471592366695404,-10.031704902648926,9.307861328125,11.8408203125,-10.2081298828125
13.289999900000002,1.01753568649292,-0.6033388376235962,-9.787496566772461,12.176513671875,6.8511962890625,-25.45166015625
13.309999900000001,1.0007762908935547,-0.7661445140838623,-9.593565940856934,7.781982421875,-8.941650390625,-17.2576904296875
13.3299999,0.9648633003234863,-0.7733271718025208,-9.425971984863281,-0.030517578125,-11.3067626953125,-8.97216796875
13.3499999,0.9600749015808105,-0.6488286852836609,-9.385271072387695,-0.579833984375,3.448486328125,-9.674072265625
13.3699999,0.9672574996948242,-0.5626373887062073,-9.481039047241211,3.265380859375,2.0751953125,-11.1083984375
13.389999900000001,0.9768342971801758,-0.42856210470199585,-9.564835548400879,5.2642822265625,-0.946044921875,-9.70458984375
13.4099999,0.9864110946655273,-0.3447650372982025,-9.66539192199707,3.1585693359375,0.335693359375,-7.2479248046875
13.4299999,0.9672574996948242,-0.3663128614425659,-9.768342971801758,-6.04248046875,-2.197265625,-5.55419921875
13.4499999,0.9289502501487732,-0.38546648621559143,-9.816226959228516,-14.7552490234375,0.9307861328125,-15.1824951171875
13.469999900000001,0.8547300100326538,-0.3734954595565796,-9.907206535339355,-13.9007568359375,-4.730224609375,-19.3023681640625
13.4899999,0.7493851184844971,-0.37828385829925537,-9.885659217834473,-3.143310546875,3.143310546875,-3.9215087890625
13.5099999,0.6416460275650024,-0.3878606855869293,-9.828198432922363,1.129150390625,9.674072265625,-1.4190673828125
13.5299999,0.569819986820221,-0.5602431893348694,-9.691728591918945,-7.6446533203125,8.9111328125,-13.4429931640625
13.549999900000001,0.5506663918495178,-0.751779317855835,-9.485827445983887,-17.9290771484375,9.368896484375,-26.275634765625
13.569999900000001,0.5841852426528931,-0.8523358106613159,-9.308655738830566,-20.6451416015625,4.45556640625,-27.1148681640625
13.5899999,0.6799532771110535,-0.6392518281936646,-9.153033256530762,-17.9901123046875,7.14111328125,-24.5819091796875
13.6099999,0.790086567401886,-0.24660277366638184,-9.157821655273438,-6.317138671875,-5.279541015625,-16.143798828125
13.629999900000001,0.912190854549408,0.14604631066322327,-9.2033109664917,5.9814453125,-9.368896484375,-6.591796875
13.649999900000001,1.0127472877502441,0.3974374830722809,-9.378087997436523,-6.2408447265625,-4.425048828125,-7.0037841796875
13.6699999,1.0749965906143188,0.33039984107017517,-9.545681953430176,-29.0985107421875,1.007080078125,-8.941650390625
13.6899999,1.0869675874710083,0.181959331035614,-9.634267807006836,-39.48974609375,4.180908203125,-18.9056396484375
13.709999900000001,1.0893617868423462,0.05746084079146385,-9.674968719482422,-29.35791015625,-4.2724609375,-25.5279541015625
13.729999900000001,1.0773907899856567,0.11252748221158981,-9.674968719482422,-15.8538818359375,-8.3770751953125,-18.5546875
13.7499999,1.0845733880996704,0.2944868206977844,-9.706093788146973,-7.75146484375,-2.38037109375,-7.38525390625
13.7699999,1.0893617868423462,0.4908113479614258,-9.81143856048584,-4.45556640625,-2.7618408203125,-5.8135986328125
13.789999900000002,1.0821791887283325,0.5410895943641663,-9.93354320526123,1.52587890625,-3.35693359375,-8.6669921875
13.809999900000001,1.0582371950149536,0.4836287498474121,-10.070012092590332,3.3416748046875,-6.439208984375,-12.664794921875
13.8299999,1.0319008827209473,0.3734954595565796,-10.127472877502441,12.908935546875,-2.8076171875,-14.70947265625
13.8499999,1.015141487121582,0.28969839215278625,-10.132261276245117,18.341064453125,-1.9683837890625,-13.916015625
13.8699999,1.036689281463623,0.2561795711517334,-10.096348762512207,12.3291015625,-3.0517578125,-13.5650634765625
13.889999900000001,1.0893617868423462,0.23702596127986908,-9.981427192687988,6.6070556640625,0.579833984375,-14.2822265625
13.9099999,1.1899182796478271,0.27054479718208313,-9.897629737854004,1.1138916015625,0.4119873046875,-20.1568603515625
13.9299999,1.314416766166687,0.33997663855552673,-9.732429504394531,-1.2664794921875,1.15966796875,-24.5208740234375
13.9499999,1.4293384552001953,0.5123591423034668,-9.526528358459473,6.3629150390625,0.6561279296875,-20.965576171875
13.969999900000001,1.4987702369689941,0.727837324142456,-9.327810287475586,10.3302001953125,-6.3934326171875,-12.725830078125
13.9899999,1.501164436340332,0.8690952062606812,-9.186552047729492,10.8184814453125,-9.613037109375,-2.9296875
14.0099999,1.4317326545715332,0.8140285611152649,-9.121908187866211,13.7939453125,-5.7373046875,-1.190185546875
14.0299999,1.3287819623947144,0.5985504388809204,-9.14585018157959,11.932373046875,-6.3323974609375,-9.185791015625
14.049999900000001,1.1252747774124146,0.026336219161748886,-9.29189682006836,-4.730224609375,-12.3291015625,-11.8255615234375
14.069999900000001,1.036689281463623,-0.09816227108240128,-9.361329078674316,-0.5645751953125,-9.246826171875,-11.7340087890625
14.0899999,0.933738648891449,-0.1628057211637497,-9.41400146484375,4.486083984375,-13.4735107421875,-12.115478515625
14.1099999,0.8379706144332886,-0.1388636976480484,-9.509769439697266,4.6234130859375,-15.0604248046875,-10.6353759765625
14.129999900000001,0.751779317855835,-0.20111294090747833,-9.646238327026367,3.814697265625,-13.3819580078125,-5.31005859375
14.149999900000001,0.6919242739677429,-0.31603461503982544,-9.768342971801758,-4.1351318359375,-4.058837890625,-5.5084228515625
14.1699999,0.667982280254364,-0.4884171485900879,-9.940725326538086,-20.32470703125,-5.37109375,-14.007568359375
14.1899999,0.6416460275650024,-0.6392518281936646,-9.967061996459961,-24.0936279296875,-1.40380859375,-14.7705078125
14.209999900000001,0.6272808313369751,-0.6272808313369751,-9.888052940368652,-29.11376953125,2.3651123046875,-11.7034912109375
14.229999900000001,0.5841852426528931,-0.4884171485900879,-9.854534149169922,-43.1671142578125,-16.2200927734375,-3.1280517578125
14.2499999,0.5219359993934631,-0.3711012601852417,-9.775525093078613,-40.4205322265625,-16.754150390625,9.613037109375
14.2699999,0.4381389021873474,-0.35673606395721436,-9.794678688049316,-31.829833984375,-9.1400146484375,8.544921875
14.289999900000002,0.3423708379268646,-0.47405192255973816,-9.947908401489258,-29.6173095703125,-17.1356201171875,-7.6904296875
14.309999900000001,0.2513911724090576,-0.7206547260284424,-10.15141487121582,-13.2904052734375,-15.106201171875,-20.08056640625
14.3299999,0.16759411990642548,-0.9097966551780701,-10.342951774597168,5.4779052734375,-0.3509521484375,-30.303955078125
14.3499999,0.08379705995321274,-0.9768342971801758,-10.496180534362793,-0.2593994140625,5.55419921875,-39.1387939453125
14.3699999,-0.028730420395731926,-0.9097966551780701,-10.551246643066406,-7.75146484375,0.9765625,-38.055419921875
14.389999900000001,-0.16519992053508759,-0.8331822156906128,-10.486603736877441,-1.15966796875,3.6773681640625,-32.4859619140625
14.4099999,-0.31364041566848755,-0.8523358106613159,-10.472238540649414,5.279541015625,1.4190673828125,-34.97314453125
14.4299999,-0.4381389021873474,-0.9074024558067322,-10.472238540649414,3.23486328125,6.378173828125,-54.87060546875
14.4499999,-0.5291185975074768,-0.9481038451194763,-10.512939453125,-5.615234375,14.6026611328125,-64.9871826171875
14.469999900000001,-0.5602431893348694,-0.8020575642585754,-10.536881446838379,-8.3160400390625,13.763427734375,-59.8297119140625
14.4899999,-0.5195417404174805,-0.45489832758903503,-10.462661743164062,-2.532958984375,12.5885009765625,-55.23681640625
14.5099999,-0.4213795065879822,-0.10295066982507706,-10.374075889587402,1.1444091796875,11.2457275390625,-51.300048828125
14.5299999,-0.3208230137825012,0.047884032130241394,-10.218452453613281,2.8839111328125,15.93017578125,-48.309326171875
14.549999900000001,-0.24181437492370605,-0.011971008032560349,-10.074800491333008,3.4027099609375,21.1639404296875,-56.2896728515625
14.569999900000001,-0.24181437492370605,-0.1604115068912506,-9.940725326538086,0.5035400390625,18.8140869140625,-69.671630859375
14.5899999,-0.304063618183136,-0.3280056416988373,-9.713275909423828,1.556396484375,21.9879150390625,-71.71630859375
14.6099999,-0.3998316824436188,-0.4118026793003082,-9.459490776062012,8.575439453125,16.7236328125,-65.826416015625
14.629999900000001,-0.5147533416748047,-0.5051765441894531,-9.126696586608887,18.98193359375,6.7291259765625,-63.2476806640625
14.649999900000001,-0.6105214357376099,-0.646434485912323,-8.846575736999512,30.76171875,-1.1749267578125,-65.9637451171875
14.6699999,-0.6607996821403503,-0.8643068075180054,-8.753201484680176,30.426025390625,-9.674072265625,-70.5108642578125
14.6899999,-0.6943184733390808,-1.1228805780410767,-8.853757858276367,20.2789306640625,-3.6773681640625,-72.6470947265625
14.709999900000001,-0.7015010714530945,-1.2330138683319092,-9.040505409240723,15.167236328125,9.8114013671875,-87.0361328125
14.729999900000001,-0.6775590777397156,-1.1013327836990356,-9.258378028869629,18.4478759765625,6.4697265625,-100.9979248046875
14.7499999,-0.6607996821403503,-0.7996633648872375,-9.411606788635254,20.4620361328125,-5.2337646484375,-89.874267578125
14.7699999,-0.6368576288223267,-0.33039984107017517,-9.514557838439941,22.8729248046875,-5.18798828125,-79.4677734375
14.789999900000002,-0.6344634294509888,0.14844051003456116,-9.720458984375,29.0985107421875,-8.9874267578125,-88.2568359375
14.809999900000001,-0.6703764796257019,0.43335050344467163,-9.947908401489258,41.3665771484375,-12.0849609375,-87.9058837890625
14.8299999,-0.727837324142456,0.4668693244457245,-10.14902114868164,43.426513671875,-6.011962890625,-77.5604248046875
14.8499999,-0.8068459630012512,0.3902548849582672,-10.383652687072754,28.74755859375,-11.444091796875,-83.526611328125
14.8699999,-0.8882488012313843,0.35434186458587646,-10.563218116760254,20.0042724609375,-10.7421875,-102.813720703125
14.889999900000001,-0.9888052940368652,0.4189853072166443,-10.60152530670166,19.3939208984375,9.2926025390625,-93.8873291015625
14.9099999,-1.0630255937576294,0.5626373887062073,-10.47702693939209,19.9127197265625,14.5721435546875,-71.3043212890625
14.9299999,-1.1037269830703735,0.49559974670410156,-10.141838073730469,14.9993896484375,4.21142578125,-62.01171875
14.9499999,-1.1037269830703735,0.18914192914962769,-9.63187313079834,10.955810546875,-0.4425048828125,-76.171875
14.969999900000001,-1.0630255937576294,-0.12449848651885986,-9.27034854888916,15.07568359375,-8.2244873046875,-95.27587890625
14.9899999,-1.0247182846069336,-0.3016694188117981,-9.165003776550293,18.157958984375,-20.56884765625,-84.9456787109375
15.0099999,-1.0271124839782715,-0.3974374830722809,-9.220070838928223,21.5606689453125,-8.3160400390625,-57.8155517578125
15.0299999,-1.0630255937576294,-0.6368576288223267,-9.442731857299805,20.721435546875,-8.056640625,-55.7708740234375
15.049999900000001,-1.137245774269104,-1.036689281463623,-9.660603523254395,11.016845703125,-16.8609619140625,-83.3892822265625
15.069999900000001,-1.1875240802764893,-1.292868971824646,-9.852140426635742,8.9263916015625,-16.1590576171875,-110.7330322265625
15.0899999,-1.1971008777618408,-1.3838485479354858,-9.981427192687988,12.3443603515625,-7.843017578125,-86.883544921875
15.1099999,-1.1420341730117798,-1.3479355573654175,-10.050858497619629,10.9100341796875,-5.67626953125,-59.9212646484375
15.129999900000001,-1.0654197931289673,-1.3072341680526733,-10.08437728881836,2.0904541015625,-11.7340087890625,-79.864501953125
15.149999900000001,-0.9720458984375,-1.1683704853057861,-10.070012092590332,1.77001953125,-11.6424560546875,-117.24853515625
15.1699999,-0.9026140570640564,-0.9050082564353943,-10.067618370056152,7.62939453125,-5.37109375,-97.747802734375
15.1899999,-0.8690952062606812,-0.5434837937355042,-10.120290756225586,16.9525146484375,-10.650634765625,-55.5877685546875
15.209999900000001,-0.8906430602073669,-0.44771572947502136,-10.160991668701172,12.39013671875,-11.7034912109375,-49.407958984375
15.229999900000001,-0.9720458984375,-0.7374141216278076,-10.189722061157227,5.5999755859375,-7.6904296875,-79.4219970703125
15.2499999,-1.0749965906143188,-1.216254472732544,-10.168174743652344,-0.091552734375,-3.7841796875,-100.8148193359375
15.2699999,-1.2018892765045166,-1.659181833267212,-10.06043529510498,-13.2293701171875,-2.716064453125,-83.6334228515625
15.289999900000002,-1.3024457693099976,-1.8339585065841675,-9.976638793945312,-23.2391357421875,-9.6893310546875,-74.15771484375
15.309999900000001,-1.3766659498214722,-1.8052281141281128,-9.99339771270752,-23.5443115234375,-16.78466796875,-86.212158203125
15.3299999,-1.3886369466781616,-1.525106430053711,-10.199298858642578,-23.5595703125,-14.129638671875,-98.69384765625
15.3499999,-1.3527239561080933,-1.0534487962722778,-10.484209060668945,-29.541015625,-0.2288818359375,-91.217041015625
15.3699999,-1.3024457693099976,-0.5363011956214905,-10.72841739654541,-39.7491455078125,12.176513671875,-71.10595703125
15.389999900000001,-1.2114660739898682,-0.19632454216480255,-10.754754066467285,-42.2210693359375,12.3443603515625,-66.986083984375
15.4099999,-1.1875240802764893,-0.05506663769483566,-10.532093048095703,-61.4013671875,3.6773681640625,-78.7506103515625
15.4299999,-1.161187767982483,0.07422025501728058,-10.189722061157227,-80.4290771484375,-7.0343017578125,-91.705322265625
15.4499999,-1.1468225717544556,0.2298433631658554,-9.785101890563965,-65.8416748046875,-7.354736328125,-78.4149169921875
15.469999900000001,-1.1276689767837524,0.6033388376235962,-9.387664794921875,-47.7294921875,0.946044921875,-67.0166015625
15.4899999,-1.0869675874710083,1.091755986213684,-9.07641887664795,-45.6695556640625,-7.537841796875,-73.8067626953125
15.5099999,-1.0438719987869263,1.6400281190872192,-8.942343711853027,-44.677734375,-29.449462890625,-69.2596435546875
15.5299999,-1.0079588890075684,2.3535003662109375,-9.071630477905273,-32.3944091796875,-37.9486083984375,-64.8193359375
15.549999900000001,-0.9864110946655273,2.9041666984558105,-9.428366661071777,1.1444091796875,-21.881103515625,-51.4984130859375
15.569999900000001,-0.9672574996948242,3.248931646347046,-9.804255485534668,19.5159912109375,13.2904052734375,-31.1737060546875
15.5899999,-0.9409212470054626,3.2800562381744385,-10.002974510192871,7.14111328125,12.237548828125,-34.0728759765625
15.6099999,-0.8834604024887085,3.1028854846954346,-9.914389610290527,8.0413818359375,-12.3291015625,-33.8287353515625
15.629999900000001,-0.8259995579719543,2.8802247047424316,-9.636661529541016,-2.74658203125,-21.6522216796875,-20.0958251953125
15.649999900000001,-0.7230489253997803,2.5905263423919678,-9.38048267364502,-11.7950439453125,-16.876220703125,3.9520263671875
15.6699999,-0.6320692300796509,2.33913516998291,-9.124302864074707,-29.937744140625,-3.2196044921875,-4.3182373046875
15.6899999,-0.608127236366272,2.188300371170044,-8.927978515625,-15.2435302734375,-2.9296875,-38.02490234375
15.709999900000001,-0.586579442024231,2.169146776199341,-8.757989883422852,-6.3629150390625,-3.4942626953125,-28.80859375
15.729999900000001,-0.6584054827690125,2.3558945655822754,-8.734047889709473,-27.008056640625,-16.1285400390625,-0.91552734375
15.7499999,-0.7086837291717529,2.5450363159179688,-8.89445972442627,-17.3797607421875,-23.0712890625,12.5885009765625
15.7699999,-0.6631938815116882,3.0837318897247314,-9.05247688293457,4.39453125,-9.5977783203125,-0.18310546875
15.789999900000002,-0.6033388376235962,3.7397429943084717,-9.433155059814453,-23.7579345703125,-17.822265625,37.017822265625
15.809999900000001,-0.5746083855628967,4.2090067863464355,-9.775525093078613,3.0059814453125,-5.37109375,153.594970703125
15.8299999,-0.5171475410461426,3.931279182434082,-9.916783332824707,53.9703369140625,50.2166748046875,207.9925537109375
15.8499999,-0.5003881454467773,2.5905263423919678,-9.787496566772461,43.7164306640625,52.825927734375,124.7100830078125
15.869999900000002,-0.40701428055763245,0.849941611289978,-9.466673851013184,12.5274658203125,-18.8140869140625,-15.80810546875
15.889999900000001,-0.22266076505184174,-0.36152446269989014,-8.999804496765137,-14.1754150390625,-45.5169677734375,-58.3038330078125
15.9099999,-0.004788403399288654,-0.6871358752250671,-8.803479194641113,-17.5323486328125,-26.641845703125,-1.068115234375
15.9299999,0.1149216815829277,-0.1604115068912506,-9.047688484191895,-14.7552490234375,-18.8140869140625,26.4892578125
15.9499999,0.08379705995321274,0.47165772318840027,-9.5408935546875,-10.1470947265625,-3.35693359375,-0.4119873046875
15.969999900000001,-0.10295066982507706,0.7948749661445618,-9.976638793945312,3.631591796875,33.3404541015625,-24.078369140625
15.9899999,-0.40701428055763245,0.6943184733390808,-10.35252857208252,34.4390869140625,24.3072509765625,-30.1971435546875
16.0099999,-0.6440402865409851,0.5626373887062073,-10.51054573059082,51.177978515625,-1.2969970703125,-56.15234375
16.0299999,-0.7709329724311829,0.7469909191131592,-10.469843864440918,11.53564453125,6.805419921875,-86.24267578125
16.0499999,-0.7565677165985107,1.1516109704971313,-10.395624160766602,-27.2674560546875,6.2103271484375,-33.7982177734375
16.0699999,-0.6536170840263367,1.6496049165725708,-10.235212326049805,-6.6070556640625,-4.302978515625,40.7562255859375
16.089999900000002,-0.5817909836769104,2.0039467811584473,-10.144232749938965,16.0064697265625,-16.66259765625,28.7017822265625
16.109999900000002,-0.6224924325942993,1.8387469053268433,-10.010157585144043,22.52197265625,-6.805419921875,1.4190673828125
16.1299999,-0.7422025203704834,1.3694833517074585,-9.856928825378418,19.7906494140625,12.298583984375,5.5084228515625
16.1499999,-0.9265560507774353,0.8451532125473022,-9.718064308166504,5.126953125,-8.97216796875,4.5013427734375
16.1699999,-1.0869675874710083,0.42377370595932007,-9.634267807006836,-10.467529296875,-43.1060791015625,-12.6495361328125
16.1899999,-1.1971008777618408,0.20350714027881622,-9.648633003234863,-4.0435791015625,-38.39111328125,-33.3404541015625
16.2099999,-1.2521674633026123,0.22505496442317963,-9.782708168029785,1.3885498046875,-14.0380859375,-29.2816162109375
16.2299999,-1.3120225667953491,0.40701428055763245,-9.959878921508789,-6.1798095703125,-6.4544677734375,-11.077880859375
16.249999900000002,-1.3742717504501343,0.6248866319656372,-10.113107681274414,-15.2587890625,-12.87841796875,-5.6915283203125
16.269999900000002,-1.400607943534851,0.8595184087753296,-10.180145263671875,-15.6402587890625,-8.0718994140625,-22.5372314453125
16.2899999,-1.3934253454208374,1.0845733880996704,-10.137049674987793,6.256103515625,6.2713623046875,-40.9088134765625
16.3099999,-1.3503297567367554,1.2737152576446533,-9.979032516479492,26.885986328125,9.5977783203125,-27.89306640625
16.3299999,-1.2952631711959839,1.3072341680526733,-9.653421401977539,22.5982666015625,6.2408447265625,-5.584716796875
16.3499999,-1.2545616626739502,1.158793568611145,-9.35654067993164,18.9208984375,-4.8370361328125,-15.0146484375
16.3699999,-1.2401964664459229,0.933738648891449,-9.222464561462402,-0.1220703125,-21.8963623046875,-35.5987548828125
16.3899999,-1.256955862045288,0.6775590777397156,-9.296685218811035,5.9814453125,-23.37646484375,-31.7840576171875
16.4099999,-1.2545616626739502,0.4836287498474121,-9.536105155944824,33.8897705078125,-5.67626953125,-21.8505859375
16.429999900000002,-1.3215993642807007,0.3878606855869293,-9.823410034179688,33.5540771484375,7.781982421875,-34.2864990234375
16.4499999,-1.3742717504501343,0.30885201692581177,-10.031704902648926,9.5062255859375,4.8675537109375,-39.154052734375
16.4699999,-1.4508862495422363,0.2944868206977844,-10.132261276245117,14.5416259765625,-2.3651123046875,-31.6925048828125
16.4899999,-1.5131354331970215,0.2801215946674347,-10.127472877502441,16.998291015625,1.64794921875,-20.8740234375
16.5099999,-1.5729905366897583,0.2106897532939911,-10.065223693847656,5.462646484375,2.044677734375,-18.6614990234375
16.5299999,-1.6065093278884888,0.10295066982507706,-9.95748519897461,-0.67138671875,-1.6326904296875,-32.806396484375
16.5499999,-1.6496049165725708,0.040701430290937424,-9.81143856048584,10.1470947265625,-2.105712890625,-51.1627197265625
16.5699999,-1.6304513216018677,0.10295066982507706,-9.667786598205566,21.78955078125,-4.6844482421875,-57.43408203125
16.589999900000002,-1.6065093278884888,0.23942017555236816,-9.516951560974121,12.1002197265625,-4.1046142578125,-37.078857421875
16.609999900000002,-1.556231141090393,0.24899697303771973,-9.370905876159668,-3.41796875,1.007080078125,-8.636474609375
16.6299999,-1.5442601442337036,0.12928688526153564,-9.251194953918457,-6.4544677734375,-4.0740966796875,-17.8375244140625
16.6499999,-1.534683346748352,-0.038307227194309235,-9.169792175292969,-4.3182373046875,-10.101318359375,-41.9921875
16.6699999,-1.5634137392044067,-0.09576806426048279,-9.208099365234375,-9.796142578125,-16.5863037109375,-45.6695556640625
16.6899999,-1.5921441316604614,-0.016759412363171577,-9.363722801208496,-27.252197265625,-10.3912353515625,-16.326904296875
16.7099999,-1.6879122257232666,0.06464344263076782,-9.567230224609375,-25.7110595703125,9.7198486328125,0.335693359375
16.7299999,-1.7717092037200928,0.05985504388809204,-9.938331604003906,-28.533935546875,32.073974609375,-23.590087890625
16.749999900000002,-1.802833914756775,0.07182604819536209,-10.244789123535156,-45.10498046875,62.2406005859375,-55.72509765625
16.769999900000002,-1.6831238269805908,0.2059013396501541,-10.347740173339844,-25.7568359375,82.7484130859375,-55.4962158203125
16.7899999,-1.4437036514282227,0.44532153010368347,-10.228029251098633,1.4190673828125,57.0068359375,-17.6849365234375
16.8099999,-1.173158884048462,0.5674257874488831,-9.849745750427246,-4.2572021484375,20.9503173828125,2.7008056640625
16.8299999,-0.9864110946655273,0.45250412821769714,-9.502586364746094,-9.70458984375,-1.1138916015625,-18.8446044921875
16.8499999,-0.8930372595787048,0.17238251864910126,-9.35654067993164,1.739501953125,0.0762939453125,-50.5523681640625
16.8699999,-0.8786720037460327,-0.12689268589019775,-9.442731857299805,-6.1187744140625,16.29638671875,-51.1627197265625
16.8899999,-0.8571242094039917,-0.1364694982767105,-9.672574996948242,-22.2930908203125,19.989013671875,-46.9970703125
16.9099999,-0.8355764150619507,0.15083470940589905,-9.80904483795166,-15.93017578125,23.4222412109375,-55.8013916015625
16.929999900000002,-0.7972691655158997,0.524330198764801,-9.825803756713867,-8.453369140625,26.611328125,-43.88427734375
16.9499999,-0.768538773059845,0.8643068075180054,-9.768342971801758,2.0294189453125,8.4381103515625,-30.059814453125
16.9699999,-0.7398083209991455,1.0582371950149536,-9.639056205749512,6.6986083984375,3.6163330078125,-37.8875732421875
16.9899999,-0.7015010714530945,1.0678139925003052,-9.567230224609375,3.7078857421875,1.46484375,-43.5333251953125
17.0099999,-0.6560112833976746,1.0534487962722778,-9.512163162231445,-9.429931640625,5.096435546875,-38.4368896484375
17.0299999,-0.6033388376235962,1.0893617868423462,-9.521739959716797,-6.5460205078125,6.7901611328125,-33.5693359375
17.0499999,-0.5482721924781799,1.0797849893569946,-9.57201862335205,8.6212158203125,2.288818359375,-24.8260498046875
17.0699999,-0.5171475410461426,1.015141487121582,-9.610325813293457,4.0435791015625,5.828857421875,-25.054931640625
17.089999900000002,-0.4836287498474121,0.8906430602073669,-9.684545516967773,-5.2032470703125,5.2337646484375,-33.2489013671875
17.109999900000002,-0.4668693244457245,0.7613561153411865,-9.732429504394531,-11.0626220703125,4.180908203125,-32.928466796875
17.1299999,-0.4572925269603729,0.6967126727104187,-9.732429504394531,-9.8724365234375,5.4473876953125,-27.89306640625
17.1499999,-0.44771572947502136,0.8188169598579407,-9.730035781860352,19.59228515625,1.1749267578125,-36.9873046875
17.1699999,-0.45489832758903503,0.8643068075180054,-9.679757118225098,21.484375,4.058837890625,-26.458740234375
17.1899999,-0.45489832758903503,0.8858546018600464,-9.701305389404297,8.2244873046875,0.3204345703125,-13.73291015625
17.2099999,-0.4644751250743866,0.8475474119186401,-9.730035781860352,-4.8065185546875,0,-21.5606689453125
17.2299999,-0.4668693244457245,0.730231523513794,-9.787496566772461,-6.9732666015625,-3.4942626953125,-21.1334228515625
17.249999900000002,-0.47884035110473633,0.5626373887062073,-9.835380554199219,8.636474609375,-12.3443603515625,-13.7481689453125
17.269999900000002,-0.47405192255973816,0.4429273009300232,-9.861717224121094,22.88818359375,-15.19775390625,-20.3857421875
17.2899999,-0.47884035110473633,0.35913026332855225,-9.871294021606445,14.09912109375,-6.8206787109375,-31.3720703125
17.3099999,-0.47165772318840027,0.2777273952960968,-9.914389610290527,4.1961669921875,1.2969970703125,-22.4761962890625
17.3299999,-0.4836287498474121,0.26815059781074524,-9.916783332824707,3.5858154296875,7.9193115234375,-17.730712890625
17.3499999,-0.5051765441894531,0.23702596127986908,-9.8784761428833,8.544921875,8.7738037109375,-22.705078125
17.3699999,-0.5291185975074768,0.2513911724090576,-9.84495735168457,11.1541748046875,0.9765625,-29.083251953125
17.3899999,-0.5434837937355042,0.28730419278144836,-9.737217903137207,6.77490234375,5.43212890625,-26.4739990234375
17.409999900000003,-0.5315127968788147,0.33518823981285095,-9.59835433959961,8.30078125,9.5672607421875,-14.22119140625
17.429999900000002,-0.4908113479614258,0.40462008118629456,-9.548076629638672,7.5836181640625,-3.082275390625,-12.908935546875
17.4499999,-0.4381389021873474,0.4812345504760742,-9.560047149658203,3.5400390625,-4.4708251953125,-18.5089111328125
17.4699999,-0.3878606855869293,0.5482721924781799,-9.63187313079834,5.645751953125,9.796142578125,-12.63427734375
17.4899999,-0.35434186458587646,0.5889736413955688,-9.78989028930664,18.3258056640625,10.650634765625,-4.7454833984375
17.5099999,-0.33758243918418884,0.5363011956214905,-9.876082420349121,25.2838134765625,8.30078125,-3.4637451171875
17.5299999,-0.33039984107017517,0.3471592366695404,-9.804255485534668,17.2882080078125,17.4713134765625,-5.340576171875
17.5499999,-0.30885201692581177,0.0933738648891449,-9.708487510681152,2.8076171875,7.87353515625,-5.7220458984375
17.5699999,-0.26815059781074524,-0.17717093229293823,-9.576807022094727,6.34765625,-2.899169921875,-5.035400390625
17.589999900000002,-0.21547815203666687,-0.38307225704193115,-9.490615844726562,9.7503662109375,-0.1220703125,-6.5765380859375
17.609999900000002,-0.1628057211637497,-0.5267243981361389,-9.50737476348877,0.5035400390625,2.7008056640625,-8.4686279296875
17.6299999,-0.12210428714752197,-0.6009446382522583,-9.576807022094727,-3.9520263671875,2.44140625,-9.0484619140625
17.6499999,-0.10295066982507706,-0.6512228846549988,-9.694122314453125,1.0528564453125,-0.823974609375,-7.6141357421875
17.6699999,-0.10055647045373917,-0.6440402865409851,-9.818621635437012,3.96728515625,-2.3345947265625,-12.5274658203125
17.6899999,-0.10773907601833344,-0.586579442024231,-9.938331604003906,0.7171630859375,0.3509521484375,-15.2740478515625
17.7099999,-0.12210428714752197,-0.45010992884635925,-10.079588890075684,-1.007080078125,2.0294189453125,-12.26806640625
17.7299999,-0.15083470940589905,-0.2825157940387726,-10.168174743652344,0.762939453125,7.2174072265625,-5.340576171875
17.749999900000002,-0.19632454216480255,-0.16998831927776337,-10.137049674987793,4.669189453125,14.190673828125,-2.86865234375
17.769999900000002,-0.24181437492370605,-0.181959331035614,-10.055646896362305,7.2784423828125,4.9896240234375,-6.866455078125
17.7899999,-0.28969839215278625,-0.26336219906806946,-9.885659217834473,4.9591064453125,-2.2430419921875,-12.6495361328125
17.8099999,-0.2992752194404602,-0.3471592366695404,-9.674968719482422,2.0294189453125,4.57763671875,-12.9547119140625
17.8299999,-0.2849099934101105,-0.38067805767059326,-9.548076629638672,-4.0740966796875,3.5400390625,-9.552001953125
17.8499999,-0.2537853717803955,-0.3687070608139038,-9.44991397857666,-2.01416015625,0.0152587890625,-8.4686279296875
17.8699999,-0.21547815203666687,-0.3064578175544739,-9.3828763961792,4.21142578125,2.9144287109375,-13.031005859375
17.8899999,-0.1843535304069519,-0.22026655077934265,-9.404424667358398,2.13623046875,-1.5869140625,-13.0615234375
17.909999900000003,-0.14844051003456116,-0.09816227108240128,-9.445125579833984,-1.4495849609375,-2.044677734375,-7.537841796875
17.929999900000002,-0.1173158809542656,0.011971008032560349,-9.502586364746094,-1.0528564453125,1.3427734375,-4.0740966796875
17.9499999,-0.07900865375995636,0.05027823522686958,-9.564835548400879,2.7008056640625,-1.2969970703125,-3.5400390625
17.9699999,-0.05027823522686958,0.028730420395731926,-9.600749015808105,2.166748046875,-3.387451171875,-5.401611328125
17.9899999,-0.035913024097681046,-0.05985504388809204,-9.634267807006836,-0.79345703125,-3.082275390625,-3.6468505859375
18.0099999,-0.0454898327589035,-0.16759411990642548,-9.696516990661621,-3.2806396484375,-3.631591796875,-1.6326904296875
18.0299999,-0.06224924325942993,-0.2585737705230713,-9.797073364257812,-3.570556640625,-3.0059814453125,-4.119873046875
18.0499999,-0.08140286058187485,-0.33997663855552673,-9.916783332824707,-4.4403076171875,-1.7852783203125,-6.4849853515625
18.0699999,-0.0933738648891449,-0.3902548849582672,-10.04846477508545,-3.570556640625,-1.5869140625,-5.2490234375
18.089999900000002,-0.090979665517807,-0.3926490843296051,-10.141838073730469,-2.1820068359375,1.251220703125,-5.0506591796875
18.109999900000002,-0.08619125932455063,-0.38067805767059326,-10.18493366241455,-2.4566650390625,3.7689208984375,-4.974365234375
18.1299999,-0.07422025501728058,-0.33279404044151306,-10.182539939880371,-0.335693359375,3.0517578125,-5.9356689453125
18.1499999,-0.07182604819536209,-0.3256114423274994,-10.105925559997559,3.326416015625,4.57763671875,-4.119873046875
18.1699999,-0.07182604819536209,-0.2968810200691223,-9.99100399017334,1.5411376953125,3.326416015625,-6.1798095703125
18.1899999,-0.08140286058187485,-0.28730419278144836,-9.849745750427246,-3.96728515625,2.50244140625,-7.7056884765625
18.2099999,-0.10295066982507706,-0.31842881441116333,-9.75637149810791,-3.72314453125,-0.9613037109375,-4.39453125
18.2299999,-0.12210428714752197,-0.3663128614425659,-9.672574996948242,2.5177001953125,1.953125,-5.9051513671875
18.249999900000002,-0.15322890877723694,-0.395043283700943,-9.670180320739746,0.8544921875,1.28173828125,-13.153076171875
18.269999900000002,-0.1843535304069519,-0.43095630407333374,-9.66299819946289,-2.8533935546875,0.8392333984375,-13.61083984375
18.2899999,-0.2082955539226532,-0.3902548849582672,-9.670180320739746,-2.9296875,2.4566650390625,-10.7879638671875
18.3099999,-0.22505496442317963,-0.2801215946674347,-9.66299819946289,-3.753662109375,3.4637451171875,-11.7034912109375
18.3299999,-0.22026655077934265,-0.181959331035614,-9.653421401977539,-2.9449462890625,3.0670166015625,-8.4991455078125
18.3499999,-0.19632454216480255,-0.07900865375995636,-9.639056205749512,0.640869140625,0.4425048828125,-7.7667236328125
18.3699999,-0.16519992053508759,-0.05746084079146385,-9.612719535827637,5.8441162109375,1.3885498046875,-7.6446533203125
18.3899999,-0.12928688526153564,-0.07900865375995636,-9.57201862335205,3.0670166015625,1.129150390625,-6.927490234375
18.409999900000003,-0.08858546614646912,-0.10055647045373917,-9.552865028381348,-5.1422119140625,-2.3193359375,-9.9334716796875
18.429999900000002,-0.05267243832349777,-0.181959331035614,-9.5624418258667,-6.011962890625,-6.2408447265625,-5.828857421875
18.4499999,-0.021547814831137657,-0.19871874153614044,-9.607931137084961,-1.312255859375,-2.7923583984375,-6.6680908203125
18.4699999,0.002394201699644327,-0.19871874153614044,-9.715670585632324,-0.48828125,-3.7078857421875,-11.0321044921875
18.4899999,0.011971008032560349,-0.15083470940589905,-9.821015357971191,-2.471923828125,-2.777099609375,-9.58251953125
18.5099999,0.011971008032560349,-0.0454898327589035,-9.914389610290527,-0.6866455078125,-0.9002685546875,-6.8511962890625
18.5299999,0.002394201699644327,0.031124621629714966,-9.967061996459961,1.2054443359375,0.274658203125,-2.685546875
18.5499999,-0.014365210197865963,0.0454898327589035,-9.976638793945312,1.3275146484375,0.4119873046875,-1.678466796875
18.5699999,-0.040701430290937424,0.021547814831137657,-9.971850395202637,0.091552734375,-0.91552734375,-5.645751953125
18.589999900000002,-0.06464344263076782,-0.0454898327589035,-9.964667320251465,-1.5869140625,-1.0986328125,-3.7384033203125
18.609999900000002,-0.08619125932455063,-0.11013327538967133,-9.959878921508789,-2.777099609375,2.0751953125,-0.457763671875
18.6299999,-0.0933738648891449,-0.15083470940589905,-9.955090522766113,-3.2501220703125,3.96728515625,-2.0294189453125
18.6499999,-0.09576806426048279,-0.2082955539226532,-9.931148529052734,-3.47900390625,2.716064453125,-2.6702880859375
18.6699999,-0.08619125932455063,-0.24181437492370605,-9.859322547912598,-0.9613037109375,4.241943359375,-4.058837890625
18.6899999,-0.07422025501728058,-0.3064578175544739,-9.799467086791992,0.2899169921875,0.701904296875,-3.2196044921875
18.7099999,-0.06703764945268631,-0.33997663855552673,-9.72285270690918,-0.3509521484375,0.946044921875,-5.645751953125
18.7299999,-0.05746084079146385,-0.36152446269989014,-9.684545516967773,-4.1046142578125,0.8392333984375,-8.209228515625
18.749999900000002,-0.05746084079146385,-0.33279404044151306,-9.648633003234863,-3.6163330078125,1.0223388671875,-7.293701171875
18.769999900000002,-0.05985504388809204,-0.28969839215278625,-9.615114212036133,0.1068115234375,1.15966796875,-3.5858154296875
18.7899999,-0.06703764945268631,-0.22026655077934265,-9.569623947143555,-0.274658203125,-1.2664794921875,-4.486083984375
18.8099999,-0.08140286058187485,-0.19871874153614044,-9.533711433410645,-1.556396484375,-2.471923828125,-5.2642822265625
18.8299999,-0.10773907601833344,-0.2106897532939911,-9.543288230895996,-1.3275146484375,-3.7841796875,-4.7149658203125
18.8499999,-0.14365209639072418,-0.181959331035614,-9.5624418258667,-1.6326904296875,-1.007080078125,-8.544921875
18.8699999,-0.17238251864910126,-0.15801730751991272,-9.569623947143555,-3.0059814453125,0.7781982421875,-8.72802734375
18.8899999,-0.21547815203666687,-0.07422025501728058,-9.59835433959961,-3.8604736328125,-6.683349609375,-6.3629150390625
18.909999900000003,-0.24181437492370605,0.0694318488240242,-9.59596061706543,-0.3509521484375,-6.53076171875,-7.720947265625
18.929999900000002,-0.2801215946674347,0.14844051003456116,-9.59596061706543,0.6103515625,-2.1820068359375,-2.2735595703125
18.9499999,-0.33279404044151306,0.14844051003456116,-9.59835433959961,-4.2724609375,-2.4871826171875,1.3275146484375
18.9699999,-0.395043283700943,0.13407529890537262,-9.610325813293457,-7.7667236328125,-5.9814453125,-7.5836181640625
18.9899999,-0.45010992884635925,0.1412578970193863,-9.691728591918945,-5.3253173828125,-7.1258544921875,-12.298583984375
19.0099999,-0.49559974670410156,0.17477671802043915,-9.81143856048584,0.6103515625,-1.0223388671875,-1.5869140625
19.0299999,-0.5147533416748047,0.2801215946674347,-9.955090522766113,3.0364990234375,2.99072265625,1.5869140625
19.0499999,-0.5003881454467773,0.31124621629714966,-10.091560363769531,7.293701171875,-3.4942626953125,-1.4495849609375
19.0699999,-0.4668693244457245,0.3016694188117981,-10.139444351196289,7.659912109375,-2.3040771484375,-2.349853515625
19.089999900000002,-0.40940847992897034,0.3016694188117981,-10.127472877502441,4.8980712890625,3.1890869140625,-1.7242431640625
19.109999900000002,-0.35434186458587646,0.31842881441116333,-10.036493301391602,4.57763671875,5.5084228515625,4.0283203125
19.1299999,-0.3016694188117981,0.26575639843940735,-9.928754806518555,5.2490234375,-0.3662109375,9.918212890625
19.1499999,-0.2825157940387726,0.1604115068912506,-9.818621635437012,2.960205078125,-1.8768310546875,6.622314453125
19.1699999,-0.28969839215278625,-0.047884032130241394,-9.739612579345703,0.152587890625,3.2806396484375,2.410888671875
19.1899999,-0.31603461503982544,-0.26336219906806946,-9.730035781860352,-0.8697509765625,0.9765625,3.1890869140625
19.2099999,-0.35673606395721436,-0.3974374830722809,-9.6989107131958,-0.091552734375,0.30517578125,1.617431640625
19.2299999,-0.37828385829925537,-0.45010992884635925,-9.672574996948242,0.152587890625,0.1220703125,-0.1220703125
19.249999900000002,-0.3758896589279175,-0.3974374830722809,-9.677363395690918,-1.5106201171875,-2.3040771484375,-1.617431640625
19.269999900000002,-0.3519476354122162,-0.2825157940387726,-9.653421401977539,0.946044921875,0.6256103515625,-1.007080078125
19.2899999,-0.3232172429561615,-0.14844051003456116,-9.691728591918945,0.3204345703125,-1.190185546875,0.9918212890625
19.3099999,-0.3064578175544739,0.028730420395731926,-9.706093788146973,-2.25830078125,-1.2664794921875,-1.3580322265625
19.3299999,-0.31124621629714966,0.20350714027881622,-9.691728591918945,0.0762939453125,1.77001953125,-0.274658203125
19.3499999,-0.3423708379268646,0.3519476354122162,-9.670180320739746,1.0528564453125,-1.3580322265625,6.8817138671875
19.3699999,-0.3926490843296051,0.49799394607543945,-9.591172218322754,-1.4801025390625,-3.1585693359375,7.7362060546875
19.3899999,-0.44771572947502136,0.5746083855628967,-9.500192642211914,1.6937255859375,-2.62451171875,8.087158203125
19.409999900000003,-0.5219359993934631,0.5841852426528931,-9.433155059814453,4.6844482421875,-5.706787109375,11.6424560546875
19.429999900000002,-0.6105214357376099,0.5913678407669067,-9.387664794921875,0.06103515625,-5.0506591796875,10.5438232421875
19.4499999,-0.7374141216278076,0.7015010714530945,-9.457097053527832,-7.659912109375,-8.331298828125,6.1492919921875
19.4699999,-0.9385270476341248,0.9888052940368652,-9.63187313079834,-7.4310302734375,-9.82666015625,6.591796875
19.4899999,-1.2641384601593018,1.3910311460494995,-9.859322547912598,-7.0953369140625,-2.0904541015625,18.12744140625
19.5099999,-1.7046716213226318,1.9776105880737305,-10.046070098876953,-15.869140625,6.011962890625,18.341064453125
19.5299999,-2.2457611560821533,2.7509377002716064,-10.055646896362305,-34.8358154296875,8.9569091796875,10.498046875
19.5499999,-2.8419175148010254,3.7708675861358643,-9.797073364257812,-46.5087890625,11.7950439453125,16.6015625
19.5699999,-3.5051112174987793,4.929661273956299,-9.296685218811035,-41.2139892578125,9.5367431640625,43.975830078125
19.589999900000002,-4.244919776916504,6.1052141189575195,-8.798690795898438,-25.1617431640625,-9.5672607421875,70.343017578125
19.609999900000002,-5.099649429321289,7.189787864685059,-8.389283180236816,-9.033203125,-10.92529296875,71.8231201171875
19.6299999,-6.057330131530762,7.960720539093018,-8.135497093200684,-19.3634033203125,11.8408203125,89.6453857421875
19.6499999,-7.036558628082275,8.698134422302246,-7.8745293617248535,-44.5404052734375,20.263671875,108.1390380859375
19.6699999,-7.967903137207031,9.437943458557129,-7.524975776672363,-77.2857666015625,-3.0517578125,118.22509765625
19.6899999,-8.83699893951416,10.17296314239502,-6.995857238769531,-100.9368896484375,-30.6396484375,149.47509765625
19.7099999,-9.68933391571045,10.900800704956055,-6.476315498352051,-60.028076171875,-54.107666015625,195.12939453125
19.7299999,-10.615890502929688,11.240777015686035,-6.404489517211914,31.9366455078125,-90.14892578125,255.8746337890625
19.749999900000002,-11.662156105041504,11.0300874710083,-6.861782073974609,43.1365966796875,-94.1009521484375,300.1708984375
19.769999900000002,-12.830527305603027,10.034099578857422,-8.281543731689453,-53.4820556640625,-100.28076171875,318.2220458984375
19.7899999,-14.082694053649902,8.669404029846191,-10.41956615447998,-130.5999755859375,-113.3575439453125,318.511962890625
19.8099999,-15.334861755371094,7.189787864685059,-12.813767433166504,-69.732666015625,-99.12109375,335.02197265625
19.8299999,-16.531963348388672,5.566518783569336,-15.004462242126465,8.3770751953125,-90.545654296875,391.0369873046875
19.8499999,-17.49443244934082,3.9695863723754883,-16.59421157836914,12.7105712890625,-83.6639404296875,412.29248046875
19.8699999,-18.126501083374023,2.0159177780151367,-17.310077667236328,-18.768310546875,-49.49951171875,405.7159423828125
19.8899999,-18.313249588012695,-0.026336219161748886,-17.341203689575195,-11.0321044921875,-24.6124267578125,396.4080810546875
19.909999900000003,-18.009185791015625,-2.4181437492370605,-16.52238655090332,46.7987060546875,-10.772705078125,402.8472900390625
19.929999900000002,-17.142484664916992,-5.008669853210449,-14.872780799865723,87.9058837890625,0.8544921875,400.5584716796875
19.9499999,-15.796942710876465,-7.137115478515625,-13.333309173583984,84.503173828125,-49.4232177734375,322.1282958984375
19.9699999,-14.111424446105957,-8.439560890197754,-12.038045883178711,81.329345703125,-54.7027587890625,264.70947265625
19.9899999,-12.337321281433105,-8.83699893951416,-11.233593940734863,90.362548828125,24.47509765625,288.5284423828125
20.0099999,-10.666168212890625,-8.418013572692871,-10.843339920043945,70.159912109375,56.6558837890625,293.9453125
