# Time (seconds),Accel_X,Accel_Y,Accel_Z,Gyro_X,Gyro_Y,Gyro_Z
0.0099999,0.05267243832349777,-1.1324573755264282,10.462661743164062,-26.1688232421875,46.630859375,69.4427490234375
0.029999900000000003,0.40222588181495667,-0.9864110946655273,10.141838073730469,0.3814697265625,19.5770263671875,39.97802734375
0.0499999,0.751779317855835,-0.9888052940368652,9.674968719482422,-6.3934326171875,-1.9683837890625,34.088134765625
0.0699999,0.9840168952941895,-0.9481038451194763,9.320627212524414,-23.1170654296875,-8.1634521484375,31.1279296875
0.08999990000000001,1.1204863786697388,-0.8619126081466675,9.074024200439453,-8.7432861328125,-14.801025390625,25.726318359375
0.10999990000000001,1.1324573755264282,-0.8236053586006165,9.121908187866211,2.8228759765625,-11.138916015625,29.6478271484375
0.1299999,1.0965443849563599,-0.8259995579719543,9.344569206237793,-16.4947509765625,-13.36669921875,28.99169921875
0.14999990000000002,1.05105459690094,-0.9648633003234863,9.667786598205566,-35.6292724609375,-1.129150390625,21.1334228515625
0.1699999,0.9744400978088379,-1.1994950771331787,9.945513725280762,-20.904541015625,-1.8157958984375,15.80810546875
0.1899999,0.8978256583213806,-1.3096283674240112,10.067618370056152,21.697998046875,-0.579833984375,16.6015625
0.20999990000000002,0.8930372595787048,-1.3694833517074585,10.089165687561035,28.01513671875,14.09912109375,31.5399169921875
0.2299999,0.9289502501487732,-1.2521674633026123,9.832986831665039,12.115478515625,12.1612548828125,25.8331298828125
0.2499999,1.0630255937576294,-1.1659762859344482,9.44752025604248,-2.044677734375,-0.1373291015625,13.275146484375
0.2699999,1.2114660739898682,-1.1659762859344482,9.215282440185547,-3.387451171875,8.087158203125,4.39453125
0.28999990000000003,1.2832920551300049,-1.1659762859344482,8.99740982055664,24.47509765625,11.0626220703125,-6.5155029296875
0.3099999,1.237802267074585,-1.2258312702178955,9.05487060546875,32.0281982421875,5.584716796875,-14.404296875
0.3299999,1.1037269830703735,-1.2976573705673218,9.184157371520996,17.822265625,-2.86865234375,-19.378662109375
0.34999990000000003,0.8427590131759644,-1.1276689767837524,9.279925346374512,9.307861328125,-21.0723876953125,-33.050537109375
0.3699999,0.5746083855628967,-0.9265560507774353,9.354146003723145,15.0604248046875,-4.608154296875,-29.1595458984375
0.3899999,0.3447650372982025,-0.7398083209991455,9.361329078674316,23.0255126953125,22.7203369140625,-13.3056640625
0.40999990000000003,0.19393034279346466,-0.5339069962501526,9.35654067993164,24.5208740234375,34.8663330078125,-20.6451416015625
0.4299999,0.1628057211637497,-0.5410895943641663,9.48343276977539,9.0789794921875,26.0009765625,-24.3682861328125
0.4499999,0.20111294090747833,-0.7182605266571045,9.78989028930664,-6.2103271484375,7.62939453125,-21.270751953125
0.4699999,0.24899697303771973,-0.9911994934082031,10.163386344909668,6.011962890625,-0.885009765625,-28.9764404296875
0.4899999,0.22026655077934265,-0.993593692779541,10.560823440551758,23.13232421875,16.5863037109375,-45.8526611328125
0.5099999,0.19153612852096558,-0.8954314589500427,10.90558910369873,25.054931640625,38.5894775390625,-30.0445556640625
0.5299999,0.1867477297782898,-0.6607996821403503,11.23598861694336,-0.2899169921875,46.4935302734375,4.302978515625
0.5499999,0.31603461503982544,-0.44771572947502136,11.678915977478027,-14.1754150390625,45.59326171875,0.06103515625
0.5699999,0.5171475410461426,-0.3758896589279175,12.174515724182129,8.4075927734375,20.3857421875,-21.8963623046875
0.5899998999999999,0.7038952708244324,-0.26815059781074524,12.322956085205078,36.0260009765625,-5.2490234375,-22.430419921875
0.6099998999999999,0.8547300100326538,-0.3280056416988373,12.011710166931152,26.67236328125,4.425048828125,12.3748779296875
0.6299999,0.9145850539207458,-0.3256114423274994,11.42752456665039,-5.06591796875,29.4342041015625,18.9361572265625
0.6499999,0.9433154463768005,-0.40462008118629456,10.563218116760254,-2.8533935546875,27.7252197265625,-1.8768310546875
0.6699999,0.9959878921508789,-0.507570743560791,10.002974510192871,7.110595703125,21.6064453125,-0.091552734375
0.6899999,1.091755986213684,-0.5363011956214905,9.801861763000488,3.6163330078125,25.45166015625,14.95361328125
0.7099999,1.170764684677124,-0.49320554733276367,9.639056205749512,6.011962890625,5.1727294921875,9.27734375
0.7299998999999999,1.2689268589019775,-0.6607996821403503,9.5624418258667,-11.16943359375,-9.58251953125,-0.8087158203125
0.7499998999999999,1.2306196689605713,-0.7637503147125244,9.442731857299805,-39.24560546875,-3.2196044921875,-12.542724609375
0.7699999,1.0869675874710083,-0.871489405632019,9.191340446472168,-25.0701904296875,12.5732421875,-13.763427734375
0.7899999,0.8307880163192749,-0.8738836050033569,9.026140213012695,-5.279541015625,27.099609375,1.0528564453125
0.8099999,0.4908113479614258,-0.6560112833976746,9.028534889221191,-11.8560791015625,22.186279296875,-2.685546875
0.8299999,0.15801730751991272,-0.4572925269603729,9.17936897277832,-28.80859375,4.547119140625,-2.50244140625
0.8499998999999999,-0.1173158809542656,-0.2968810200691223,9.457097053527832,-33.8897705078125,-8.6669921875,9.1400146484375
0.8699998999999999,-0.3447650372982025,-0.09816227108240128,9.75637149810791,-35.736083984375,-9.033203125,9.6435546875
0.8899999,-0.42616790533065796,-0.15322890877723694,9.93354320526123,-24.3988037109375,-9.7198486328125,18.06640625
0.9099999,-0.3974374830722809,-0.3519476354122162,9.962273597717285,-26.763916015625,-12.420654296875,31.7535400390625
0.9299999,-0.27054479718208313,-0.7230489253997803,9.684545516967773,-47.637939453125,-11.0015869140625,31.43310546875
0.9499999,-0.09816227108240128,-1.2258312702178955,9.30386734008789,-87.95166015625,5.6915283203125,19.5770263671875
0.9699998999999999,0.0933738648891449,-1.699883222579956,8.916007041931152,-114.4561767578125,20.2789306640625,13.4429931640625
0.9899998999999999,0.22744916379451752,-2.008735179901123,8.611943244934082,-94.8333740234375,15.7470703125,8.880615234375
1.0099999,0.3711012601852417,-2.1356279850006104,8.542511940002441,-68.756103515625,16.7388916015625,12.1612548828125
1.0299999,0.47884035110473633,-2.2194249629974365,8.643068313598633,-48.3551025390625,17.425537109375,9.2315673828125
1.0499999,0.5817909836769104,-2.38462495803833,8.664615631103516,-26.2603759765625,7.2021484375,-1.52587890625
1.0699999,0.646434485912323,-2.5498247146606445,8.755595207214355,-25.054931640625,7.4310302734375,-15.3961181640625
1.0899999,0.6344634294509888,-2.715024709701538,8.944737434387207,-33.2794189453125,21.8658447265625,-20.263671875
1.1099999,0.5626373887062073,-2.7700912952423096,9.17697525024414,-22.369384765625,14.068603515625,-3.326416015625
1.1299999,0.3926490843296051,-2.779668092727661,9.560047149658203,-18.6309814453125,2.410888671875,8.1329345703125
1.1499999,0.20111294090747833,-2.9041666984558105,9.813833236694336,-16.6015625,-2.0599365234375,7.2784423828125
1.1699998999999999,-0.009576806798577309,-3.1435868740081787,9.919178009033203,-25.0701904296875,-1.5869140625,2.349853515625
1.1899998999999999,-0.17717093229293823,-3.442862033843994,9.821015357971191,-22.03369140625,-1.4495849609375,3.631591796875
1.2099999,-0.31364041566848755,-3.869029998779297,9.651026725769043,-3.6163330078125,-11.41357421875,5.9356689453125
1.2299999,-0.42377370595932007,-4.309563159942627,9.442731857299805,13.153076171875,-18.035888671875,-2.349853515625
1.2499999,-0.5674257874488831,-4.611232280731201,9.313444137573242,21.240234375,-11.71875,-25.604248046875
1.2699999,-0.751779317855835,-4.663905143737793,9.138668060302734,29.3121337890625,-7.110595703125,-23.5748291015625
1.2899999,-0.8858546018600464,-4.489128112792969,9.042900085449219,24.6124267578125,3.47900390625,-0.244140625
1.3099999,-0.9911994934082031,-3.993528366088867,8.992621421813965,22.5677490234375,11.65771484375,-5.4779052734375
1.3299999,-1.0319008827209473,-3.5936968326568604,8.978256225585938,24.7955322265625,-0.54931640625,-17.63916015625
1.3499999,-1.01753568649292,-3.222595453262329,9.040505409240723,23.9105224609375,1.5716552734375,-15.6707763671875
1.3699999,-1.072602391242981,-2.6647465229034424,8.990227699279785,29.876708984375,7.62939453125,-19.744873046875
1.3899999,-1.0247182846069336,-2.389413356781006,9.028534889221191,20.751953125,17.9901123046875,2.6397705078125
1.4099999,-0.9265560507774353,-2.2194249629974365,8.944737434387207,10.92529296875,12.603759765625,6.9580078125
1.4299998999999999,-0.7637503147125244,-2.3080103397369385,9.040505409240723,4.669189453125,1.6021728515625,-17.425537109375
1.4499999,-0.6416460275650024,-2.5546131134033203,9.186552047729492,1.5106201171875,-0.1068115234375,-27.1148681640625
1.4699999,-0.5937620401382446,-2.6791117191314697,9.44991397857666,10.5133056640625,7.62939453125,-18.37158203125
1.4899999,-0.6153098344802856,-2.7006595134735107,9.749189376831055,19.0582275390625,19.4244384765625,-5.79833984375
1.5099999,-0.6440402865409851,-2.6815059185028076,9.979032516479492,18.3258056640625,12.75634765625,-9.7808837890625
1.5299999,-0.5722141861915588,-2.8131868839263916,10.041281700134277,9.063720703125,3.0059814453125,-21.942138671875
1.5499999,-0.4884171485900879,-2.8443117141723633,9.931148529052734,5.889892578125,7.9498291015625,-36.3922119140625
1.5699999,-0.3878606855869293,-2.7293899059295654,9.732429504394531,13.916015625,21.7437744140625,-43.45703125
1.5899999,-0.36152446269989014,-2.425326347351074,9.579200744628906,26.0162353515625,20.751953125,-42.0684814453125
1.6099999,-0.40940847992897034,-1.920149803161621,9.469067573547363,27.0538330078125,9.8724365234375,-41.900634765625
1.6299999,-0.545877993106842,-1.4987702369689941,9.583989143371582,12.7105712890625,16.3116455078125,-36.651611328125
1.6499999,-0.6967126727104187,-1.3694833517074585,9.706093788146973,10.406494140625,23.0712890625,-23.345947265625
1.6699999,-0.8595184087753296,-1.4772224426269531,9.93593692779541,14.892578125,10.8184814453125,-31.3262939453125
1.6899998999999999,-1.0869675874710083,-1.7860745191574097,10.180145263671875,-14.556884765625,-1.9989013671875,-58.41064453125
1.7099999,-1.2737152576446533,-2.4157495498657227,10.292673110961914,-40.130615234375,-14.678955078125,-52.3834228515625
1.7299999,-1.6400281190872192,-2.7293899059295654,10.350133895874023,-71.7620849609375,-4.2572021484375,-58.563232421875
1.7499999,-1.965639591217041,-3.1052796840667725,10.146626472473145,-31.7230224609375,23.7884521484375,-43.7774658203125
1.7699999,-2.2649147510528564,-3.2992098331451416,10.249577522277832,-25.57373046875,59.6466064453125,-12.1917724609375
1.7899999,-2.4372973442077637,-3.2992098331451416,10.445901870727539,-46.1578369140625,45.8984375,-8.30078125
1.8099999,-2.410961151123047,-3.354276657104492,10.824186325073242,-48.370361328125,8.9111328125,-3.9825439453125
1.8299999,-2.2002713680267334,-3.4524388313293457,11.228805541992188,-45.2880859375,-9.918212890625,3.9520263671875
1.8499999,-1.8531121015548706,-3.641580820083618,11.221623420715332,-41.2139892578125,-30.2734375,-1.7852783203125
1.8699999,-1.5466543436050415,-3.778050184249878,10.922348022460938,-26.7791748046875,-41.107177734375,-8.7738037109375
1.8899999,-1.2689268589019775,-3.9408559799194336,10.448296546936035,-16.05224609375,-29.1748046875,1.3275146484375
1.9099999,-1.158793568611145,-3.8307228088378906,9.907206535339355,-29.0069580078125,-40.130615234375,1.9378662109375
1.9299998999999999,-1.0869675874710083,-3.7158010005950928,9.490615844726562,-38.2080078125,-48.858642578125,5.1727294921875
1.9499999,-1.0223240852355957,-3.603273630142212,9.097966194152832,-28.4423828125,-40.0543212890625,7.5225830078125
1.9699999,-0.9433154463768005,-3.598485231399536,8.975862503051758,-6.2255859375,-20.0958251953125,2.6702880859375
1.9899999,-0.8858546018600464,-3.670311212539673,9.07641887664795,19.8516845703125,-21.270751953125,4.5623779296875
2.0099999,-0.8331822156906128,-3.7828385829925537,9.294290542602539,27.5726318359375,-41.8701171875,11.2762451171875
2.0299999,-0.8068459630012512,-3.9600095748901367,9.734824180603027,9.5672607421875,-35.9649658203125,7.0953369140625
2.0499999,-0.8044517636299133,-3.998316764831543,9.981427192687988,5.7220458984375,-27.374267578125,-5.950927734375
2.0699999,-0.7613561153411865,-3.9600095748901367,10.132261276245117,10.6353759765625,-16.90673828125,-7.843017578125
2.0899999,-0.6416460275650024,-3.8283286094665527,10.15141487121582,4.6234130859375,-12.298583984375,4.547119140625
2.1099999,-0.47165772318840027,-3.598485231399536,10.046070098876953,1.03759765625,-19.6380615234375,6.53076171875
2.1299999,-0.26575639843940735,-3.4117374420166016,9.763554573059082,2.532958984375,-30.4107666015625,1.678466796875
2.1499999,-0.028730420395731926,-3.3877954483032227,9.418789863586426,-6.011962890625,-22.76611328125,5.279541015625
2.1699999,0.17956513166427612,-3.406949043273926,9.05247688293457,-8.9569091796875,-12.20703125,-2.3193359375
2.1899999,0.31603461503982544,-3.471592426300049,8.700529098510742,13.0462646484375,-14.0228271484375,-19.195556640625
2.2099999,0.33039984107017517,-3.3638534545898438,8.406042098999023,29.937744140625,0.1373291015625,-35.7513427734375
2.2299999,0.33039984107017517,-3.397372245788574,8.348581314086914,16.448974609375,30.33447265625,-21.759033203125
2.2499999,0.24181437492370605,-3.2848446369171143,8.513781547546387,16.8914794921875,33.843994140625,-20.32470703125
2.2699999,0.1604115068912506,-3.1914708614349365,8.757989883422852,50.7659912109375,12.939453125,-33.935546875
2.2899999,0.13168109953403473,-3.1699230670928955,9.08838939666748,39.794921875,0.732421875,-20.4315185546875
2.3099999,0.11971008777618408,-3.0597896575927734,9.279925346374512,10.1470947265625,9.552001953125,-11.2152099609375
2.3299999,0.16519992053508759,-2.999934673309326,9.344569206237793,-9.796142578125,8.97216796875,-11.444091796875
2.3499999,0.24420857429504395,-2.935291290283203,9.133879661560059,-13.427734375,-2.4566650390625,-17.7001953125
2.3699999,0.40701428055763245,-2.894589900970459,8.990227699279785,-26.397705078125,19.6075439453125,-19.3328857421875
2.3899999,0.5410895943641663,-2.87064790725708,8.69095230102539,-29.6783447265625,33.111572265625,-13.5498046875
2.4099999,0.6631938815116882,-3.023876667022705,8.485051155090332,-23.01025390625,20.8740234375,-17.547607421875
2.4299999,0.7398083209991455,-3.308786630630493,8.547300338745117,-25.054931640625,16.4031982421875,-26.641845703125
2.4499999,0.6775590777397156,-3.4811692237854004,8.489839553833008,-10.43701171875,11.8865966796875,-34.0423583984375
2.4699999,0.5746083855628967,-3.6320040225982666,8.78193187713623,-24.2462158203125,30.2886962890625,-16.05224609375
2.4899999,0.3687070608139038,-3.5386300086975098,8.925583839416504,-25.3753662109375,31.7535400390625,-6.744384765625
2.5099999,0.17477671802043915,-3.529053211212158,9.301473617553711,-16.7694091796875,15.2740478515625,-5.9814453125
2.5299999,0,-3.555389642715454,9.703699111938477,-3.509521484375,2.7313232421875,-9.27734375
2.5499999,-0.10295066982507706,-3.5865142345428467,10.002974510192871,31.8145751953125,-3.8909912109375,-11.3677978515625
2.5699999,-0.2059013396501541,-3.488351821899414,10.201693534851074,35.4461669921875,-12.0697021484375,-10.284423828125
2.5899999,-0.21787235140800476,-3.3901896476745605,10.165780067443848,27.587890625,-18.157958984375,-0.7476806640625
2.6099999,-0.17238251864910126,-3.2585084438323975,10.050858497619629,28.4881591796875,-5.4779052734375,-4.2724609375
2.6299999,-0.06224924325942993,-3.248931646347046,9.80904483795166,38.665771484375,-0.1983642578125,-9.2315673828125
2.6499999,0.08858546614646912,-3.203441858291626,9.593565940856934,32.9132080078125,3.5858154296875,-14.007568359375
2.6699999,0.2825157940387726,-3.2154128551483154,9.423578262329102,15.5792236328125,7.8887939453125,-9.8876953125
2.6899999,0.4572925269603729,-3.1866824626922607,9.284713745117188,-0.48828125,-2.74658203125,-8.8043212890625
2.7099999,0.6488286852836609,-3.251325845718384,9.193734169006348,-16.05224609375,-9.2010498046875,-10.8184814453125
2.7299999,0.828393816947937,-3.375824451446533,9.01895809173584,-15.1824951171875,-12.6800537109375,-13.397216796875
2.7499999,0.9481038451194763,-3.469198226928711,8.841787338256836,1.7852783203125,-5.8135986328125,-18.9208984375
2.7699999,1.0127472877502441,-3.4739866256713867,8.664615631103516,22.2625732421875,4.913330078125,-14.7247314453125
2.7899999,0.9864110946655273,-3.3925838470458984,8.552088737487793,30.70068359375,9.979248046875,-8.3465576171875
2.8099999,0.9313444495201111,-3.272873640060425,8.62630844116211,19.8822021484375,11.0626220703125,-6.8206787109375
2.8299999,0.8954314589500427,-3.181894063949585,8.75080680847168,12.176513671875,11.0321044921875,-11.1236572265625
2.8499999,0.8643068075180054,-3.1028854846954346,8.999804496765137,13.275146484375,8.0108642578125,-18.06640625
2.8699999,0.8547300100326538,-3.0166940689086914,9.229647636413574,14.739990234375,3.8604736328125,-18.310546875
2.8899999,0.849941611289978,-2.9233202934265137,9.425971984863281,9.9639892578125,3.7841796875,-11.9476318359375
2.9099999,0.8355764150619507,-2.846705913543701,9.545681953430176,8.758544921875,5.6610107421875,-10.4217529296875
2.9299999,0.8403648138046265,-2.8107926845550537,9.564835548400879,15.31982421875,14.1448974609375,-15.13671875
2.9499999,0.8068459630012512,-2.7772738933563232,9.583989143371582,13.702392578125,14.58740234375,-16.3421630859375
2.9699999,0.7445967197418213,-2.829946517944336,9.725247383117676,5.92041015625,8.4228515625,-11.383056640625
2.9899999,0.5817909836769104,-2.736572504043579,10.036493301391602,18.0511474609375,3.448486328125,-13.3514404296875
3.0099999,0.40222588181495667,-2.537853717803955,10.457873344421387,29.0374755859375,3.0670166015625,-11.90185546875
3.0299999,0.2298433631658554,-2.2194249629974365,10.824186325073242,14.46533203125,-7.904052734375,4.5623779296875
3.0499999,0.1843535304069519,-1.9393033981323242,10.94150161743164,-10.4827880859375,-26.153564453125,16.2353515625
3.0699999,0.26575639843940735,-1.8052281141281128,10.632649421691895,-13.7939453125,-36.62109375,10.5133056640625
3.0899999,0.4884171485900879,-2.0039467811584473,10.11550235748291,-4.2266845703125,-27.7862548828125,-4.486083984375
3.1099999,0.6631938815116882,-2.1116859912872314,9.555258750915527,-3.662109375,-13.85498046875,-23.3612060546875
3.1299999,0.8140285611152649,-2.183511972427368,9.064447402954102,6.866455078125,-7.8277587890625,-12.2528076171875
3.1499999,0.8331822156906128,-2.056619167327881,8.853757858276367,11.0321044921875,-0.0762939453125,7.8887939453125
3.1699999,0.8307880163192749,-2.0231003761291504,8.848969459533691,4.2877197265625,9.3536376953125,12.969970703125
3.1899999,0.7589619159698486,-2.006340980529785,9.042900085449219,-9.246826171875,12.3443603515625,-1.9073486328125
3.2099999,0.6703764796257019,-2.126051187515259,9.375694274902344,-5.2032470703125,9.9334716796875,-0.8087158203125
3.2299999,0.5506663918495178,-2.2385785579681396,9.888052940368652,2.4566650390625,14.0380859375,9.735107421875
3.2499999,0.38307225704193115,-2.169146776199341,10.295066833496094,-8.1787109375,2.2430419921875,6.2713623046875
3.2699999,0.24181437492370605,-2.1811177730560303,10.735600471496582,-30.4718017578125,-14.4805908203125,7.3699951171875
3.2899999,0.14604631066322327,-2.212242364883423,10.92953109741211,-41.9921875,-20.1873779296875,13.1988525390625
3.3099999,0.09576806426048279,-2.3319525718688965,10.948684692382812,-39.5050048828125,-23.13232421875,11.5814208984375
3.3299999000000002,0.0933738648891449,-2.5282769203186035,10.709263801574707,-46.9512939453125,-15.960693359375,6.7138671875
3.3499999,0.1867477297782898,-2.7724854946136475,10.35252857208252,-58.074951171875,-7.01904296875,9.124755859375
3.3699999,0.2537853717803955,-2.9544448852539062,9.90241813659668,-54.3212890625,-13.5650634765625,11.138916015625
3.3899999,0.40462008118629456,-3.268085241317749,9.495404243469238,-45.1812744140625,-15.899658203125,14.434814453125
3.4099999,0.5123591423034668,-3.5242648124694824,9.169792175292969,-41.717529296875,-8.026123046875,5.950927734375
3.4299999,0.6105214357376099,-3.734954595565796,8.954314231872559,-35.308837890625,2.9754638671875,-3.936767578125
3.4499999,0.6943184733390808,-3.9887399673461914,8.87291145324707,-41.9158935546875,5.9661865234375,5.5084228515625
3.4699999,0.7613561153411865,-4.10366153717041,8.995016098022461,-48.4161376953125,0.30517578125,4.5928955078125
3.4899999,0.8451532125473022,-4.278438568115234,9.172186851501465,-28.0303955078125,-10.6658935546875,-4.7149658203125
3.5099999,0.9313444495201111,-4.501099109649658,9.332598686218262,-14.862060546875,-25.9857177734375,-8.8958740234375
3.5299999,0.9840168952941895,-4.608838081359863,9.368511199951172,-22.88818359375,-32.8826904296875,-17.51708984375
3.5499999,1.0031704902648926,-4.565742492675781,9.23682975769043,-20.4010009765625,-28.7628173828125,-21.7132568359375
3.5699999,0.9983820915222168,-4.46518611907959,8.959102630615234,-10.25390625,-27.0843505859375,-12.63427734375
3.5899999,0.9840168952941895,-4.266467571258545,8.760383605957031,-6.3629150390625,-21.8353271484375,-11.199951171875
3.6099999,0.9768342971801758,-4.067748546600342,8.523358345031738,6.866455078125,-20.8892822265625,-14.9383544921875
3.6299999,0.9792284965515137,-3.8953661918640137,8.38688850402832,14.70947265625,-20.1873779296875,-8.9263916015625
3.6499999,1.0127472877502441,-3.8091750144958496,8.26478385925293,5.1422119140625,-20.3094482421875,1.556396484375
3.6699999,1.0606313943862915,-3.73016619682312,8.197746276855469,-6.9580078125,-19.9127197265625,-2.593994140625
3.6899999,1.1635819673538208,-3.7612907886505127,8.109161376953125,-4.730224609375,-20.8587646484375,-5.706787109375
3.7099999,1.2737152576446533,-3.8163576126098633,8.063671112060547,1.708984375,-20.111083984375,-3.143310546875
3.7299999,1.3766659498214722,-3.7828385829925537,8.032546997070312,6.4544677734375,-11.322021484375,-2.2735595703125
3.7499999,1.4724340438842773,-3.737348794937134,7.960720539093018,13.7939453125,-5.55419921875,1.434326171875
3.7699999,1.5729905366897583,-3.7612907886505127,7.886500358581543,12.6800537109375,-1.4495849609375,5.0506591796875
3.7899999,1.680729627609253,-3.8738183975219727,7.8098859786987305,5.859375,0.91552734375,-1.678466796875
3.8099999,1.7573440074920654,-4.0078935623168945,7.759607791900635,0.5950927734375,3.8604736328125,-12.8021240234375
3.8299999000000002,1.7860745191574097,-4.1611223220825195,7.790732383728027,-1.4495849609375,7.293701171875,-12.51220703125
3.8499999,1.7477672100067139,-4.228160381317139,7.908048152923584,-1.8768310546875,9.5672607421875,-7.8582763671875
3.8699999,1.656787633895874,-4.24970817565918,8.106766700744629,0.3662109375,12.2528076171875,-8.1939697265625
3.8899999,1.5418659448623657,-4.285621166229248,8.403648376464844,0.3662109375,14.9383544921875,-12.420654296875
3.9099999,1.4389152526855469,-4.335899353027344,8.796297073364258,2.777099609375,13.1378173828125,-15.106201171875
3.9299999,1.3287819623947144,-4.350264549255371,9.100360870361328,8.9874267578125,3.3111572265625,-16.387939453125
3.9499999,1.2641384601593018,-4.259284973144531,9.476250648498535,-0.5035400390625,8.2244873046875,-18.6614990234375
3.9699999,1.2306196689605713,-4.108449935913086,9.603142738342285,-5.43212890625,6.378173828125,-13.580322265625
3.9899999,1.3215993642807007,-3.9600095748901367,9.624691009521484,-5.9814453125,2.593994140625,-7.0343017578125
4.0099999,1.4772224426269531,-3.8762125968933105,9.514557838439941,-13.3056640625,-2.471923828125,-10.986328125
4.029999900000001,1.6735470294952393,-3.9264907836914062,9.284713745117188,-22.186279296875,-16.693115234375,-20.20263671875
4.0499999,1.8411411046981812,-4.05817174911499,9.045293807983398,-25.2838134765625,-22.8424072265625,-23.468017578125
4.069999900000001,1.9345149993896484,-4.266467571258545,8.801085472106934,-20.965576171875,-22.430419921875,-21.0418701171875
4.0899999000000005,1.9297266006469727,-4.517858505249023,8.69095230102539,-15.4266357421875,-20.93505859375,-20.7061767578125
4.1099999,1.8914192914962769,-4.733336925506592,8.736441612243652,-14.1448974609375,-17.1356201171875,-23.0712890625
4.1299999000000005,1.7980455160140991,-4.855441093444824,8.820239067077637,-8.514404296875,-30.57861328125,-24.9481201171875
4.1499999,1.7573440074920654,-4.865017890930176,8.853757858276367,-5.4779052734375,-31.1126708984375,-17.4713134765625
4.1699999000000005,1.764526605606079,-4.7620673179626465,8.741230010986328,-1.6632080078125,-15.380859375,-11.16943359375
4.1899999,1.8507179021835327,-4.637568473815918,8.463502883911133,6.9580078125,-4.1656494140625,-10.528564453125
4.209999900000001,1.9847931861877441,-4.546588897705078,8.226476669311523,9.2315673828125,0.5035400390625,-4.4097900390625
4.2299999,2.099714994430542,-4.422090530395508,8.042123794555664,4.1656494140625,-2.1209716796875,-0.6561279296875
4.249999900000001,2.1954829692840576,-4.352658748626709,7.9415669441223145,-1.4495849609375,-1.800537109375,6.28662109375
4.2699999,2.2385785579681396,-4.307168960571289,7.893682956695557,-8.2550048828125,1.2969970703125,9.6588134765625
4.289999900000001,2.276885747909546,-4.371812343597412,7.850587368011475,-10.955810546875,1.8157958984375,8.4686279296875
4.3099999,2.276885747909546,-4.438849925994873,7.915230751037598,-2.13623046875,4.45556640625,4.2266845703125
4.329999900000001,2.2194249629974365,-4.41969633102417,7.9846625328063965,7.1563720703125,0.42724609375,0.9002685546875
4.3499999,2.121262788772583,-4.369418144226074,8.128314971923828,5.6610107421875,-3.8299560546875,10.25390625
4.369999900000001,2.0015525817871094,-4.316745758056641,8.26478385925293,4.5013427734375,-3.6468505859375,9.3841552734375
4.3899999,1.889025092124939,-4.347870349884033,8.398859977722168,7.720947265625,-0.457763671875,-2.685546875
4.409999900000001,1.8363527059555054,-4.412513732910156,8.588001251220703,7.2479248046875,5.55419921875,-13.458251953125
4.4299999,1.8076223134994507,-4.32871675491333,8.777143478393555,7.476806640625,4.82177734375,-14.83154296875
4.449999900000001,1.8411411046981812,-4.132391929626465,8.975862503051758,6.8206787109375,-4.9591064453125,-5.4931640625
4.4699999,1.8579005002975464,-3.840299606323242,9.100360870361328,1.129150390625,-5.5389404296875,-6.927490234375
4.489999900000001,1.9488801956176758,-3.6128504276275635,9.20091724395752,-3.2501220703125,-0.335693359375,-6.04248046875
4.5099999,2.0398597717285156,-3.5027170181274414,9.253589630126953,-3.173828125,0.8697509765625,-3.021240234375
4.529999900000001,2.145204782485962,-3.490746021270752,9.232041358947754,6.8511962890625,-4.21142578125,-3.814697265625
4.5499999,2.2697031497955322,-3.4572272300720215,9.184157371520996,15.2130126953125,4.7454833984375,-5.43212890625
4.569999900000001,2.343923568725586,-3.3854012489318848,9.107542991638184,12.237548828125,13.9617919921875,-4.6844482421875
4.5899999000000005,2.3774423599243164,-3.359065055847168,9.083600997924805,7.3089599609375,11.3372802734375,1.220703125
4.609999900000001,2.3582887649536133,-3.3063924312591553,9.215282440185547,5.1727294921875,12.603759765625,0.396728515625
4.6299999000000005,2.315192937850952,-3.318363666534424,9.390059471130371,12.1307373046875,15.350341796875,-2.44140625
4.6499999,2.252943754196167,-3.3303346633911133,9.57201862335205,11.41357421875,15.0909423828125,-1.922607421875
4.6699999000000005,2.183511972427368,-3.222595453262329,9.560047149658203,5.5389404296875,10.9710693359375,-4.302978515625
4.6899999,2.1499931812286377,-3.1196448802948,9.466673851013184,8.5906982421875,19.1192626953125,3.1585693359375
4.709999900000001,2.123656988143921,-3.1675288677215576,9.32302188873291,6.866455078125,26.1688232421875,8.7432861328125
4.7299999,2.0590133666992188,-3.179499864578247,9.208099365234375,20.3399658203125,25.45166015625,-3.0517578125
4.749999900000001,2.0183119773864746,-3.2752678394317627,9.339780807495117,24.0631103515625,36.68212890625,-7.62939453125
4.7699999,1.9081788063049316,-3.181894063949585,9.423578262329102,20.3857421875,25.5279541015625,-1.64794921875
4.789999900000001,1.8100165128707886,-3.026270866394043,9.624691009521484,10.528564453125,12.939453125,5.9967041015625
4.8099999,1.7286136150360107,-2.8610711097717285,9.749189376831055,-1.2359619140625,11.4288330078125,6.6070556640625
4.829999900000001,1.6663644313812256,-2.784456491470337,9.86889934539795,-9.185791015625,8.4686279296875,2.9449462890625
4.8499999,1.6519991159439087,-2.851494312286377,9.99100399017334,-9.3994140625,2.8228759765625,6.103515625
4.869999900000001,1.6639702320098877,-2.985569477081299,10.110713958740234,-0.640869140625,-4.2266845703125,3.2958984375
4.8899999,1.6927006244659424,-3.136404275894165,10.18493366241455,6.2408447265625,-7.965087890625,-4.974365234375
4.909999900000001,1.7549498081207275,-3.3303346633911133,10.101137161254883,4.3792724609375,-11.077880859375,-7.4310302734375
4.9299999,1.8195933103561401,-3.4572272300720215,9.947908401489258,-2.3651123046875,-9.6588134765625,-10.6201171875
4.949999900000001,1.8626888990402222,-3.4955344200134277,9.643844604492188,-2.50244140625,-10.4827880859375,-17.059326171875
4.9699999,1.8986018896102905,-3.56017804145813,9.404424667358398,-5.9967041015625,-10.3302001953125,-15.1214599609375
4.989999900000001,1.900996208190918,-3.5721490383148193,9.17936897277832,-7.9345703125,-12.542724609375,-18.7530517578125
5.0099999,1.900996208190918,-3.6391866207122803,8.975862503051758,-12.1307373046875,-15.4876708984375,-21.6217041015625
5.029999900000001,1.920149803161621,-3.7828385829925537,8.738836288452148,-16.7388916015625,-11.6119384765625,-20.7672119140625
5.0499999,1.944091796875,-3.936067581176758,8.396465301513672,-10.9710693359375,2.410888671875,-25.2532958984375
5.069999900000001,1.9847931861877441,-4.0964789390563965,8.11634349822998,-6.9427490234375,19.3328857421875,-34.60693359375
5.0899999000000005,2.0159177780151367,-4.189853191375732,7.953537940979004,-9.4451904296875,19.59228515625,-40.0543212890625
5.109999900000001,2.013523578643799,-4.125209331512451,7.972691535949707,-15.899658203125,10.6353759765625,-42.54150390625
5.1299999000000005,1.9608511924743652,-3.9600095748901367,8.166622161865234,-21.1181640625,8.880615234375,-37.7349853515625
5.1499999,1.7980455160140991,-3.7181951999664307,8.49941635131836,-17.913818359375,16.6473388671875,-34.8663330078125
5.1699999000000005,1.5825673341751099,-3.555389642715454,9.002198219299316,-8.7432861328125,25.177001953125,-30.0445556640625
5.1899999,1.3287819623947144,-3.3877954483032227,9.531316757202148,-1.708984375,18.3563232421875,-29.144287109375
5.209999900000001,1.0845733880996704,-3.2130186557769775,9.859322547912598,-4.119873046875,12.2222900390625,-24.5208740234375
5.2299999,0.993593692779541,-3.098097085952759,10.077195167541504,-18.2952880859375,28.3355712890625,-7.75146484375
5.249999900000001,0.9864110946655273,-2.9664158821105957,9.873687744140625,-21.66748046875,24.35302734375,-2.44140625
5.2699999,1.0797849893569946,-2.9688100814819336,9.560047149658203,-10.406494140625,9.8114013671875,-6.744384765625
5.289999900000001,1.2282254695892334,-3.0621838569641113,9.244012832641602,-13.763427734375,17.5933837890625,-8.087158203125
5.3099999,1.3192051649093628,-3.2297780513763428,8.939949035644531,-22.186279296875,16.632080078125,-6.9427490234375
5.329999900000001,1.3192051649093628,-3.44765043258667,8.829815864562988,-32.1044921875,9.9334716796875,-5.18798828125
5.3499999,1.2186486721038818,-3.7253777980804443,8.887276649475098,-29.388427734375,9.857177734375,-2.4871826171875
5.369999900000001,1.113303780555725,-4.07014274597168,9.047688484191895,-9.368896484375,18.2037353515625,-1.312255859375
5.3899999,1.0031704902648926,-4.3622355461120605,9.129091262817383,5.401611328125,22.7813720703125,-11.871337890625
5.409999900000001,0.9888052940368652,-4.508281707763672,9.08838939666748,-5.035400390625,21.575927734375,-20.050048828125
5.4299999,1.036689281463623,-4.49870491027832,8.942343711853027,-24.5208740234375,18.6614990234375,-12.786865234375
5.449999900000001,1.1228805780410767,-4.37420654296875,8.674192428588867,-20.7672119140625,12.115478515625,-7.2174072265625
5.4699999,1.2210428714752197,-4.2975921630859375,8.528146743774414,-12.1307373046875,12.908935546875,-5.55419921875
5.489999900000001,1.2689268589019775,-4.266467571258545,8.40843677520752,-7.2021484375,12.8631591796875,-10.894775390625
5.5099999,1.316810965538025,-4.364629745483398,8.38688850402832,0.1220703125,15.9149169921875,-4.9591064453125
5.529999900000001,1.3527239561080933,-4.584896087646484,8.549694061279297,-7.080078125,18.6004638671875,5.43212890625
5.5499999,1.4101848602294922,-4.8482584953308105,8.779537200927734,-15.655517578125,9.33837890625,1.40380859375
5.569999900000001,1.4867992401123047,-5.183446884155273,9.078812599182129,-12.054443359375,0.152587890625,-5.5694580078125
5.5899999000000005,1.5418659448623657,-5.439626216888428,9.294290542602539,0.0762939453125,-1.9989013671875,-8.2244873046875
5.609999900000001,1.5418659448623657,-5.549759387969971,9.35654067993164,6.2408447265625,-2.3651123046875,-6.011962890625
5.6299999000000005,1.5131354331970215,-5.578489780426025,9.289502143859863,2.2735595703125,-6.591796875,-1.2969970703125
5.6499999,1.4676456451416016,-5.530605792999268,9.071630477905273,1.2359619140625,-13.671875,-3.631591796875
5.6699999000000005,1.4269442558288574,-5.446808815002441,8.853757858276367,3.509521484375,-15.8843994140625,-7.476806640625
5.6899999,1.3934253454208374,-5.353435039520264,8.640673637390137,3.662109375,-17.059326171875,-4.638671875
5.709999900000001,1.357512354850769,-5.228936672210693,8.501810073852539,6.744384765625,-19.53125,-2.99072265625
5.7299999,1.3527239561080933,-5.125985622406006,8.463502883911133,8.3770751953125,-20.782470703125,-4.0283203125
5.749999900000001,1.3479355573654175,-4.994304656982422,8.427590370178223,3.7078857421875,-25.9552001953125,-6.53076171875
5.7699999,1.3479355573654175,-4.836287498474121,8.401253700256348,-6.7901611328125,-23.406982421875,-3.90625
5.789999900000001,1.3455413579940796,-4.733336925506592,8.307879447937012,-8.1787109375,-13.427734375,3.0670166015625
5.8099999,1.335964560508728,-4.671087741851807,8.274360656738281,-5.218505859375,-1.220703125,2.44140625
5.829999900000001,1.3311761617660522,-4.680664539337158,8.312667846679688,1.7242431640625,4.2877197265625,-3.8604736328125
5.8499999,1.37906014919281,-4.702212333679199,8.463502883911133,5.9661865234375,11.0321044921875,-4.8828125
5.869999900000001,1.4053963422775269,-4.58968448638916,8.669404029846191,5.0201416015625,10.2386474609375,-3.6468505859375
5.8899999,1.479616641998291,-4.431667327880859,8.892065048217773,1.495361328125,10.6201171875,2.5787353515625
5.909999900000001,1.5825673341751099,-4.278438568115234,9.093177795410156,1.3885498046875,7.8125,7.9498291015625
5.9299999,1.7094600200653076,-4.146757125854492,9.136273384094238,5.2337646484375,-0.152587890625,1.64794921875
5.949999900000001,1.8602946996688843,-4.05817174911499,9.114726066589355,5.462646484375,1.03759765625,-2.3345947265625
5.9699999,1.9943699836730957,-3.97916316986084,8.954314231872559,0.9918212890625,0.8392333984375,0.6866455078125
5.989999900000001,2.0614075660705566,-3.931279182434082,8.798690795898438,1.6021728515625,-3.265380859375,-0.6561279296875
6.0099999,2.0805611610412598,-3.9600095748901367,8.688557624816895,7.5531005859375,-3.173828125,-4.669189453125
6.029999900000001,2.051830768585205,-4.041412353515625,8.722076416015625,9.735107421875,-2.166748046875,-8.3160400390625
6.0499999,2.008735179901123,-4.089296340942383,8.78193187713623,11.322021484375,-5.859375,-8.453369140625
6.069999900000001,1.9512743949890137,-4.027047157287598,8.853757858276367,11.474609375,-9.9334716796875,-6.3018798828125
6.0899999000000005,1.922544002532959,-3.9384617805480957,8.925583839416504,9.674072265625,-5.3253173828125,0.2288818359375
6.109999900000001,1.9081788063049316,-3.845088005065918,8.920795440673828,10.9100341796875,-2.5177001953125,2.471923828125
6.1299999000000005,1.920149803161621,-3.799597978591919,8.9064302444458,9.735107421875,-0.885009765625,1.64794921875
6.149999900000001,1.9584569931030273,-3.8498764038085938,8.856152534484863,3.326416015625,0.2593994140625,6.3629150390625
6.1699999000000005,2.0015525817871094,-3.890577793121338,8.83939266204834,-1.190185546875,4.0740966796875,8.85009765625
6.1899999,2.049436569213867,-3.9456443786621094,8.83939266204834,0.9918212890625,5.6304931640625,8.1787109375
6.209999900000001,2.078166961669922,-4.003105163574219,8.853757858276367,5.9356689453125,3.5858154296875,7.6446533203125
6.2299999,2.0901381969451904,-4.02465295791626,8.918401718139648,5.1422119140625,5.767822265625,6.256103515625
6.249999900000001,2.0685901641845703,-3.998316764831543,8.954314231872559,-2.74658203125,5.9356689453125,5.2947998046875
6.2699999,2.0254945755004883,-3.974374771118164,8.995016098022461,-11.2762451171875,4.33349609375,7.4310302734375
6.289999900000001,1.9943699836730957,-3.9863457679748535,9.045293807983398,-9.1094970703125,4.1351318359375,8.087158203125
6.3099999,1.944091796875,-4.019864559173584,9.057265281677246,-1.52587890625,3.47900390625,0.396728515625
6.329999900000001,1.920149803161621,-4.141968727111816,9.023746490478516,-1.52587890625,1.6937255859375,-0.48828125
6.3499999,1.8770540952682495,-4.230554580688477,8.992621421813965,-5.9814453125,6.04248046875,-0.091552734375
6.369999900000001,1.8411411046981812,-4.311957359313965,8.916007041931152,0.244140625,10.2996826171875,-0.1983642578125
6.3899999,1.8195933103561401,-4.383783340454102,8.93037223815918,3.662109375,12.20703125,-1.0528564453125
6.409999900000001,1.802833914756775,-4.398148536682129,8.920795440673828,2.349853515625,6.3629150390625,-6.4239501953125
6.4299999,1.8052281141281128,-4.417302131652832,8.923190116882324,3.021240234375,2.9754638671875,-7.4615478515625
6.449999900000001,1.8052281141281128,-4.400542736053467,8.9064302444458,2.532958984375,6.6375732421875,-7.0953369140625
6.4699999,1.778891921043396,-4.271255970001221,8.911218643188477,2.0751953125,7.4005126953125,-9.1552734375
6.489999900000001,1.7381904125213623,-4.163516521453857,8.971074104309082,1.6632080078125,4.39453125,-7.904052734375
6.5099999,1.6974890232086182,-4.060565948486328,8.995016098022461,2.105712890625,1.1138916015625,-6.4544677734375
6.529999900000001,1.6735470294952393,-4.003105163574219,9.016563415527344,-1.28173828125,2.9754638671875,-6.256103515625
6.5499999,1.647210717201233,-3.9480385780334473,8.983044624328613,-0.274658203125,2.9144287109375,-11.2457275390625
6.569999900000001,1.6424223184585571,-3.9217023849487305,8.935160636901855,3.173828125,-0.152587890625,-11.16943359375
6.5899999000000005,1.647210717201233,-3.883395195007324,8.87291145324707,3.5247802734375,-0.1678466796875,-8.5601806640625
6.609999900000001,1.6376339197158813,-3.823540210723877,8.853757858276367,1.3885498046875,3.4332275390625,-9.063720703125
6.6299999000000005,1.6280571222305298,-3.7612907886505127,8.810662269592285,2.655029296875,1.5411376953125,-8.0413818359375
6.649999900000001,1.623268723487854,-3.7469255924224854,8.856152534484863,0.2288818359375,2.4566650390625,-4.058837890625
6.6699999000000005,1.6184803247451782,-3.77565598487854,8.89685344696045,0.335693359375,3.0975341796875,-2.9296875
6.6899999,1.6065093278884888,-3.8115692138671875,8.944737434387207,0.823974609375,2.8839111328125,-6.8817138671875
6.709999900000001,1.625662922859192,-3.8977603912353516,8.966285705566406,-1.0528564453125,3.448486328125,-5.2337646484375
6.7299999,1.623268723487854,-3.912125587463379,8.947132110595703,-0.3509521484375,3.3721923828125,-5.1116943359375
6.749999900000001,1.6280571222305298,-3.912125587463379,8.932766914367676,1.9073486328125,5.5389404296875,-5.0048828125
6.7699999,1.6328455209732056,-3.9193081855773926,8.923190116882324,4.33349609375,6.927490234375,-3.5858154296875
6.789999900000001,1.6328455209732056,-3.914519786834717,8.942343711853027,5.18798828125,6.5765380859375,-5.67626953125
6.8099999,1.6376339197158813,-3.931279182434082,8.999804496765137,1.5716552734375,5.06591796875,-6.3018798828125
6.829999900000001,1.6304513216018677,-3.931279182434082,9.038111686706543,0.5035400390625,2.3651123046875,-5.889892578125
6.8499999,1.6160861253738403,-3.907337188720703,9.07641887664795,-0.7171630859375,2.5634765625,-5.279541015625
6.869999900000001,1.5921441316604614,-3.8762125968933105,9.07641887664795,-0.9307861328125,3.6163330078125,-4.1351318359375
6.8899999,1.5634137392044067,-3.847482204437256,9.050082206726074,1.03759765625,4.5928955078125,-3.5858154296875
6.909999900000001,1.534683346748352,-3.8546648025512695,9.042900085449219,1.312255859375,7.3394775390625,-3.4637451171875
6.9299999,1.5083470344543457,-3.869029998779297,9.006986618041992,0.6561279296875,5.9661865234375,-4.913330078125
6.949999900000001,1.4867992401123047,-3.907337188720703,9.028534889221191,-2.5482177734375,6.1798095703125,-5.7373046875
6.9699999,1.479616641998291,-3.955221176147461,8.978256225585938,-2.655029296875,4.82177734375,-5.3558349609375
6.989999900000001,1.4724340438842773,-4.01268196105957,8.99740982055664,-2.899169921875,6.9732666015625,-6.5765380859375
7.0099999,1.4676456451416016,-4.072536945343018,8.954314231872559,-2.227783203125,5.9661865234375,-7.9498291015625
7.029999900000001,1.4484920501708984,-4.086902141571045,8.987833023071289,-4.0283203125,5.950927734375,-9.9029541015625
7.0499999,1.4245500564575195,-4.084507942199707,9.02135181427002,-3.0517578125,5.55419921875,-7.598876953125
7.069999900000001,1.3958195447921753,-4.036623954772949,9.08838939666748,0.5645751953125,4.39453125,-6.3018798828125
7.0899999000000005,1.3742717504501343,-3.9863457679748535,9.157821655273438,2.2735595703125,4.1656494140625,-7.62939453125
7.109999900000001,1.3646949529647827,-3.936067581176758,9.191340446472168,3.1890869140625,3.4332275390625,-9.1552734375
7.1299999000000005,1.3646949529647827,-3.8786067962646484,9.165003776550293,3.1585693359375,2.7313232421875,-9.429931640625
7.149999900000001,1.3670891523361206,-3.818751811981201,9.124302864074707,-2.410888671875,2.716064453125,-7.8277587890625
7.1699999000000005,1.37906014919281,-3.7924153804779053,9.050082206726074,-2.0294189453125,2.0904541015625,-4.8980712890625
7.1899999,1.3910311460494995,-3.773261785507202,9.004592895507812,0.8697509765625,3.7384033203125,-6.2713623046875
7.209999900000001,1.4101848602294922,-3.804386615753174,8.98543930053711,0.7476806640625,3.72314453125,-6.6986083984375
7.2299999,1.4173674583435059,-3.8091750144958496,8.999804496765137,0.30517578125,2.777099609375,-7.4310302734375
7.249999900000001,1.414973258972168,-3.799597978591919,8.995016098022461,-1.678466796875,1.739501953125,-5.4473876953125
7.2699999,1.4077905416488647,-3.794809579849243,9.028534889221191,-4.9591064453125,3.72314453125,-1.7242431640625
7.289999900000001,1.3886369466781616,-3.780444383621216,9.028534889221191,-4.302978515625,4.8065185546875,-2.74658203125
7.3099999,1.3718775510787964,-3.7708675861358643,9.057265281677246,0.30517578125,6.439208984375,-3.84521484375
7.329999900000001,1.3479355573654175,-3.7660791873931885,9.100360870361328,3.021240234375,7.01904296875,-1.2054443359375
7.3499999,1.3335703611373901,-3.77565598487854,9.150638580322266,2.4566650390625,5.31005859375,1.251220703125
7.369999900000001,1.316810965538025,-3.797203779220581,9.172186851501465,-0.42724609375,2.2735595703125,0.79345703125
7.3899999,1.316810965538025,-3.845088005065918,9.184157371520996,-3.204345703125,3.448486328125,-0.1068115234375
7.409999900000001,1.3192051649093628,-3.9001545906066895,9.17936897277832,-2.3040771484375,5.2337646484375,-0.8392333984375
7.4299999,1.3287819623947144,-3.9480385780334473,9.169792175292969,0.5035400390625,3.021240234375,-1.46484375
7.449999900000001,1.338358759880066,-3.9887399673461914,9.222464561462402,-0.732421875,4.669189453125,-2.655029296875
7.4699999,1.335964560508728,-3.9911341667175293,9.246406555175781,-0.3204345703125,2.3040771484375,-3.4027099609375
7.489999900000001,1.3263877630233765,-3.97916316986084,9.255983352661133,0.030517578125,-1.495361328125,-2.3040771484375
7.5099999,1.3048399686813354,-3.9408559799194336,9.23443603515625,-1.9073486328125,0.823974609375,-1.007080078125
7.529999900000001,1.2856862545013428,-3.9240965843200684,9.165003776550293,-1.5411376953125,2.2430419921875,-0.6561279296875
7.5499999,1.2713210582733154,-3.9480385780334473,9.095572471618652,-0.6103515625,1.739501953125,-1.739501953125
7.569999900000001,1.2665326595306396,-3.976768970489502,9.045293807983398,-0.7476806640625,1.6937255859375,-3.692626953125
7.5899999000000005,1.2545616626739502,-3.995922565460205,8.999804496765137,-0.91552734375,0.8697509765625,-3.90625
7.609999900000001,1.2497732639312744,-4.01268196105957,8.980650901794434,-1.4190673828125,1.28173828125,-0.8087158203125
7.6299999000000005,1.2282254695892334,-3.998316764831543,8.93037223815918,-2.9296875,1.46484375,-1.0528564453125
7.649999900000001,1.2090718746185303,-3.9839515686035156,8.901641845703125,-3.3111572265625,2.25830078125,-2.62451171875
7.6699999000000005,1.1827356815338135,-3.9480385780334473,8.868123054504395,-3.8299560546875,3.997802734375,-2.01416015625
7.6899999,1.1468225717544556,-3.892971992492676,8.844181060791016,-3.265380859375,4.425048828125,-0.7171630859375
7.709999900000001,1.1204863786697388,-3.864241600036621,8.877699851989746,-5.1422119140625,7.2021484375,-0.5645751953125
7.7299999,1.0821791887283325,-3.8522706031799316,8.916007041931152,-5.0048828125,7.4615478515625,-4.547119140625
7.749999900000001,1.05105459690094,-3.8498764038085938,8.990227699279785,-7.049560546875,7.99560546875,-7.9193115234375
7.7699999,1.01753568649292,-3.8379054069519043,9.095572471618652,-8.11767578125,9.002685546875,-4.6539306640625
7.789999900000001,0.9792284965515137,-3.8067808151245117,9.188945770263672,-4.974365234375,6.103515625,-1.5869140625
7.8099999,0.950498104095459,-3.797203779220581,9.27034854888916,-1.800537109375,2.2430419921875,0.579833984375
7.829999900000001,0.9361328482627869,-3.818751811981201,9.287108421325684,-1.1749267578125,1.89208984375,-1.5716552734375
7.8499999,0.933738648891449,-3.88818359375,9.327810287475586,-2.349853515625,5.7830810546875,-3.082275390625
7.869999900000001,0.9385270476341248,-3.9432501792907715,9.289502143859863,0.5340576171875,2.655029296875,-3.5858154296875
7.8899999,0.950498104095459,-4.005499362945557,9.301473617553711,1.1444091796875,-0.8697509765625,-1.3275146484375
7.909999900000001,0.950498104095459,-4.010287761688232,9.23443603515625,0.06103515625,-0.91552734375,-1.9073486328125
7.9299999,0.9600749015808105,-4.005499362945557,9.169792175292969,0.396728515625,0.762939453125,-1.9989013671875
7.949999900000001,0.9672574996948242,-3.971980571746826,9.074024200439453,1.2664794921875,3.204345703125,0.030517578125
7.9699999,0.9840168952941895,-3.9384617805480957,9.016563415527344,1.6326904296875,1.983642578125,0.67138671875
7.989999900000001,1.0103530883789062,-3.936067581176758,9.006986618041992,0.274658203125,0.4425048828125,1.0833740234375
8.0099999,1.0438719987869263,-3.9432501792907715,9.002198219299316,1.3885498046875,-1.7547607421875,0.06103515625
8.0299999,1.0773907899856567,-3.974374771118164,9.023746490478516,-0.48828125,0.1678466796875,-1.220703125
8.049999900000001,1.1037269830703735,-4.015076160430908,9.033323287963867,-0.0457763671875,1.2969970703125,-1.7852783203125
8.069999900000001,1.115697979927063,-4.060565948486328,9.047688484191895,3.4027099609375,-0.2593994140625,-3.6163330078125
8.0899999,1.1300631761550903,-4.108449935913086,9.059659004211426,1.129150390625,-2.3651123046875,-4.547119140625
8.1099999,1.1516109704971313,-4.189853191375732,9.093177795410156,-3.7994384765625,-3.4027099609375,-6.6070556640625
8.129999900000001,1.1563993692398071,-4.216189384460449,9.114726066589355,0.0457763671875,-8.7890625,-12.908935546875
8.149999900000001,1.1755530834197998,-4.228160381317139,9.10993766784668,6.04248046875,-9.7808837890625,-12.1917724609375
8.1699999,1.1994950771331787,-4.206612586975098,9.124302864074707,6.16455078125,-6.28662109375,-9.4757080078125
8.1899999,1.2258312702178955,-4.144362926483154,9.102754592895508,10.68115234375,-6.988525390625,-11.65771484375
8.2099999,1.2856862545013428,-4.065354347229004,9.07641887664795,11.749267578125,-9.09423828125,-14.3280029296875
8.229999900000001,1.3431471586227417,-4.003105163574219,9.069235801696777,7.14111328125,-11.7340087890625,-12.542724609375
8.2499999,1.3718775510787964,-3.869029998779297,9.011775016784668,7.7667236328125,-13.2904052734375,-14.251708984375
8.2699999,1.3982137441635132,-3.7397429943084717,9.009381294250488,8.4991455078125,-4.7760009765625,-11.8255615234375
8.2899999,1.3982137441635132,-3.584120035171509,9.011775016784668,6.8511962890625,0.152587890625,-7.1258544921875
8.309999900000001,1.400607943534851,-3.442862033843994,9.045293807983398,5.2642822265625,-0.6561279296875,-4.2724609375
8.3299999,1.4221558570861816,-3.361459255218506,9.105149269104004,1.0833740234375,1.495361328125,-0.48828125
8.3499999,1.4484920501708984,-3.3494882583618164,9.10993766784668,-1.0223388671875,1.6021728515625,1.953125
8.3699999,1.4748282432556152,-3.3901896476745605,9.136273384094238,-4.150390625,3.6163330078125,2.2735595703125
8.389999900000001,1.4939818382263184,-3.4811692237854004,9.119514465332031,-2.166748046875,3.6773681640625,2.9296875
8.4099999,1.4939818382263184,-3.598485231399536,9.160215377807617,-1.5869140625,5.3253173828125,4.0130615234375
8.4299999,1.4939818382263184,-3.73016619682312,9.20091724395752,-2.0599365234375,4.6234130859375,2.9449462890625
8.4499999,1.4724340438842773,-3.847482204437256,9.210494041442871,-0.030517578125,1.5869140625,0.152587890625
8.469999900000001,1.4484920501708984,-3.928884983062744,9.17936897277832,-0.67138671875,3.2501220703125,-0.5950927734375
8.4899999,1.4269442558288574,-3.971980571746826,9.117119789123535,-2.44140625,8.026123046875,0.701904296875
8.5099999,1.3910311460494995,-3.957615375518799,9.014169692993164,-0.42724609375,6.8511962890625,-0.0152587890625
8.5299999,1.3670891523361206,-3.928884983062744,8.959102630615234,-1.6021728515625,5.340576171875,-0.48828125
8.549999900000001,1.3455413579940796,-3.9025487899780273,8.935160636901855,-2.7008056640625,5.7830810546875,0.91552734375
8.569999900000001,1.3215993642807007,-3.8738183975219727,8.935160636901855,-3.8909912109375,4.486083984375,0.762939453125
8.5899999,1.3096283674240112,-3.864241600036621,8.968679428100586,-3.96728515625,5.401611328125,0.518798828125
8.6099999,1.3024457693099976,-3.8762125968933105,9.004592895507812,-1.4801025390625,6.8817138671875,0.9765625
8.629999900000001,1.3096283674240112,-3.9025487899780273,9.050082206726074,-1.8768310546875,5.950927734375,-0.6866455078125
8.649999900000001,1.3192051649093628,-3.9384617805480957,9.095572471618652,-3.204345703125,3.0670166015625,-3.204345703125
8.6699999,1.3215993642807007,-3.9695863723754883,9.133879661560059,-3.0975341796875,2.899169921875,-4.45556640625
8.6899999,1.316810965538025,-3.9839515686035156,9.181763648986816,-0.18310546875,3.5400390625,-4.2877197265625
8.709999900000001,1.292868971824646,-3.957615375518799,9.232041358947754,0.8697509765625,3.753662109375,-5.4779052734375
8.729999900000001,1.256955862045288,-3.8786067962646484,9.284713745117188,0.213623046875,2.13623046875,-5.4779052734375
8.7499999,1.2330138683319092,-3.794809579849243,9.30386734008789,-0.6561279296875,0.67138671875,-2.25830078125
8.7699999,1.2042834758758545,-3.6798880100250244,9.29189682006836,-0.91552734375,0.030517578125,-2.5787353515625
8.7899999,1.1899182796478271,-3.598485231399536,9.241618156433105,0.06103515625,0.79345703125,-3.0059814453125
8.809999900000001,1.1875240802764893,-3.555389642715454,9.217676162719727,0.6103515625,1.983642578125,-1.068115234375
8.8299999,1.1827356815338135,-3.5434184074401855,9.220070838928223,-0.18310546875,0.6561279296875,-0.2593994140625
8.8499999,1.1779472827911377,-3.5482068061828613,9.26795482635498,-1.40380859375,-1.8157958984375,0.1220703125
8.8699999,1.173158884048462,-3.579331636428833,9.299078941345215,-3.5552978515625,-3.1890869140625,1.983642578125
8.889999900000001,1.161187767982483,-3.5960910320281982,9.301473617553711,-5.126953125,-3.7078857421875,3.0670166015625
8.9099999,1.1492167711257935,-3.641580820083618,9.258378028869629,-5.0506591796875,-3.7841796875,3.96728515625
8.9299999,1.1492167711257935,-3.7205893993377686,9.188945770263672,-4.180908203125,-2.8076171875,3.7078857421875
8.9499999,1.1444283723831177,-3.7924153804779053,9.105149269104004,-3.997802734375,-1.6632080078125,0.885009765625
8.969999900000001,1.1468225717544556,-3.8546648025512695,9.02135181427002,-4.6234130859375,-2.13623046875,0.1373291015625
8.9899999,1.1492167711257935,-3.885789394378662,8.932766914367676,-5.1422119140625,-3.082275390625,2.0904541015625
9.0099999,1.1300631761550903,-3.866635799407959,8.83939266204834,-3.8299560546875,-3.0059814453125,1.4190673828125
9.0299999,1.1228805780410767,-3.883395195007324,8.757989883422852,-3.7078857421875,-0.4425048828125,2.044677734375
9.049999900000001,1.1061211824417114,-3.885789394378662,8.678980827331543,-2.716064453125,1.64794921875,0.9765625
9.069999900000001,1.1109095811843872,-3.9193081855773926,8.655038833618164,-0.6256103515625,5.0506591796875,0.5035400390625
9.0899999,1.1252747774124146,-3.955221176147461,8.664615631103516,1.007080078125,5.9967041015625,0.396728515625
9.1099999,1.161187767982483,-3.9815573692321777,8.710105895996094,0.6103515625,4.4708251953125,0.0457763671875
9.129999900000001,1.1994950771331787,-4.01268196105957,8.767566680908203,-0.54931640625,4.4403076171875,-0.1373291015625
9.149999900000001,1.2449848651885986,-4.043806552886963,8.834604263305664,0.030517578125,5.4168701171875,0.701904296875
9.1699999,1.2880805730819702,-4.082113742828369,8.875306129455566,2.44140625,5.6304931640625,-0.5950927734375
9.1899999,1.316810965538025,-4.1395745277404785,8.956708908081055,1.77001953125,6.011962890625,-2.288818359375
9.209999900000001,1.3239935636520386,-4.2090067863464355,9.028534889221191,1.0528564453125,4.669189453125,-2.960205078125
9.229999900000001,1.316810965538025,-4.335899353027344,9.186552047729492,-0.1068115234375,3.6468505859375,-2.13623046875
9.2499999,1.2976573705673218,-4.525041103363037,9.409213066101074,-1.6632080078125,2.0904541015625,-3.90625
9.2699999,1.3000515699386597,-4.829104900360107,9.694122314453125,-2.6702880859375,-3.6773681640625,-9.33837890625
9.2899999,1.3096283674240112,-5.178658485412598,10.034099578857422,-5.8441162109375,-9.4451904296875,-17.578125
9.309999900000001,1.3479355573654175,-5.547365188598633,10.424354553222656,-5.8441162109375,-10.6964111328125,-24.139404296875
9.3299999,1.3623007535934448,-5.770026206970215,10.737994194030762,-0.0762939453125,-12.298583984375,-28.25927734375
9.3499999,1.3862427473068237,-5.868188381195068,11.013327598571777,-4.5928955078125,-16.6168212890625,-28.9459228515625
9.3699999,1.4221558570861816,-5.884947776794434,11.133037567138672,-15.9149169921875,-25.9552001953125,-29.2205810546875
9.389999900000001,1.4844050407409668,-5.758055210113525,11.070788383483887,-19.34814453125,-31.6009521484375,-37.1551513671875
9.4099999,1.558625340461731,-5.52821159362793,10.809821128845215,-16.6473388671875,-33.8897705078125,-42.96875
9.4299999,1.659181833267212,-5.262455463409424,10.32858657836914,-17.1356201171875,-36.4227294921875,-35.5377197265625
9.4499999,1.7525556087493896,-4.896142482757568,9.737217903137207,-17.8985595703125,-34.1644287109375,-35.888671875
9.469999900000001,1.8291701078414917,-4.467580318450928,9.097966194152832,-13.9007568359375,-27.069091796875,-44.3267822265625
9.4899999,1.8962076902389526,-4.036623954772949,8.528146743774414,-11.29150390625,-27.9541015625,-40.496826171875
9.5099999,1.9608511924743652,-3.6367924213409424,8.044517517089844,-12.6953125,-28.6865234375,-30.303955078125
9.5299999,1.9991583824157715,-3.248931646347046,7.666234016418457,-10.4522705078125,-23.162841796875,-30.6854248046875
9.549999900000001,2.054224967956543,-2.9879636764526367,7.395689010620117,-7.38525390625,-13.61083984375,-30.9600830078125
9.569999900000001,2.1284453868865967,-2.9089550971984863,7.264008045196533,-3.6773681640625,-8.9569091796875,-23.6358642578125
9.5899999,2.2457611560821533,-3.0166940689086914,7.338228225708008,1.3275146484375,-5.2032470703125,-20.5841064453125
9.6099999,2.3726539611816406,-3.2082302570343018,7.577648162841797,2.410888671875,-4.180908203125,-29.3731689453125
9.629999900000001,2.537853717803955,-3.5194764137268066,7.881711959838867,-2.655029296875,-9.9334716796875,-29.9530029296875
9.649999900000001,2.693476915359497,-3.7612907886505127,8.20732307434082,-1.9378662109375,-10.162353515625,-27.34375
9.6699999,2.8371291160583496,-3.847482204437256,8.415618896484375,6.2713623046875,-4.5928955078125,-29.5562744140625
9.6899999,2.9735984802246094,-3.804386615753174,8.554482460021973,8.60595703125,-3.8909912109375,-28.8848876953125
9.709999900000001,3.114856481552124,-3.6798880100250244,8.621520042419434,3.265380859375,-7.3089599609375,-22.735595703125
9.729999900000001,3.24414324760437,-3.533841609954834,8.60236644744873,0.42724609375,-11.8255615234375,-20.1568603515625
9.7499999,3.3734302520751953,-3.4141316413879395,8.520963668823242,-4.8065185546875,-10.7574462890625,-20.965576171875
9.7699999,3.485957622528076,-3.3494882583618164,8.403648376464844,-9.3231201171875,-7.781982421875,-20.6756591796875
9.7899999,3.5745432376861572,-3.3279404640197754,8.310274124145508,-5.18798828125,-4.2724609375,-16.1285400390625
9.809999900000001,3.6367924213409424,-3.318363666534424,8.307879447937012,-2.6092529296875,-2.74658203125,-14.46533203125
9.8299999,3.6535518169403076,-3.3207578659057617,8.367734909057617,-8.0413818359375,-7.5836181640625,-15.68603515625
9.8499999,3.6750996112823486,-3.464409828186035,8.494627952575684,-16.4642333984375,-9.033203125,-13.702392578125
9.8699999,3.648763418197632,-3.5170822143554688,8.604761123657227,-13.85498046875,-5.889892578125,-20.355224609375
9.889999900000001,3.6296098232269287,-3.5649664402008057,8.705317497253418,-7.32421875,-1.1749267578125,-23.01025390625
9.9099999,3.620033025741577,-3.6104562282562256,8.769960403442383,-6.2255859375,-4.119873046875,-15.7012939453125
9.9299999,3.622427225112915,-3.576937437057495,8.813055992126465,-11.0015869140625,-7.171630859375,-18.6004638671875
9.9499999,3.667917013168335,-3.5721490383148193,8.78193187713623,-8.7432861328125,-8.392333984375,-26.763916015625
9.969999900000001,3.7421371936798096,-3.598485231399536,8.760383605957031,-5.18798828125,-6.744384765625,-26.3671875
9.9899999,3.8379054069519043,-3.6296098232269287,8.712499618530273,-0.5340576171875,-7.0343017578125,-26.9622802734375
10.0099999,3.9456443786621094,-3.6846764087677,8.707711219787598,1.129150390625,-9.1705322265625,-32.073974609375
10.0299999,4.0533833503723145,-3.7038300037384033,8.688557624816895,-0.2899169921875,-12.481689453125,-39.2608642578125
10.049999900000001,4.163516521453857,-3.7636849880218506,8.678980827331543,-1.5716552734375,-15.1519775390625,-41.3055419921875
10.069999900000001,4.2760443687438965,-3.7205893993377686,8.652645111083984,-3.2806396484375,-15.7470703125,-45.013427734375
10.0899999,4.357447147369385,-3.4979286193847656,8.561665534973145,-1.15966796875,-18.035888671875,-50.9796142578125
10.1099999,4.474762916564941,-3.3255462646484375,8.465897560119629,2.0751953125,-16.998291015625,-41.50390625
10.129999900000001,4.6040496826171875,-3.0885202884674072,8.31985092163086,0.6866455078125,-13.9312744140625,-38.9862060546875
10.149999900000001,4.7620673179626465,-2.7676970958709717,8.152256965637207,-3.47900390625,-13.916015625,-51.2847900390625
10.1699999,4.948814868927002,-2.4803929328918457,7.905653953552246,-3.8299560546875,-14.4195556640625,-48.5382080078125
10.1899999,5.171475887298584,-2.1332337856292725,7.716512203216553,-6.2713623046875,-10.1318359375,-39.5660400390625
10.209999900000001,5.374982833862305,-1.5610195398330688,7.469909191131592,-2.25830078125,-7.2021484375,-45.71533203125
10.229999900000001,5.640739440917969,-0.9888052940368652,7.223306655883789,4.1961669921875,-6.317138671875,-41.473388671875
10.2499999,5.913678169250488,-0.18914192914962769,6.981492042541504,2.62451171875,-2.2430419921875,-32.04345703125
10.2699999,6.205770969390869,0.5506663918495178,6.912060260772705,-13.092041015625,0.1678466796875,-24.1241455078125
10.2899999,6.550535678863525,1.2186486721038818,6.845022678375244,-15.4876708984375,-10.406494140625,-25.909423828125
10.309999900000001,7.01979923248291,1.9393033981323242,6.926425457000732,11.566162109375,-4.180908203125,-43.3502197265625
10.3299999,7.675810813903809,2.911349296569824,7.089231014251709,60.8062744140625,27.435302734375,-55.0537109375
10.3499999,8.504204750061035,4.570530891418457,7.1706342697143555,113.09814453125,45.8221435546875,-70.9075927734375
10.3699999,9.519346237182617,7.285555839538574,7.146692276000977,130.767822265625,40.3594970703125,-99.5025634765625
10.389999900000001,10.745177268981934,11.346121788024902,7.3693528175354,130.3863525390625,55.419921875,-123.4130859375
10.4099999,11.650185585021973,17.56625747680664,6.892906665802002,167.3126220703125,28.9459228515625,-147.52197265625
10.4299999,11.602301597595215,25.198972702026367,4.668693542480469,144.0277099609375,-54.99267578125,-83.31298828125
10.4499999,9.244012832641602,31.763874053955078,2.1475989818573,8.6669921875,-3.082275390625,141.29638671875
10.469999900000001,2.7557260990142822,34.2945442199707,-0.629675030708313,-38.9251708984375,85.14404296875,351.959228515625
10.4899999,-7.6566572189331055,26.285940170288086,-1.2521674633026123,158.4930419921875,259.0484619140625,499.9847412109375
10.5099999,-19.07939338684082,10.536881446838379,4.412513732910156,32.8216552734375,499.9847412109375,490.0360107421875
10.5299999,-28.07680320739746,-10.529699325561523,12.552799224853516,-97.7630615234375,395.843505859375,282.958984375
10.549999900000001,-31.675289154052734,-25.967512130737305,24.128765106201172,111.2518310546875,267.059326171875,116.02783203125
10.569999900000001,-29.156587600708008,-33.12617492675781,32.75028610229492,101.7608642578125,44.3878173828125,63.4918212890625
10.5899999,-23.26445770263672,-30.32495880126953,33.92344284057617,-88.3941650390625,-270.8892822265625,116.3482666015625
10.6099999,-15.804125785827637,-23.357831954956055,28.637046813964844,-167.05322265625,-193.66455078125,149.4903564453125
10.629999900000001,-9.287108421325684,-16.326061248779297,17.61893081665039,-33.3709716796875,-26.79443359375,95.1690673828125
10.649999900000001,-4.003105163574219,-11.219228744506836,7.156269073486328,16.632080078125,67.230224609375,55.48095703125
10.6699999,-0.5482721924781799,-7.680599212646484,0.3256114423274994,-26.1077880859375,18.9971923828125,49.6673583984375
10.6899999,1.115697979927063,-5.307945251464844,-1.6065093278884888,-48.0804443359375,-71.502685546875,45.8221435546875
10.709999900000001,1.4413094520568848,-4.108449935913086,-0.1604115068912506,-54.7637939453125,-104.0496826171875,31.79931640625
10.729999900000001,0.8786720037460327,-3.7636849880218506,2.078166961669922,-61.798095703125,-103.3935546875,6.317138671875
10.7499999,0.05746084079146385,-3.799597978591919,4.359841346740723,-54.1839599609375,-54.473876953125,-3.96728515625
10.7699999,-0.5746083855628967,-3.9169139862060547,6.155492782592773,-28.5186767578125,-1.03759765625,14.70947265625
10.7899999,-0.7182605266571045,-4.129997730255127,7.570465564727783,-4.1656494140625,5.2032470703125,37.628173828125
10.809999900000001,-0.3519476354122162,-4.414907932281494,8.700529098510742,8.8348388671875,-0.3662109375,24.35302734375
10.8299999,0.2322375625371933,-4.7189717292785645,9.545681953430176,-11.199951171875,-7.38525390625,-0.762939453125
10.8499999,0.8188169598579407,-4.824316501617432,9.940725326538086,-29.5562744140625,-10.8184814453125,3.7994384765625
10.8699999,1.192312479019165,-4.467580318450928,10.077195167541504,-14.7552490234375,-14.3280029296875,14.0838623046875
10.889999900000001,1.4293384552001953,-4.039018154144287,10.122684478759766,-4.3182373046875,-7.659912109375,21.636962890625
10.9099999,1.5705963373184204,-3.641580820083618,10.038887977600098,-15.716552734375,-2.349853515625,14.7247314453125
10.9299999,1.7190368175506592,-3.464409828186035,9.947908401489258,-24.96337890625,-3.0975341796875,8.1634521484375
10.9499999,1.802833914756775,-3.315969467163086,9.897629737854004,-21.05712890625,-12.237548828125,4.4708251953125
10.969999900000001,1.8411411046981812,-3.2345664501190186,9.947908401489258,-10.6658935546875,-21.54541015625,4.7454833984375
10.9899999,1.821987509727478,-3.1962592601776123,10.041281700134277,-16.3116455078125,-34.4390869140625,3.60107421875
11.0099999,1.7812861204147339,-3.177105665206909,10.072406768798828,-29.0985107421875,-44.7235107421875,-1.739501953125
11.0299999,1.7717092037200928,-3.220201253890991,9.919178009033203,-27.0843505859375,-39.093017578125,4.5318603515625
11.049999900000001,1.8171991109848022,-3.248931646347046,9.588777542114258,-24.5819091796875,-21.9573974609375,14.923095703125
11.069999900000001,1.9033904075622559,-3.2609026432037354,9.20091724395752,-35.8428955078125,-13.9312744140625,17.608642578125
11.0899999,2.0015525817871094,-3.2848446369171143,8.911218643188477,-47.576904296875,-6.9580078125,17.3492431640625
11.1099999,2.1140801906585693,-3.4955344200134277,8.760383605957031,-41.7633056640625,-8.1787109375,25.6805419921875
11.129999900000001,2.2649147510528564,-3.885789394378662,8.738836288452148,-38.2537841796875,-10.4827880859375,26.3214111328125
11.149999900000001,2.343923568725586,-4.242525577545166,8.822632789611816,-46.142578125,-20.6146240234375,3.1280517578125
11.1699999,2.403778553009033,-4.6040496826171875,8.913613319396973,-54.1229248046875,-30.1055908203125,-0.823974609375
11.1899999,2.3750481605529785,-4.675876140594482,8.944737434387207,-54.7027587890625,-38.330078125,11.2152099609375
11.209999900000001,2.2816741466522217,-4.575319290161133,8.774748802185059,-47.18017578125,-40.52734375,22.2015380859375
11.229999900000001,2.205059766769409,-4.51067590713501,8.44434928894043,-52.3223876953125,-31.4178466796875,27.4200439453125
11.2499999,2.1930887699127197,-4.637568473815918,7.965508937835693,-50.628662109375,-14.9383544921875,29.78515625
11.2699999,2.2577321529388428,-5.0014872550964355,7.623138427734375,-29.47998046875,7.049560546875,29.5867919921875
11.2899999,2.3319525718688965,-5.420472621917725,7.5632829666137695,-14.6026611328125,18.49365234375,16.05224609375
11.309999900000001,2.4157495498657227,-5.834669589996338,7.785943984985352,-19.1192626953125,6.16455078125,9.2926025390625
11.3299999,2.4181437492370605,-6.01423454284668,8.152256965637207,-36.4532470703125,-12.0697021484375,9.70458984375
11.3499999,2.363077163696289,-6.038176536560059,8.398859977722168,-37.7960205078125,-25.482177734375,16.845703125
11.3699999,2.2649147510528564,-5.9735331535339355,8.374917984008789,-24.0631103515625,-25.3448486328125,21.2860107421875
11.389999900000001,2.140416383743286,-5.959167957305908,8.090007781982422,-23.590087890625,-13.73291015625,19.622802734375
11.4099999,2.011129379272461,-6.033388137817383,7.580042362213135,-28.2745361328125,-7.4615478515625,18.0511474609375
11.4299999,1.8962076902389526,-6.150704383850098,7.0988078117370605,-30.9295654296875,-2.74658203125,13.6566162109375
11.4499999,1.7908629179000854,-6.260837554931641,6.718130111694336,-21.759033203125,3.96728515625,11.0321044921875
11.469999900000001,1.6950948238372803,-6.3063273429870605,6.493074893951416,-3.0364990234375,7.4310302734375,7.1868896484375
11.4899999,1.6376339197158813,-6.291962146759033,6.572083473205566,-5.31005859375,9.46044921875,2.6702880859375
11.5099999,1.5610195398330688,-6.162675380706787,6.856993675231934,-13.3209228515625,3.0059814453125,-3.631591796875
11.5299999,1.479616641998291,-5.932831764221191,7.2113356590271,8.575439453125,-16.7999267578125,-0.0762939453125
11.549999900000001,1.403002142906189,-5.693411827087402,7.592013359069824,16.9830322265625,-23.345947265625,23.1781005859375
11.569999900000001,1.314416766166687,-5.513846397399902,7.826645374298096,3.2196044921875,-9.70458984375,42.0074462890625
11.5899999,1.213860273361206,-5.544970989227295,7.891288757324219,-1.9073486328125,-8.4075927734375,47.149658203125
11.6099999,1.0630255937576294,-5.851428985595703,7.7763671875,-2.4871826171875,-18.768310546875,65.826416015625
11.629999900000001,0.9768342971801758,-6.356605529785156,7.594407558441162,-22.39990234375,-16.3726806640625,83.31298828125
11.649999900000001,0.849941611289978,-6.897695064544678,7.534552574157715,-61.3861083984375,8.1024169921875,67.3065185546875
11.6699999,0.7398083209991455,-7.266402244567871,7.599195957183838,-19.012451171875,18.9666748046875,33.6456298828125
11.6899999,0.6248866319656372,-7.4100542068481445,7.872135162353516,32.2723388671875,-3.7841796875,27.618408203125
11.709999900000001,0.38067805767059326,-7.249642848968506,8.123526573181152,70.9686279296875,-14.1754150390625,32.28759765625
11.729999900000001,0.08619125932455063,-6.794744491577148,8.161833763122559,58.868408203125,-35.46142578125,28.86962890625
11.7499999,-0.21308395266532898,-6.299144744873047,7.999027729034424,39.459228515625,-38.0096435546875,35.736083984375
11.7699999,-0.4189853072166443,-5.999869346618652,7.771578788757324,89.78271484375,-25.5584716796875,36.80419921875
11.7899999,-0.507570743560791,-5.714959621429443,7.479485988616943,77.33154296875,-23.9105224609375,17.6849365234375
11.809999900000001,-0.5746083855628967,-5.564124584197998,7.283161640167236,42.78564453125,-15.960693359375,-12.725830078125
11.8299999,-0.5793967843055725,-5.408501625061035,7.117961883544922,30.21240234375,-19.59228515625,13.24462890625
11.8499999,-0.45489832758903503,-5.219359874725342,7.0772600173950195,9.3841552734375,-19.0277099609375,52.1697998046875
11.8699999,-0.2346317619085312,-5.049371242523193,7.441178798675537,-46.2646484375,-5.4779052734375,31.0821533203125
11.889999900000001,0.090979665517807,-5.032611846923828,7.903259754180908,-52.30712890625,-15.2130126953125,-13.1988525390625
11.9099999,0.30885201692581177,-5.228936672210693,8.415618896484375,39.5050048828125,-27.984619140625,17.303466796875
11.9299999,0.586579442024231,-5.623979568481445,8.774748802185059,49.957275390625,-19.561767578125,62.8509521484375
11.9499999,0.6703764796257019,-6.011840343475342,8.743624687194824,-10.0555419921875,-25.6500244140625,12.908935546875
11.969999900000001,0.849941611289978,-6.3518171310424805,8.439560890197754,-12.908935546875,-24.2767333984375,-18.24951171875
11.9899999,1.039083480834961,-6.493074893951416,8.149862289428711,-30.3802490234375,6.0882568359375,0.244140625
12.0099999,1.2665326595306396,-6.291962146759033,7.929595947265625,-72.021484375,17.791748046875,-9.6435546875
12.0299999,1.4053963422775269,-5.935225963592529,7.733271598815918,-62.3779296875,3.753662109375,-23.468017578125
12.049999900000001,1.5418659448623657,-5.801150798797607,7.68538761138916,-53.802490234375,-2.7923583984375,0.0762939453125
12.069999900000001,1.721431016921997,-5.9088897705078125,7.630321025848389,-67.3828125,12.420654296875,31.8145751953125
12.0899999,1.7884687185287476,-6.282385349273682,7.3693528175354,-67.56591796875,6.591796875,12.63427734375
12.1099999,1.8531121015548706,-6.864176273345947,7.096413612365723,-71.929931640625,13.092041015625,-5.0811767578125
12.129999900000001,1.8602946996688843,-7.271190643310547,7.000645637512207,-98.9990234375,28.961181640625,-7.3089599609375
12.149999900000001,1.7549498081207275,-7.568071365356445,6.840234279632568,-81.60400390625,1.2969970703125,15.380859375
12.1699999,1.6759412288665771,-7.738059997558594,6.689399719238281,-45.654296875,-30.1055908203125,27.4810791015625
12.1899999,1.7070658206939697,-8.068459510803223,6.50025749206543,-61.95068359375,-1.312255859375,26.2298583984375
12.209999900000001,1.7693150043487549,-8.118738174438477,6.224924564361572,-72.75390625,29.4036865234375,-2.9296875
12.229999900000001,1.7693150043487549,-8.006210327148438,6.121973514556885,-74.9053955078125,7.110595703125,-4.8675537109375
12.2499999,1.802833914756775,-7.85537576675415,6.323086738586426,-86.0748291015625,-31.0211181640625,36.43798828125
12.2699999,1.7166426181793213,-7.615955829620361,6.44279670715332,-49.530029296875,-35.736083984375,35.247802734375
12.289999900000002,1.7334020137786865,-7.529764175415039,6.325480937957764,-25.0701904296875,-11.1083984375,14.495849609375
12.309999900000001,1.7166426181793213,-7.613561630249023,6.0190229415893555,-69.3511962890625,4.364013671875,23.284912109375
12.3299999,1.7142484188079834,-7.793126583099365,5.621585369110107,-77.2552490234375,-0.4425048828125,35.5377197265625
12.3499999,1.644816517829895,-8.123526573181152,5.413290023803711,-36.9720458984375,-2.3193359375,27.7557373046875
12.3699999,1.50355863571167,-8.377311706542969,5.341464042663574,-12.1612548828125,-1.9378662109375,6.6680908203125
12.389999900000001,1.2737152576446533,-8.597578048706055,5.722142219543457,-120.1629638671875,-26.1077880859375,14.862060546875
12.4099999,0.9026140570640564,-8.458714485168457,6.3063273429870605,-124.755859375,-57.8765869140625,45.4559326171875
12.4299999,0.7852981686592102,-8.518569946289062,6.497863292694092,-28.6712646484375,-108.2000732421875,77.789306640625
12.4499999,0.667982280254364,-8.71728801727295,6.584054470062256,-65.8416748046875,-90.51513671875,72.723388671875
12.469999900000001,0.9552865028381348,-9.255983352661133,6.320692539215088,-93.8262939453125,-30.8837890625,39.3524169921875
12.4899999,1.192312479019165,-9.888052940368652,6.174646377563477,-41.1529541015625,-17.1356201171875,27.252197265625
12.5099999,1.3694833517074585,-10.486603736877441,6.205770969390869,13.7939453125,-75.7904052734375,-1.6632080078125
12.5299999,1.4221558570861816,-10.706870079040527,6.430825710296631,-3.0517578125,-117.0654296875,-47.36328125
12.549999900000001,1.3766659498214722,-10.682928085327148,6.3733649253845215,-4.9285888671875,-84.6405029296875,-66.8792724609375
12.569999900000001,1.3838485479354858,-10.319009780883789,5.995080947875977,60.2874755859375,-86.029052734375,-49.98779296875
12.5899999,1.4867992401123047,-9.837775230407715,5.633556365966797,138.427734375,-71.258544921875,-26.702880859375
12.6099999,1.6352397203445435,-9.442731857299805,5.070919036865234,189.361572265625,-65.521240234375,-4.7760009765625
12.629999900000001,1.7405846118927002,-8.93037223815918,4.462791919708252,168.8995361328125,-62.3016357421875,-23.4375
12.649999900000001,1.843535304069519,-8.365341186523438,3.976768970489502,87.127685546875,-40.9088134765625,-20.08056640625
12.6699999,1.8938134908676147,-7.69735860824585,3.667917013168335,60.1959228515625,-33.477783203125,15.5487060546875
12.6899999,2.0470423698425293,-7.089231014251709,3.6942532062530518,91.4154052734375,-42.3126220703125,24.96337890625
12.709999900000001,2.250549554824829,-6.809109687805176,3.9480385780334473,84.0911865234375,-27.7862548828125,12.7105712890625
12.729999900000001,2.52109432220459,-6.785167694091797,4.19224739074707,72.3114013671875,-20.3704833984375,1.89208984375
12.7499999,2.7030537128448486,-6.8593878746032715,4.618414878845215,70.1141357421875,-15.045166015625,-3.9825439453125
12.7699999,2.7700912952423096,-6.998251438140869,4.9583916664123535,110.41259765625,-28.5797119140625,-8.5906982421875
12.789999900000002,2.808398485183716,-7.273584842681885,5.262455463409424,144.4854736328125,-39.337158203125,-23.4375
12.809999900000001,2.760514497756958,-7.6782050132751465,5.434837818145752,140.5029296875,-14.8162841796875,-49.3621826171875
12.8299999,2.7700912952423096,-8.04930591583252,5.1595048904418945,242.0196533203125,26.4129638671875,-83.831787109375
12.8499999,2.8371291160583496,-8.14028549194336,5.082890033721924,197.2808837890625,62.042236328125,-88.8519287109375
12.8699999,2.8179752826690674,-7.718906402587891,5.216965675354004,113.6322021484375,74.8138427734375,-59.02099609375
12.889999900000001,2.8203697204589844,-7.010222434997559,5.468356609344482,99.67041015625,32.562255859375,-32.04345703125
12.9099999,2.6791117191314697,-6.392518520355225,6.030993938446045,78.826904296875,30.0750732421875,-14.3280029296875
12.9299999,2.5665841102600098,-5.863399982452393,6.327875137329102,58.9141845703125,49.1790771484375,-19.6075439453125
12.9499999,2.2888567447662354,-5.537788391113281,6.557718276977539,9.58251953125,41.229248046875,-36.407470703125
12.969999900000001,2.1356279850006104,-5.310339450836182,6.689399719238281,-26.7486572265625,37.322998046875,-11.5966796875
12.9899999,2.0015525817871094,-5.197812080383301,7.108384609222412,-102.5390625,45.3033447265625,16.5252685546875
13.0099999,1.9273324012756348,-5.219359874725342,7.704541206359863,-113.46435546875,43.7164306640625,6.3629150390625
13.0299999,2.0159177780151367,-5.5114521980285645,8.494627952575684,-78.216552734375,14.7705078125,-1.4801025390625
13.049999900000001,2.0877439975738525,-5.808333396911621,9.21288776397705,-74.5391845703125,-11.3525390625,-4.241943359375
13.069999900000001,2.2002713680267334,-6.088454723358154,9.746794700622559,-75.103759765625,-1.617431640625,-12.0086669921875
13.0899999,2.31758713722229,-6.320692539215088,9.864110946655273,-61.6302490234375,5.706787109375,-16.5557861328125
13.1099999,2.38462495803833,-6.471527099609375,9.68933391571045,-66.22314453125,11.53564453125,-25.2685546875
13.129999900000001,2.43011474609375,-6.6630635261535645,9.397241592407227,-111.2213134765625,25.970458984375,-22.64404296875
13.149999900000001,2.382230758666992,-6.780379295349121,9.006986618041992,-115.0360107421875,25.7415771484375,-29.11376953125
13.1699999,2.279279947280884,-6.785167694091797,8.554482460021973,-103.1036376953125,8.4991455078125,-43.609619140625
13.1899999,2.013523578643799,-6.610390663146973,8.128314971923828,-97.5799560546875,21.2860107421875,-33.905029296875
13.209999900000001,1.8794482946395874,-6.619967937469482,7.673416614532471,-110.04638671875,42.1600341796875,2.3956298828125
13.229999900000001,1.7357962131500244,-6.75883150100708,7.340622425079346,-109.527587890625,48.7213134765625,4.39453125
13.2499999,1.7046716213226318,-7.177816867828369,7.113173484802246,-84.869384765625,46.69189453125,-27.16064453125
13.2699999,1.7573440074920654,-7.766790390014648,6.931213855743408,-79.4219970703125,31.0211181640625,-42.236328125
13.289999900000002,1.7286136150360107,-8.10437297821045,6.53377628326416,-125.1068115234375,23.2086181640625,-49.6978759765625
13.309999900000001,1.5634137392044067,-8.1139497756958,6.2392897605896,-156.5093994140625,107.1319580078125,-43.701171875
13.3299999,1.3910311460494995,-7.979874134063721,5.995080947875977,-127.7618408203125,143.2647705078125,-19.4244384765625
13.3499999,1.237802267074585,-7.948749542236328,5.935225963592529,-95.0775146484375,82.977294921875,-3.0975341796875
13.3699999,1.194706678390503,-8.11634349822998,5.813121795654297,-108.9324951171875,49.1790771484375,-9.613037109375
13.389999900000001,1.1875240802764893,-8.489839553833008,5.559336185455322,-155.9295654296875,66.0247802734375,-34.5916748046875
13.4099999,1.1300631761550903,-8.69334602355957,5.233725070953369,-159.912109375,79.986572265625,-53.16162109375
13.4299999,0.9361328482627869,-8.640673637390137,4.797980308532715,-93.7652587890625,56.9305419921875,-33.6761474609375
13.4499999,0.7422025203704834,-8.473079681396484,4.443638324737549,-71.35009765625,49.01123046875,5.5694580078125
13.469999900000001,0.5985504388809204,-8.4108304977417,4.1156325340271,-88.0584716796875,71.014404296875,8.209228515625
13.4899999,0.507570743560791,-8.415618896484375,3.691859006881714,-81.4361572265625,68.17626953125,-14.0838623046875
13.5099999,0.5554547905921936,-8.549694061279297,3.179499864578247,-64.9261474609375,53.680419921875,3.35693359375
13.5299999,0.6368576288223267,-8.678980827331543,2.8395233154296875,-54.443359375,69.3817138671875,27.587890625
13.549999900000001,0.6847416758537292,-8.573636054992676,2.4468741416931152,-55.4351806640625,60.48583984375,-2.9296875
13.569999900000001,0.8020575642585754,-8.56884765625,2.0853497982025146,-57.1136474609375,41.595458984375,-11.810302734375
13.5899999,0.8259995579719543,-8.643068313598633,1.8746598958969116,-58.9447021484375,45.4559326171875,-4.33349609375
13.6099999,0.8212111592292786,-8.81784439086914,1.845929503440857,-61.431884765625,64.666748046875,-13.4429931640625
13.629999900000001,0.811634361743927,-9.23443603515625,1.867477297782898,-46.1578369140625,54.2449951171875,-18.3868408203125
13.649999900000001,0.7876923680305481,-9.600749015808105,2.1140801906585693,-29.6478271484375,56.793212890625,-21.575927734375
13.6699999,0.8523358106613159,-9.995792388916016,2.3271639347076416,-23.8800048828125,61.5692138671875,-16.876220703125
13.6899999,0.9696516990661621,-10.261548042297363,2.408566951751709,-15.2740478515625,52.4444580078125,-11.5203857421875
13.709999900000001,1.1635819673538208,-10.436325073242188,2.38462495803833,-18.9361572265625,49.591064453125,-25.1007080078125
13.729999900000001,1.4269442558288574,-10.63504409790039,2.31758713722229,-21.8505859375,55.9844970703125,-37.3992919921875
13.7499999,1.599326729774475,-10.517727851867676,2.1068975925445557,-7.8582763671875,42.5872802734375,-49.13330078125
13.7699999,1.7118542194366455,-10.247182846069336,2.097320795059204,3.387451171875,45.2117919921875,-42.4957275390625
13.789999900000002,1.723825216293335,-9.914389610290527,2.0638017654418945,9.246826171875,48.2330322265625,-19.0277099609375
13.809999900000001,1.699883222579956,-9.651026725769043,2.142810583114624,6.6986083984375,36.0260009765625,-15.93017578125
13.8299999,1.6903064250946045,-9.615114212036133,2.185906171798706,4.21142578125,31.7535400390625,-27.03857421875
13.8499999,1.6543933153152466,-9.555258750915527,2.1571757793426514,4.119873046875,32.623291015625,-33.7677001953125
13.8699999,1.680729627609253,-9.442731857299805,2.1571757793426514,3.814697265625,46.6461181640625,-16.8914794921875
13.889999900000001,1.6950948238372803,-9.181763648986816,2.121262788772583,13.671875,35.1409912109375,-0.3509521484375
13.9099999,1.7884687185287476,-8.9064302444458,2.207453966140747,26.153564453125,26.0009765625,2.99072265625
13.9299999,1.900996208190918,-8.829815864562988,2.2146365642547607,42.6788330078125,15.5181884765625,9.7198486328125
13.9499999,1.9536685943603516,-8.889671325683594,2.2577321529388428,23.2086181640625,11.2457275390625,15.3045654296875
13.969999900000001,1.9512743949890137,-9.117119789123535,2.3965959548950195,-6.28662109375,18.218994140625,13.6260986328125
13.9899999,1.9081788063049316,-9.397241592407227,2.5977089405059814,-10.2691650390625,11.77978515625,11.1541748046875
14.0099999,1.843535304069519,-9.607931137084961,2.9305028915405273,2.288818359375,2.44140625,4.3182373046875
14.0299999,1.86508309841156,-9.813833236694336,3.090914487838745,5.2490234375,-1.9073486328125,6.4544677734375
14.049999900000001,1.920149803161621,-9.921571731567383,3.0358476638793945,1.1749267578125,-4.4708251953125,5.035400390625
14.069999900000001,1.9943699836730957,-9.928754806518555,2.853888511657715,-4.913330078125,-0.9002685546875,-7.2479248046875
14.0899999,2.0685901641845703,-9.876082420349121,2.535459518432617,7.110595703125,-9.3994140625,-4.8675537109375
14.1099999,2.0853497982025146,-9.742006301879883,2.3558945655822754,22.52197265625,-7.781982421875,7.659912109375
14.129999900000001,2.0661959648132324,-9.579200744628906,2.188300371170044,38.3453369140625,-6.0882568359375,11.0015869140625
14.149999900000001,2.03507137298584,-9.445125579833984,2.1571757793426514,34.8968505859375,3.0364990234375,6.317138671875
14.1699999,1.9800047874450684,-9.354146003723145,2.142810583114624,13.6260986328125,-2.9754638671875,4.1046142578125
14.1899999,1.9608511924743652,-9.375694274902344,2.209848165512085,-4.9591064453125,-3.8604736328125,8.1939697265625
14.209999900000001,1.9321208000183105,-9.363722801208496,2.2912509441375732,-3.0670166015625,-1.708984375,3.875732421875
14.229999900000001,1.8770540952682495,-9.35893440246582,2.454056739807129,0.3814697265625,0.3814697265625,-1.983642578125
14.2499999,1.8124107122421265,-9.459490776062012,2.5929205417633057,5.0506591796875,-4.69970703125,8.697509765625
14.2699999,1.6903064250946045,-9.5624418258667,2.6862943172454834,9.765625,-8.270263671875,8.3770751953125
14.289999900000002,1.5825673341751099,-9.730035781860352,2.827552318572998,5.9356689453125,3.1890869140625,0.396728515625
14.309999900000001,1.4748282432556152,-9.8784761428833,2.8562827110290527,-1.2054443359375,-0.18310546875,0.396728515625
14.3299999,1.3910311460494995,-9.909601211547852,2.9328970909118652,-5.401611328125,-8.7127685546875,4.4708251953125
14.3499999,1.3263877630233765,-9.9000244140625,2.9257144927978516,0.335693359375,-11.474609375,8.0718994140625
14.3699999,1.2713210582733154,-9.883264541625977,2.827552318572998,4.241943359375,-10.772705078125,6.3629150390625
14.389999900000001,1.2234370708465576,-9.835380554199219,2.652775526046753,0.2593994140625,-6.4849853515625,0.7781982421875
14.4099999,1.2282254695892334,-9.840168952941895,2.427720546722412,-0.091552734375,-7.354736328125,3.4637451171875
14.4299999,1.2330138683319092,-9.751583099365234,2.2840683460235596,10.162353515625,-10.19287109375,-1.495361328125
14.4499999,1.2473790645599365,-9.68933391571045,2.1811177730560303,19.0582275390625,-13.3209228515625,-5.2337646484375
14.469999900000001,1.259350061416626,-9.720458984375,2.140416383743286,18.4478759765625,-11.1236572265625,-0.732421875
14.4899999,1.2641384601593018,-9.758766174316406,2.1739351749420166,12.481689453125,-4.8980712890625,-2.685546875
14.5099999,1.278503656387329,-9.80904483795166,2.233790159225464,16.78466796875,-4.425048828125,-6.16455078125
14.5299999,1.3215993642807007,-9.852140426635742,2.343923568725586,16.54052734375,-8.2550048828125,-1.6021728515625
14.549999900000001,1.37906014919281,-9.859322547912598,2.494758129119873,16.021728515625,-6.561279296875,-2.3651123046875
14.569999900000001,1.4197616577148438,-9.77791976928711,2.585737943649292,17.7459716796875,-9.3231201171875,-8.880615234375
14.5899999,1.434126853942871,-9.619902610778809,2.691082715988159,7.7056884765625,-8.026123046875,-6.5765380859375
14.6099999,1.4460978507995605,-9.378087997436523,2.762908697128296,1.953125,-0.9765625,4.3182373046875
14.629999900000001,1.4460978507995605,-9.10993766784668,2.784456491470337,4.913330078125,-2.6702880859375,9.1094970703125
14.649999900000001,1.4484920501708984,-8.96389102935791,2.801215887069702,7.843017578125,-1.800537109375,5.5389404296875
14.6699999,1.4532804489135742,-8.956708908081055,2.7964274883270264,7.354736328125,1.6021728515625,1.861572265625
14.6899999,1.4317326545715332,-9.023746490478516,2.786850690841675,3.387451171875,-0.79345703125,1.861572265625
14.709999900000001,1.3934253454208374,-9.117119789123535,2.827552318572998,-1.52587890625,-0.1373291015625,6.2408447265625
14.729999900000001,1.3551181554794312,-9.193734169006348,2.8586769104003906,-0.6103515625,-0.8392333984375,9.94873046875
14.7499999,1.335964560508728,-9.275136947631836,2.9041666984558105,-6.103515625,2.9754638671875,9.063720703125
14.7699999,1.3072341680526733,-9.344569206237793,2.9712042808532715,-13.1378173828125,5.2337646484375,6.2255859375
14.789999900000002,1.290474772453308,-9.425971984863281,2.9927520751953125,-10.5438232421875,0.8544921875,7.7972412109375
14.809999900000001,1.2545616626739502,-9.47146224975586,3.050212860107422,-7.8887939453125,4.4097900390625,9.9945068359375
14.8299999,1.2042834758758545,-9.48343276977539,3.066972494125366,-6.1492919921875,7.2784423828125,10.528564453125
14.8499999,1.1635819673538208,-9.514557838439941,3.0573954582214355,-2.8228759765625,7.904052734375,12.054443359375
14.8699999,1.113303780555725,-9.516951560974121,3.0526070594787598,-0.5340576171875,8.2550048828125,12.8021240234375
14.889999900000001,1.0797849893569946,-9.53849983215332,2.9520506858825684,-2.1820068359375,4.150390625,15.9912109375
14.9099999,1.0414776802062988,-9.603142738342285,2.9328970909118652,-12.481689453125,8.819580078125,16.1895751953125
14.9299999,1.0007762908935547,-9.670180320739746,2.8395233154296875,-12.237548828125,7.965087890625,11.8865966796875
14.9499999,0.9481038451194763,-9.744400978088379,2.8443117141723633,-8.4381103515625,5.126953125,8.4228515625
14.969999900000001,0.8762778043746948,-9.787496566772461,2.846705913543701,-3.814697265625,3.90625,9.7503662109375
14.9899999,0.811634361743927,-9.780313491821289,2.8395233154296875,-1.3427734375,2.410888671875,8.544921875
15.0099999,0.7852981686592102,-9.749189376831055,2.779668092727661,-3.2501220703125,2.4566650390625,7.5225830078125
15.0299999,0.7637503147125244,-9.6989107131958,2.717418909072876,-7.720947265625,7.4615478515625,2.8228759765625
15.049999900000001,0.7589619159698486,-9.682151794433594,2.6647465229034424,-9.33837890625,8.0718994140625,0.396728515625
15.069999900000001,0.7350199222564697,-9.701305389404297,2.652775526046753,-8.087158203125,5.4779052734375,0.9918212890625
15.0899999,0.6943184733390808,-9.739612579345703,2.650381326675415,-4.119873046875,6.0577392578125,-1.3885498046875
15.1099999,0.6536170840263367,-9.744400978088379,2.6192567348480225,-2.2735595703125,6.8511962890625,-5.31005859375
15.129999900000001,0.6224924325942993,-9.75397777557373,2.6001031398773193,-8.1329345703125,10.9710693359375,-2.50244140625
15.149999900000001,0.6177040338516235,-9.730035781860352,2.5450363159179688,-8.0718994140625,10.223388671875,-2.9754638671875
15.1699999,0.6033388376235962,-9.646238327026367,2.518700122833252,-2.8076171875,10.2081298828125,-8.026123046875
15.1899999,0.6200982332229614,-9.588777542114258,2.518700122833252,-4.2724609375,14.9688720703125,-5.2337646484375
15.209999900000001,0.6368576288223267,-9.500192642211914,2.497152328491211,-3.35693359375,14.678955078125,-1.129150390625
15.229999900000001,0.6847416758537292,-9.437943458557129,2.5282769203186035,-0.79345703125,15.411376953125,-3.4942626953125
15.2499999,0.7326257228851318,-9.394847869873047,2.561795711517334,2.8533935546875,14.5111083984375,-7.0037841796875
15.2699999,0.768538773059845,-9.435548782348633,2.6240451335906982,-0.1220703125,12.3443603515625,-6.2408447265625
15.289999900000002,0.7829039692878723,-9.437943458557129,2.715024709701538,-2.471923828125,13.1988525390625,-5.31005859375
15.309999900000001,0.8044517636299133,-9.516951560974121,2.7676970958709717,1.007080078125,12.0086669921875,-0.8087158203125
15.3299999,0.8355764150619507,-9.706093788146973,2.832340717315674,-0.335693359375,11.6729736328125,0.8392333984375
15.3499999,0.8906430602073669,-9.892841339111328,2.849100112915039,-0.67138671875,11.138916015625,-8.97216796875
15.3699999,0.9481038451194763,-10.072406768798828,2.846705913543701,1.0528564453125,9.2315673828125,-13.73291015625
15.389999900000001,0.9983820915222168,-10.268731117248535,2.846705913543701,1.2054443359375,7.8887939453125,-7.171630859375
15.4099999,1.0630255937576294,-10.488997459411621,2.8227639198303223,2.471923828125,9.8419189453125,-7.4005126953125
15.4299999,1.1324573755264282,-10.680533409118652,2.846705913543701,5.18798828125,11.53564453125,-20.5841064453125
15.4499999,1.259350061416626,-10.967838287353516,2.9472622871398926,2.0904541015625,12.298583984375,-23.895263671875
15.469999900000001,1.4317326545715332,-11.291055679321289,3.0406360626220703,-0.18310546875,4.8370361328125,-22.9949951171875
15.4899999,1.6376339197158813,-11.525687217712402,3.1747114658355713,-4.7149658203125,5.1116943359375,-39.0472412109375
15.5099999,1.8698714971542358,-11.583148002624512,3.1675288677215576,-6.1492919921875,3.9825439453125,-53.7109375
15.5299999,2.1116859912872314,-11.432312965393066,3.1100680828094482,-12.3748779296875,3.9215087890625,-48.431396484375
15.549999900000001,2.300827741622925,-11.042057991027832,2.980781078338623,-13.0462646484375,4.058837890625,-42.1295166015625
15.569999900000001,2.5282769203186035,-10.57040023803711,2.806004285812378,-5.37109375,5.4168701171875,-41.656494140625
15.5899999,2.715024709701538,-9.981427192687988,2.6384103298187256,-0.213623046875,4.6539306640625,-59.1888427734375
15.6099999,2.9305028915405273,-9.368511199951172,2.497152328491211,-8.8348388671875,1.251220703125,-63.3697509765625
15.629999900000001,3.2369606494903564,-8.635885238647461,2.33913516998291,-18.9971923828125,-6.0272216796875,-52.947998046875
15.649999900000001,3.670311212539673,-7.82185697555542,2.183511972427368,-12.7105712890625,-4.608154296875,-52.30712890625
15.6699999,4.503493309020996,-7.161057472229004,2.190694570541382,-9.0179443359375,11.5203857421875,-54.7637939453125
15.6899999,6.215347766876221,-6.653486728668213,2.3558945655822754,-20.9197998046875,29.6478271484375,-67.2454833984375
15.709999900000001,9.133879661560059,-6.215347766876221,2.5522189140319824,13.427734375,37.3382568359375,-100.0518798828125
15.729999900000001,13.4290771484375,-5.9974751472473145,3.0310592651367188,36.92626953125,75.3326416015625,-137.75634765625
15.7499999,18.16002082824707,-4.920084476470947,4.050989151000977,83.984375,135.5438232421875,-202.880859375
15.7699999,21.73456382751465,-1.5203180313110352,6.708553314208984,174.37744140625,235.870361328125,-305.1300048828125
15.789999900000002,23.223756790161133,5.683835029602051,10.560823440551758,176.1932373046875,249.420166015625,-282.5927734375
15.809999900000001,20.695480346679688,17.044321060180664,16.28057098388672,85.357666015625,133.4075927734375,-71.59423828125
15.8299999,12.356474876403809,29.182924270629883,21.610065460205078,68.4967041015625,-30.364990234375,184.63134765625
15.8499999,-2.612074136734009,31.510087966918945,22.65872573852539,228.6834716796875,-205.780029296875,499.9847412109375
15.869999900000002,-20.7098445892334,20.592529296875,23.03940200805664,274.0020751953125,-39.61181640625,499.9847412109375
15.889999900000001,-36.32722091674805,-3.579331636428833,19.266141891479492,-71.502685546875,29.205322265625,496.734619140625
15.9099999,-43.94557189941406,-32.56832504272461,16.541540145874023,-12.6495361328125,-43.76220703125,99.365234375
15.9299999,-42.0517578125,-49.14338302612305,14.410699844360352,121.368408203125,9.70458984375,-193.4356689453125
15.9499999,-33.049560546875,-49.981353759765625,10.17296314239502,-70.4803466796875,-268.280029296875,-177.0477294921875
15.969999900000001,-22.29720115661621,-38.051048278808594,3.6727054119110107,-80.3680419921875,-298.6602783203125,28.7017822265625
15.9899999,-12.753912925720215,-21.492748260498047,-4.072536945343018,45.7305908203125,-106.842041015625,54.5806884765625
16.0099999,-5.552153587341309,-8.822632789611816,-9.227252960205078,104.7210693359375,58.502197265625,-53.7872314453125
16.0299999,-1.1899182796478271,-2.0470423698425293,-9.742006301879883,51.513671875,-44.12841796875,-87.860107421875
16.0499999,0.8667010068893433,0.5722141861915588,-5.884947776794434,-24.2767333984375,-198.9593505859375,-24.4598388671875
16.0699999,1.0869675874710083,1.0869675874710083,-1.3263877630233765,-32.623291015625,-174.8809814453125,6.7291259765625
16.089999900000002,0.5674257874488831,-0.3495534360408783,1.843535304069519,-4.0283203125,-47.30224609375,5.9967041015625
16.109999900000002,-0.035913024097681046,-2.5474305152893066,3.0573954582214355,11.199951171875,26.4739990234375,0.457763671875
16.1299999,-0.21547815203666687,-4.458003520965576,4.048594951629639,4.3792724609375,4.8370361328125,0.48828125
16.1499999,0.06703764945268631,-5.6670756340026855,5.303156852722168,-22.4456787109375,-59.75341796875,11.0626220703125
16.1699999,0.7493851184844971,-6.552929878234863,6.1267619132995605,-24.658203125,-100.2655029296875,21.1181640625
16.1899999,1.4700398445129395,-7.223306655883789,6.251260757446289,-13.580322265625,-88.9739990234375,12.6190185546875
16.2099999,2.1164743900299072,-7.805097579956055,5.403713226318359,5.4473876953125,-39.154052734375,-5.4168701171875
16.2299999,2.5546131134033203,-7.8529815673828125,4.2760443687438965,25.3753662109375,-21.087646484375,-3.9520263671875
16.249999900000002,2.873042106628418,-7.6997528076171875,3.5673606395721436,19.2413330078125,-9.063720703125,31.585693359375
16.269999900000002,3.064578056335449,-7.29034423828125,3.3854012489318848,-3.6773681640625,-22.94921875,34.1796875
16.2899999,3.268085241317749,-7.316680431365967,3.6798880100250244,-24.3377685546875,-13.7481689453125,23.5137939453125
16.3099999,3.3470940589904785,-7.5968017578125,4.086902141571045,-18.218994140625,-4.8675537109375,8.4075927734375
16.3299999,3.308786630630493,-8.037335395812988,4.630385875701904,-15.8233642578125,3.7841796875,11.7950439453125
16.3499999,3.1938650608062744,-8.379706382751465,5.1331682205200195,-22.8118896484375,-1.9073486328125,22.9339599609375
16.3699999,3.023876667022705,-8.578424453735352,5.434837818145752,-27.984619140625,-14.2822265625,17.578125
16.3899999,2.875436305999756,-8.738836288452148,5.475539207458496,-17.974853515625,-15.2587890625,11.3067626953125
16.4099999,2.7724854946136475,-8.762778282165527,5.2265424728393555,-4.5166015625,-3.326416015625,10.6353759765625
16.429999900000002,2.698265314102173,-8.573636054992676,4.965574264526367,8.3465576171875,3.96728515625,9.979248046875
16.4499999,2.652775526046753,-8.341399192810059,4.970362663269043,9.4146728515625,-6.6986083984375,8.9569091796875
16.4699999,2.564189910888672,-8.11634349822998,5.166687488555908,10.3759765625,-38.787841796875,3.84521484375
16.4899999,2.5067291259765625,-7.884106159210205,5.506663799285889,14.3280029296875,-49.7894287109375,2.0294189453125
16.5099999,2.4588451385498047,-7.759607791900635,6.028599739074707,20.1568603515625,-38.299560546875,9.918212890625
16.5299999,2.432508945465088,-7.642292022705078,6.368576526641846,72.5555419921875,-46.7681884765625,20.9503173828125
16.5499999,2.425326347351074,-7.716512203216553,6.643909931182861,90.057373046875,-94.7265625,24.6429443359375
16.5699999,2.4636335372924805,-7.860164165496826,6.5696892738342285,56.5643310546875,-117.340087890625,11.0015869140625
16.589999900000002,2.4684219360351562,-7.783549785614014,6.133944988250732,33.0657958984375,-97.6104736328125,-19.1650390625
16.609999900000002,2.5713725090026855,-7.690176010131836,5.442020416259766,23.5748291015625,-48.33984375,7.8277587890625
16.6299999,2.626439332962036,-7.24485445022583,4.4508209228515625,2.0599365234375,-61.187744140625,25.146484375
16.6499999,2.8610711097717285,-6.957550048828125,3.823540210723877,-54.3060302734375,-41.6107177734375,28.6712646484375
16.6699999,3.047818660736084,-6.856993675231934,3.313575267791748,-87.8143310546875,-33.721923828125,18.218994140625
16.6899999,3.1531636714935303,-7.024587631225586,3.2178070545196533,-62.7899169921875,-14.0533447265625,29.35791015625
16.7099999,3.2154128551483154,-7.283161640167236,3.361459255218506,-24.0631103515625,4.1046142578125,83.1146240234375
16.7299999,3.1004912853240967,-7.659051418304443,3.49314022064209,-75.13427734375,-22.4456787109375,102.7374267578125
16.749999900000002,2.9328970909118652,-8.085219383239746,3.840299606323242,-253.5552978515625,-106.109619140625,78.55224609375
16.769999900000002,2.8993782997131348,-8.506598472595215,3.9887399673461914,-88.7603759765625,-67.779541015625,70.220947265625
16.7899999,2.695871114730835,-8.681375503540039,4.120420932769775,104.9041748046875,-36.651611328125,61.21826171875
16.8099999,2.5115175247192383,-8.662221908569336,4.175487995147705,34.5611572265625,-86.395263671875,89.53857421875
16.8299999,1.920149803161621,-8.523358345031738,3.885789394378662,160.430908203125,-26.2908935546875,112.1368408203125
16.8499999,1.800439715385437,-8.777143478393555,3.445256233215332,499.9847412109375,106.7047119140625,111.1907958984375
16.8699999,1.5897499322891235,-9.198522567749023,3.6559460163116455,243.133544921875,205.6732177734375,68.9544677734375
16.8899999,1.6280571222305298,-9.313444137573242,4.122815132141113,9.5672607421875,131.5155029296875,-45.3948974609375
16.9099999,1.6328455209732056,-9.248801231384277,5.1595048904418945,18.8140869140625,67.2454833984375,8.026123046875
16.929999900000002,1.4700398445129395,-8.698134422302246,6.232107162475586,30.3955078125,40.3594970703125,84.3048095703125
16.9499999,1.1037269830703735,-8.039729118347168,7.249642848968506,8.514404296875,42.266845703125,21.3470458984375
16.9699999,0.8954314589500427,-7.802703380584717,7.795520782470703,-2.9754638671875,9.5672607421875,3.4332275390625
16.9899999,0.6105214357376099,-7.817068576812744,7.9631147384643555,-9.307861328125,-30.7464599609375,21.026611328125
17.0099999,0.3974374830722809,-7.680599212646484,8.04930591583252,13.2904052734375,-16.8914794921875,8.3770751953125
17.0299999,0.1604115068912506,-7.565677165985107,7.850587368011475,40.83251953125,4.2266845703125,13.458251953125
17.0499999,0.023942016065120697,-7.694964408874512,7.618350028991699,30.6549072265625,-12.8936767578125,54.01611328125
17.0699999,0.023942016065120697,-7.922413349151611,7.438784599304199,43.9605712890625,-4.852294921875,41.7022705078125
17.089999900000002,0.12449848651885986,-8.26478385925293,7.117961883544922,-5.92041015625,10.07080078125,-38.6810302734375
17.109999900000002,-0.06703764945268631,-6.92881965637207,7.225700855255127,-93.414306640625,71.7010498046875,-102.0050048828125
17.1299999,-0.3902548849582672,-6.030993938446045,7.615955829620361,5.4779052734375,20.56884765625,132.87353515625
17.1499999,-1.0031704902648926,-4.663905143737793,8.020575523376465,129.669189453125,-18.7530517578125,223.7396240234375
17.1699999,-1.316810965538025,-4.644751071929932,8.413225173950195,143.73779296875,32.6690673828125,135.528564453125
17.1899999,-1.41257905960083,-5.408501625061035,8.389283180236816,134.002685546875,58.4259033203125,97.2747802734375
17.2099999,-1.2521674633026123,-6.44279670715332,8.379706382751465,150.6500244140625,52.825927734375,87.7838134765625
17.2299999,-1.0582371950149536,-7.026981830596924,8.341399192810059,182.55615234375,48.980712890625,42.54150390625
17.249999900000002,-1.0773907899856567,-6.856993675231934,8.439560890197754,254.8065185546875,73.1964111328125,-29.2510986328125
17.269999900000002,-1.3551181554794312,-5.6455278396606445,8.5903959274292,269.317626953125,77.33154296875,-0.152587890625
17.2899999,-1.9153614044189453,-4.244919776916504,9.330204010009766,219.2840576171875,59.26513671875,124.114990234375
17.3099999,-2.52109432220459,-3.0406360626220703,10.230423927307129,261.6119384765625,22.15576171875,186.1114501953125
17.3299999,-2.8850131034851074,-2.4229321479797363,11.200075149536133,267.5323486328125,-21.514892578125,145.6298828125
17.3499999,-2.693476915359497,-2.3774423599243164,11.688492774963379,250.4119873046875,-60.882568359375,122.98583984375
17.3699999,-2.1954829692840576,-2.1499931812286377,11.44907283782959,240.325927734375,-86.883544921875,81.3140869140625
17.3899999,-1.5969325304031372,-1.5394717454910278,11.101913452148438,192.5048828125,-58.9599609375,35.5224609375
17.409999900000003,-1.3072341680526733,-0.811634361743927,10.709263801574707,209.4268798828125,-55.2520751953125,34.0118408203125
17.429999900000002,-1.3024457693099976,-0.3256114423274994,10.402806282043457,272.0184326171875,-110.595703125,62.3016357421875
17.4499999,-1.3120225667953491,0.15322890877723694,9.96945571899414,251.0528564453125,-108.2611083984375,54.8095703125
17.4699999,-1.213860273361206,0.7445967197418213,9.469067573547363,168.02978515625,-33.599853515625,5.5694580078125
17.4899999,-0.7972691655158997,1.37906014919281,8.975862503051758,174.1790771484375,-4.302978515625,3.8909912109375
17.5099999,-0.33279404044151306,2.161964178085327,8.738836288452148,199.89013671875,-45.5780029296875,17.578125
17.5299999,0.07182604819536209,2.8610711097717285,8.700529098510742,185.8062744140625,-63.1103515625,6.6070556640625
17.5499999,0.22505496442317963,3.404554843902588,8.901641845703125,110.1531982421875,-31.890869140625,-14.556884765625
17.5699999,0.23942017555236816,3.8570590019226074,8.93037223815918,101.4862060546875,-23.3001708984375,0.640869140625
17.589999900000002,0.1364694982767105,4.32871675491333,9.08838939666748,125.1678466796875,-33.5693359375,27.2979736328125
17.609999900000002,0.08619125932455063,4.807557106018066,9.08838939666748,121.1700439453125,-38.26904296875,27.0233154296875
17.6299999,0.002394201699644327,5.0254292488098145,9.727641105651855,92.7734375,-33.8134765625,11.260986328125
17.6499999,0.038307227194309235,5.262455463409424,9.114726066589355,198.66943359375,-108.82568359375,10.528564453125
17.6699999,0.08619125932455063,5.48272180557251,8.959102630615234,178.558349609375,-81.146240234375,21.9879150390625
17.6899999,0.19393034279346466,5.796362400054932,7.9176249504089355,82.3516845703125,-29.5867919921875,31.036376953125
17.7099999,0.646434485912323,6.1770405769348145,6.636727333068848,28.472900390625,-34.6527099609375,31.8450927734375
17.7299999,1.4269442558288574,6.430825710296631,5.5760955810546875,-13.18359375,-22.76611328125,-22.4609375
17.749999900000002,1.5945383310317993,7.24485445022583,4.917690277099609,-4.119873046875,12.3443603515625,-145.2178955078125
17.769999900000002,1.7884687185287476,7.833827972412109,4.632780075073242,37.59765625,23.0712890625,-55.084228515625
17.7899999,1.434126853942871,8.401253700256348,4.802768707275391,35.5377197265625,22.39990234375,84.1064453125
17.8099999,0.9169792532920837,8.868123054504395,5.315127849578857,11.077880859375,-3.2196044921875,26.1993408203125
17.8299999,0.7469909191131592,8.75080680847168,5.940014362335205,25.7720947265625,-10.3302001953125,14.1754150390625
17.8499999,0.727837324142456,8.47786808013916,6.517016887664795,46.69189453125,-21.8353271484375,38.26904296875
17.8699999,0.7924807667732239,8.370129585266113,6.868964672088623,56.94580078125,-27.618408203125,31.0821533203125
17.8899999,0.8930372595787048,8.355764389038086,6.821080684661865,69.3511962890625,-35.2935791015625,22.6898193359375
17.909999900000003,1.0127472877502441,8.372523307800293,6.294356346130371,82.0159912109375,-36.0870361328125,36.0565185546875
17.929999900000002,1.1085153818130493,8.396465301513672,5.329493045806885,63.41552734375,-18.00537109375,35.7513427734375
17.9499999,1.1851298809051514,8.38688850402832,4.280832767486572,5.462646484375,14.09912109375,11.8408203125
17.9699999,1.2330138683319092,8.300697326660156,3.488351821899414,-26.5350341796875,40.2069091796875,2.0599365234375
17.9899999,1.1204863786697388,8.214506149291992,3.375824451446533,-24.4140625,32.3333740234375,9.8724365234375
18.0099999,1.070208191871643,7.888894557952881,4.036623954772949,-5.7373046875,-7.7667236328125,23.7579345703125
18.0299999,0.8930372595787048,7.793126583099365,4.790797710418701,87.3260498046875,-36.468505859375,-2.3193359375
18.0499999,0.8619126081466675,7.666234016418457,5.509057998657227,136.3677978515625,-28.656005859375,-10.68115234375
18.0699999,0.8882488012313843,7.69735860824585,5.5329999923706055,141.4947509765625,-8.6669921875,13.9007568359375
18.089999900000002,0.9433154463768005,7.864952564239502,5.056553840637207,117.9046630859375,-6.6375732421875,3.0517578125
18.109999900000002,0.993593692779541,8.317456245422363,4.323928356170654,61.95068359375,-1.434326171875,-18.951416015625
18.1299999,1.115697979927063,8.485051155090332,3.4955344200134277,126.922607421875,42.66357421875,11.2762451171875
18.1499999,1.235408067703247,8.738836288452148,2.7724854946136475,140.4876708984375,44.921875,-14.09912109375
18.1699999,1.3000515699386597,8.954314231872559,2.2433669567108154,45.22705078125,9.9639892578125,-80.3680419921875
18.1899999,1.3838485479354858,8.93037223815918,1.922544002532959,18.2037353515625,1.739501953125,-93.1854248046875
18.2099999,1.259350061416626,9.081207275390625,1.8195933103561401,-25.1922607421875,-16.7083740234375,-99.945068359375
18.2299999,1.1683704853057861,9.248801231384277,1.8698714971542358,-64.2547607421875,-24.71923828125,-99.6551513671875
18.249999900000002,0.7637503147125244,9.38048267364502,1.9943699836730957,-55.938720703125,-43.426513671875,-74.798583984375
18.269999900000002,0.40222588181495667,9.38048267364502,2.0685901641845703,-26.824951171875,-41.595458984375,-41.50390625
18.2899999,-0.09576806426048279,9.476250648498535,2.1811177730560303,-14.6942138671875,-22.064208984375,-26.6571044921875
18.3099999,-0.6105214357376099,9.524134635925293,2.2577321529388428,9.552001953125,-3.72314453125,-38.482666015625
18.3299999,-0.9002198576927185,9.543288230895996,2.296039342880249,43.6248779296875,2.1820068359375,-41.9769287109375
18.3499999,-1.1635819673538208,9.533711433410645,2.31758713722229,17.059326171875,-26.214599609375,-15.625
18.3699999,-1.2713210582733154,9.332598686218262,2.27209734916687,8.60595703125,-32.1044921875,-0.67138671875
18.3899999,-1.45806884765625,9.138668060302734,2.2026655673980713,51.788330078125,-10.2081298828125,-16.4794921875
18.409999900000003,-1.556231141090393,9.090784072875977,2.1356279850006104,93.44482421875,-13.092041015625,-16.7236328125
18.429999900000002,-1.680729627609253,9.224859237670898,2.030282974243164,80.322265625,-3.204345703125,-16.815185546875
18.4499999,-1.889025092124939,9.337387084960938,1.821987509727478,56.7474365234375,9.979248046875,-13.3514404296875
18.4699999,-1.6831238269805908,9.378087997436523,1.5969325304031372,53.4515380859375,5.9051513671875,4.058837890625
18.4899999,-1.6184803247451782,9.473855972290039,1.3718775510787964,30.853271484375,3.47900390625,-0.396728515625
18.5099999,-1.2521674633026123,9.509769439697266,1.1492167711257935,1.953125,3.7384033203125,12.9852294921875
18.5299999,-0.8690952062606812,9.710882186889648,1.0797849893569946,3.4942626953125,-29.144287109375,17.5323486328125
18.5499999,-0.5434837937355042,9.86889934539795,0.993593692779541,23.4832763671875,-28.4576416015625,23.345947265625
18.5699999,-0.2968810200691223,9.938331604003906,0.9552865028381348,2.99072265625,-5.9356689453125,22.7203369140625
18.589999900000002,-0.2513911724090576,10.120290756225586,0.8571242094039917,15.1214599609375,-8.453369140625,-7.9193115234375
18.609999900000002,-0.38067805767059326,10.290278434753418,0.49559974670410156,54.718017578125,28.6712646484375,-5.0201416015625
18.6299999,-0.6200982332229614,10.532093048095703,0.8451532125473022,8.392333984375,78.18603515625,32.4249267578125
18.6499999,-0.8259995579719543,10.556035041809082,0.8427590131759644,86.212158203125,-12.359619140625,58.0902099609375
18.6699999,-0.8164227604866028,10.309432983398438,1.0199298858642578,95.1385498046875,-78.277587890625,59.9365234375
18.6899999,-0.6200982332229614,9.854534149169922,1.0319008827209473,34.637451171875,-37.017822265625,44.677734375
18.7099999,-0.2753331959247589,9.275136947631836,0.7086837291717529,13.031005859375,-10.3912353515625,44.586181640625
18.7299999,0.1173158809542656,8.767566680908203,0.33518823981285095,32.6690673828125,-43.8995361328125,39.1082763671875
18.749999900000002,0.4668693244457245,8.53532886505127,-0.033518824726343155,36.19384765625,-64.056396484375,16.9525146484375
18.769999900000002,0.6871358752250671,8.669404029846191,-0.21787235140800476,20.660400390625,-39.2303466796875,7.5531005859375
18.7899999,0.8355764150619507,8.944737434387207,-0.5386953949928284,39.5050048828125,-39.2608642578125,32.8521728515625
18.8099999,0.8978256583213806,9.299078941345215,-0.950498104095459,66.7724609375,-80.810546875,35.491943359375
18.8299999,0.9600749015808105,9.308655738830566,-1.3551181554794312,40.2069091796875,-74.9053955078125,18.768310546875
18.8499999,1.0127472877502441,9.258378028869629,-1.8602946996688843,21.3470458984375,-48.5992431640625,7.0953369140625
18.8699999,1.0319008827209473,9.224859237670898,-2.2649147510528564,43.243408203125,-37.689208984375,24.2767333984375
18.8899999,0.993593692779541,9.370905876159668,-2.432508945465088,43.0908203125,-45.4864501953125,50.0946044921875
18.909999900000003,0.9265560507774353,9.526528358459473,-2.4899697303771973,42.17529296875,-61.004638671875,53.64990234375
18.929999900000002,0.9361328482627869,9.550470352172852,-2.5258827209472656,39.0472412109375,-57.0526123046875,41.1224365234375
18.9499999,1.0319008827209473,9.342175483703613,-2.5785553455352783,33.6761474609375,-36.895751953125,30.609130859375
18.9699999,1.1971008777618408,9.030928611755371,-2.6144683361053467,28.350830078125,-31.4483642578125,30.3497314453125
18.9899999,1.3742717504501343,8.863334655761719,-2.6001031398773193,0.1373291015625,-37.1551513671875,19.4244384765625
19.0099999,1.482010841369629,8.803479194641113,-2.5474305152893066,-22.979736328125,-43.7164306640625,6.378173828125
19.0299999,1.5418659448623657,8.916007041931152,-2.4612393379211426,-10.1776123046875,-40.8782958984375,8.85009765625
19.0499999,1.556231141090393,8.99740982055664,-2.473210334777832,25.7568359375,-42.6788330078125,18.0206298828125
19.0699999,1.5418659448623657,9.064447402954102,-2.365471363067627,27.2064208984375,-30.7769775390625,13.3209228515625
19.089999900000002,1.53707754611969,8.96389102935791,-2.2649147510528564,12.115478515625,-24.6734619140625,2.9296875
19.109999900000002,1.5179238319396973,8.937555313110352,-2.341529369354248,24.90234375,-43.7469482421875,-3.448486328125
19.1299999,1.45806884765625,8.911218643188477,-2.33913516998291,24.3072509765625,-30.731201171875,1.52587890625
19.1499999,1.403002142906189,8.908824920654297,-2.3056161403656006,1.373291015625,-13.519287109375,3.6163330078125
19.1699999,1.3215993642807007,8.966285705566406,-2.343923568725586,-2.4871826171875,-45.196533203125,-2.960205078125
19.1899999,1.278503656387329,8.990227699279785,-2.3032219409942627,-10.07080078125,-51.8951416015625,1.4495849609375
19.2099999,1.2042834758758545,9.0859956741333,-2.31758713722229,-23.92578125,-34.2864990234375,2.349853515625
19.2299999,1.1420341730117798,9.311050415039062,-2.5953147411346436,-13.427734375,-45.4559326171875,-6.0882568359375
19.249999900000002,1.0127472877502441,9.725247383117676,-2.9688100814819336,8.11767578125,-53.131103515625,-12.0697021484375
19.269999900000002,0.9169792532920837,10.036493301391602,-3.3207578659057617,1.3580322265625,-33.4930419921875,8.9263916015625
19.2899999,0.8619126081466675,10.237606048583984,-3.60566782951355,-10.19287109375,-25.1312255859375,20.843505859375
19.3099999,0.8810662031173706,10.029311180114746,-3.6343982219696045,-3.23486328125,-28.411865234375,15.5792236328125
19.3299999,0.9911994934082031,9.44991397857666,-3.4955344200134277,4.5623779296875,-30.181884765625,11.383056640625
19.3499999,1.091755986213684,8.942343711853027,-3.272873640060425,-9.1094970703125,-25.3143310546875,-0.762939453125
19.3699999,1.158793568611145,8.564059257507324,-2.985569477081299,-6.8206787109375,-11.8560791015625,-0.8087158203125
19.3899999,1.158793568611145,8.576030731201172,-2.806004285812378,-7.14111328125,-15.6707763671875,7.9345703125
19.409999900000003,1.0893617868423462,8.904036521911621,-2.5785553455352783,-28.350830078125,-22.918701171875,6.8511962890625
19.429999900000002,1.015141487121582,9.248801231384277,-2.403778553009033,-27.5115966796875,-19.805908203125,15.838623046875
19.4499999,0.9672574996948242,9.545681953430176,-2.3965959548950195,-8.7890625,-18.6614990234375,18.1121826171875
19.4699999,0.9433154463768005,9.701305389404297,-2.5306711196899414,-8.056640625,-7.32421875,17.27294921875
19.4899999,0.9169792532920837,9.773131370544434,-2.6815059185028076,-27.1759033203125,2.9449462890625,13.4429931640625
19.5099999,0.9097966551780701,9.763554573059082,-2.8419175148010254,-26.3671875,-10.3912353515625,21.148681640625
19.5299999,0.8978256583213806,9.715670585632324,-2.978386878967285,-23.3612060546875,-24.871826171875,29.9530029296875
19.5499999,0.9289502501487732,9.57441234588623,-3.114856481552124,-41.961669921875,-19.0887451171875,32.073974609375
19.5699999,0.9864110946655273,9.406818389892578,-3.095702886581421,-68.2525634765625,3.0670166015625,23.4222412109375
19.589999900000002,1.070208191871643,9.246406555175781,-3.043030261993408,-54.9774169921875,-6.2713623046875,19.9737548828125
19.609999900000002,1.1468225717544556,9.244012832641602,-2.7533318996429443,-32.470703125,-17.02880859375,18.2037353515625
19.6299999,1.2210428714752197,9.244012832641602,-2.279279947280884,-45.10498046875,-7.01904296875,17.8985595703125
19.6499999,1.3120225667953491,9.23443603515625,-1.7956513166427612,-61.6302490234375,-12.3291015625,12.451171875
19.6699999,1.403002142906189,9.20091724395752,-1.3982137441635132,-40.3594970703125,-26.0162353515625,3.7384033203125
19.6899999,1.5155296325683594,9.121908187866211,-1.161187767982483,-19.6380615234375,-25.4058837890625,1.5869140625
19.7099999,1.6065093278884888,9.062053680419922,-1.1037269830703735,-21.759033203125,-15.7318115234375,0.152587890625
19.7299999,1.678335428237915,9.047688484191895,-1.2114660739898682,-21.087646484375,-11.04736328125,-6.1492919921875
19.749999900000002,1.7142484188079834,9.066842079162598,-1.335964560508728,-30.76171875,-15.594482421875,-12.6190185546875
19.769999900000002,1.7094600200653076,9.17697525024414,-1.314416766166687,-44.158935546875,-16.265869140625,-20.6298828125
19.7899999,1.6424223184585571,9.394847869873047,-1.2832920551300049,-26.4129638671875,-20.0653076171875,-18.280029296875
19.8099999,1.5705963373184204,9.59835433959961,-1.1037269830703735,-1.190185546875,-5.1727294921875,1.922607421875
19.8299999,1.4676456451416016,9.847352027893066,-0.9097966551780701,-2.0294189453125,-2.7923583984375,3.3721923828125
19.8499999,1.3886369466781616,9.964667320251465,-0.6967126727104187,-2.3193359375,-12.7105712890625,1.373291015625
19.8699999,1.3694833517074585,9.84256362915039,-0.5099649429321289,11.0931396484375,-18.5546875,6.5460205078125
19.8899999,1.359906554222107,9.746794700622559,-0.4357447028160095,22.979736328125,-23.9715576171875,-6.4697265625
19.909999900000003,1.3742717504501343,9.564835548400879,-0.395043283700943,23.13232421875,-15.533447265625,-13.397216796875
19.929999900000002,1.400607943534851,9.387664794921875,-0.5027823448181152,21.759033203125,-11.77978515625,-0.6103515625
19.9499999,1.3886369466781616,9.337387084960938,-0.6177040338516235,26.763916015625,-12.7105712890625,-3.692626953125
19.9699999,1.3742717504501343,9.30386734008789,-0.7924807667732239,31.0516357421875,-6.6680908203125,-10.4217529296875
19.9899999,1.3431471586227417,9.30386734008789,-1.0271124839782715,20.1568603515625,-6.439208984375,-7.1563720703125
20.0099999,1.3120225667953491,9.232041358947754,-1.1492167711257935,2.0904541015625,-4.1961669921875,-3.3721923828125
20.0299999,1.2665326595306396,9.279925346374512,-1.2665326595306396,-5.0811767578125,-14.6484375,-14.16015625
20.0499999,1.1827356815338135,9.50498104095459,-1.2497732639312744,1.190185546875,-25.08544921875,-19.3023681640625
20.0699999,1.1300631761550903,9.770736694335938,-1.2282254695892334,4.8370361328125,-21.4996337890625,5.889892578125
20.089999900000002,1.0989385843276978,10.129867553710938,-1.335964560508728,3.570556640625,-18.98193359375,19.866943359375
20.109999900000002,1.0773907899856567,10.493785858154297,-1.3335703611373901,-6.439208984375,-10.43701171875,10.711669921875
20.1299999,1.115697979927063,10.72602367401123,-1.338358759880066,-4.0130615234375,-23.956298828125,8.23974609375
20.1499999,1.2186486721038818,10.716446876525879,-1.3479355573654175,5.2490234375,-45.71533203125,20.233154296875
20.1699999,1.3646949529647827,10.594342231750488,-1.290474772453308,2.685546875,-39.4439697265625,16.510009765625
20.1899999,1.5705963373184204,10.204087257385254,-1.2952631711959839,-4.82177734375,-24.7955322265625,9.5672607421875
20.2099999,1.8148049116134644,9.591172218322754,-1.3551181554794312,-0.1678466796875,-20.5841064453125,14.9993896484375
20.2299999,2.0039467811584473,8.978256225585938,-1.4197616577148438,3.3721923828125,-15.625,14.5416259765625
20.249999900000002,2.123656988143921,8.446743965148926,-1.4891934394836426,-2.6397705078125,-1.739501953125,2.7008056640625
20.269999900000002,2.078166961669922,8.341399192810059,-1.4628572463989258,-5.584716796875,5.3558349609375,-8.758544921875
20.2899999,1.9536685943603516,8.422801971435547,-1.403002142906189,-0.335693359375,-6.4239501953125,3.6773681640625
20.3099999,1.7525556087493896,8.803479194641113,-1.3862427473068237,6.5765380859375,-21.728515625,17.3187255859375
20.3299999,1.580173134803772,9.162610054016113,-1.414973258972168,-0.1220703125,-13.946533203125,6.072998046875
