# Time (seconds),Accel_X,Accel_Y,Accel_Z,Gyro_X,Gyro_Y,Gyro_Z
0.0099999,3.4189200401306152,2.0805611610412598,8.341399192810059,-107.3760986328125,54.4586181640625,57.9071044921875
0.029999900000000003,3.3207578659057617,1.941697597503662,8.370129585266113,-91.949462890625,48.33984375,17.8680419921875
0.0499999,3.138798475265503,1.4700398445129395,8.283937454223633,34.332275390625,-20.20263671875,-85.0677490234375
0.0699999,3.0550012588500977,0.828393816947937,8.523358345031738,151.4434814453125,-45.4254150390625,-136.444091796875
0.08999990000000001,2.942473888397217,0.6368576288223267,8.465897560119629,167.8009033203125,-25.421142578125,-137.359619140625
0.10999990000000001,2.8371291160583496,0.8595184087753296,8.02536392211914,125.8697509765625,-52.8717041015625,-134.3231201171875
0.1299999,2.918531894683838,1.623268723487854,7.510610580444336,125.2593994140625,-68.9544677734375,-125.0152587890625
0.14999990000000002,3.045424461364746,2.4612393379211426,7.208941459655762,147.5372314453125,-64.666748046875,-131.1798095703125
0.1699999,2.896984100341797,3.157952070236206,6.495469093322754,169.9371337890625,-101.62353515625,-173.5992431640625
0.1899999,2.7940332889556885,3.445256233215332,6.009446144104004,46.3409423828125,-112.79296875,-117.2027587890625
0.20999990000000002,2.5282769203186035,3.9480385780334473,5.2911858558654785,7.4615478515625,-31.402587890625,-71.4263916015625
0.2299999,2.4612393379211426,4.302380561828613,4.999093055725098,70.61767578125,19.9737548828125,-116.8365478515625
0.2499999,2.5306711196899414,4.960785865783691,5.0014872550964355,94.696044921875,5.2032470703125,-133.7432861328125
0.2699999,2.564189910888672,5.633556365966797,5.188235282897949,110.9771728515625,-6.683349609375,-136.2152099609375
0.28999990000000003,2.557007312774658,6.172252178192139,5.410895824432373,50.933837890625,11.627197265625,-120.7275390625
0.3099999,2.3798365592956543,6.596025466918945,5.315127849578857,17.8070068359375,45.9136962890625,-107.1014404296875
0.3299999,2.078166961669922,6.998251438140869,4.910507678985596,55.8624267578125,56.7779541015625,-110.3973388671875
0.34999990000000003,1.802833914756775,7.220912456512451,4.446032524108887,20.263671875,39.4134521484375,-97.47314453125
0.3699999,1.4508862495422363,7.376535415649414,4.072536945343018,-45.8984375,62.80517578125,-77.0111083984375
0.3899999,1.0103530883789062,7.55131196975708,3.5721490383148193,-46.112060546875,67.779541015625,-69.0155029296875
0.40999990000000003,0.569819986820221,7.7213006019592285,3.5865142345428467,-108.673095703125,91.4154052734375,-41.4886474609375
0.4299999,0.181959331035614,7.7428483963012695,4.101267337799072,-144.5770263671875,147.4609375,-1.64794921875
0.4499999,-0.10534487664699554,7.6997528076171875,5.135562419891357,-71.3348388671875,156.7840576171875,-9.552001953125
0.4699999,-0.17717093229293823,7.625532627105713,6.610390663146973,16.11328125,144.7906494140625,-50.262451171875
0.4899999,-0.031124621629714966,7.565677165985107,8.26239013671875,37.2161865234375,124.08447265625,-34.11865234375
0.5099999,0.10773907601833344,7.833827972412109,9.423578262329102,58.197021484375,96.9390869140625,-19.4244384765625
0.5299999,0.15083470940589905,8.180987358093262,9.959878921508789,26.123046875,52.9327392578125,-18.1121826171875
0.5499999,0.11252748221158981,8.283937454223633,9.770736694335938,-71.1517333984375,22.0947265625,-11.4593505859375
0.5699999,-0.0071826050989329815,7.85537576675415,9.188945770263672,-160.369873046875,18.3563232421875,-12.0391845703125
0.5899998999999999,-0.28969839215278625,6.988674640655518,9.02135181427002,-153.7628173828125,55.84716796875,-26.519775390625
0.6099998999999999,-0.6416460275650024,6.1267619132995605,8.528146743774414,-14.617919921875,15.68603515625,-35.247802734375
0.6299999,-1.0845733880996704,5.331887245178223,8.774748802185059,-45.989990234375,14.1143798828125,-0.6561279296875
0.6499999,-1.5442601442337036,5.140350818634033,8.80587387084961,-102.874755859375,36.2396240234375,12.9241943359375
0.6699999,-1.889025092124939,5.293580055236816,8.942343711853027,-85.38818359375,25.665283203125,-0.5645751953125
0.6899999,-2.030282974243164,5.518634796142578,9.337387084960938,-69.8699951171875,21.17919921875,15.8843994140625
0.7099999,-2.0159177780151367,5.731719017028809,9.785101890563965,-66.6351318359375,19.6075439453125,35.0189208984375
0.7299998999999999,-1.941697597503662,5.822698593139648,10.108319282531738,-71.4111328125,9.1400146484375,34.2559814453125
0.7499998999999999,-1.766920804977417,5.705382823944092,10.177751541137695,-54.7027587890625,3.3721923828125,39.0472412109375
0.7699999,-1.5298948287963867,5.537788391113281,10.146626472473145,-34.271240234375,16.143798828125,54.6417236328125
0.7899999,-1.1540051698684692,5.058948040008545,9.821015357971191,-26.7333984375,5.3558349609375,71.533203125
0.8099999,-0.8930372595787048,4.587290287017822,9.648633003234863,-24.7802734375,4.7607421875,33.75244140625
0.8299999,-0.6560112833976746,4.000710964202881,9.258378028869629,-14.95361328125,-4.8065185546875,22.4456787109375
0.8499998999999999,-0.6703764796257019,3.5482068061828613,9.153033256530762,-72.662353515625,7.7667236328125,35.5224609375
0.8699998999999999,-0.8954314589500427,3.3039982318878174,9.0859956741333,-68.3441162109375,4.2266845703125,37.3382568359375
0.8899999,-1.072602391242981,3.023876667022705,9.14585018157959,-28.9764404296875,-21.42333984375,37.3382568359375
0.9099999,-1.3287819623947144,2.741360902786255,9.404424667358398,-37.1246337890625,-24.078369140625,9.1552734375
0.9299999,-1.2952631711959839,2.346317768096924,9.512163162231445,-59.417724609375,-22.2930908203125,6.988525390625
0.9499999,-1.0869675874710083,2.073378562927246,9.801861763000488,-87.4481201171875,-3.0059814453125,16.5557861328125
0.9699998999999999,-0.7996633648872375,1.7932571172714233,9.940725326538086,-86.2274169921875,-9.6435546875,18.890380859375
0.9899998999999999,-0.5554547905921936,1.50355863571167,10.120290756225586,-63.201904296875,-24.749755859375,17.7459716796875
1.0099999,-0.5650315880775452,1.1013327836990356,10.17296314239502,-34.36279296875,-18.37158203125,-0.6561279296875
1.0299999,-0.730231523513794,0.6368576288223267,10.08198356628418,-10.8184814453125,-9.5672607421875,-17.5933837890625
1.0499999,-0.9145850539207458,0.31124621629714966,10.036493301391602,-9.2010498046875,-9.9639892578125,-19.989013671875
1.0699999,-1.0031704902648926,0.1173158809542656,10.034099578857422,-22.0184326171875,-21.5911865234375,-11.688232421875
1.0899999,-1.0654197931289673,0.15801730751991272,9.928754806518555,-26.336669921875,-31.3873291015625,-5.7220458984375
1.1099999,-1.0678139925003052,0.17238251864910126,9.921571731567383,-18.2342529296875,-13.153076171875,3.082275390625
1.1299999,-1.0965443849563599,0.19393034279346466,9.892841339111328,-50.5218505859375,-2.3956298828125,12.420654296875
1.1499999,-1.0295066833496094,0.16759411990642548,9.931148529052734,-37.3077392578125,-14.7705078125,-4.0435791015625
1.1699998999999999,-0.8379706144332886,0.033518824726343155,10.122684478759766,-14.3585205078125,-35.675048828125,-12.75634765625
1.1899998999999999,-0.5746083855628967,-0.038307227194309235,10.433931350708008,24.3072509765625,-28.7017822265625,-17.0440673828125
1.2099999,-0.35434186458587646,-0.2513911724090576,10.551246643066406,44.9981689453125,-36.9110107421875,-42.4346923828125
1.2299999,-0.17477671802043915,-0.3471592366695404,10.515334129333496,34.881591796875,-43.212890625,-48.004150390625
1.2499999,0.038307227194309235,-0.38067805767059326,10.505757331848145,-8.23974609375,-27.587890625,-5.18798828125
1.2699999,0.2346317619085312,-0.26336219906806946,10.287884712219238,-5.92041015625,-53.8177490234375,3.3416748046875
1.2899999,0.48602294921875,-0.10055647045373917,10.086771965026855,34.4696044921875,-84.7930908203125,-8.4381103515625
1.3099999,0.8403648138046265,0,9.93354320526123,62.6983642578125,-79.6661376953125,-22.2625732421875
1.3299999,1.1563993692398071,0.07900865375995636,9.68933391571045,111.3739013671875,-78.399658203125,-43.426513671875
1.3499999,1.4173674583435059,0.3519476354122162,9.315838813781738,145.782470703125,-94.8333740234375,-55.48095703125
1.3699999,1.6615760326385498,0.828393816947937,9.105149269104004,93.109130859375,-84.3353271484375,-18.9056396484375
1.3899999,1.8100165128707886,1.314416766166687,8.78193187713623,19.287109375,-64.483642578125,23.49853515625
1.4099999,1.9153614044189453,2.030282974243164,8.42040729522705,37.628173828125,-42.1600341796875,3.4942626953125
1.4299998999999999,2.1308395862579346,2.470816135406494,8.293514251708984,59.4482421875,-1.312255859375,9.1705322265625
1.4499999,2.4372973442077637,2.6862943172454834,8.322244644165039,51.3458251953125,6.40869140625,34.6527099609375
1.4699999,2.7748796939849854,2.846705913543701,8.544905662536621,88.0126953125,-14.2822265625,3.3111572265625
1.4899999,3.098097085952759,2.762908697128296,8.93037223815918,57.9376220703125,-16.8609619140625,-21.728515625
1.5099999,3.318363666534424,2.829946517944336,9.160215377807617,13.0615234375,-5.5694580078125,-24.7955322265625
1.5299999,3.361459255218506,2.9712042808532715,9.069235801696777,-10.833740234375,0.1068115234375,-12.725830078125
1.5499999,3.270479440689087,3.2297780513763428,8.813055992126465,-15.2435302734375,-4.08935546875,-0.18310546875
1.5699999,3.1268274784088135,3.380612850189209,8.542511940002441,6.0272216796875,6.8206787109375,-5.859375
1.5899999,2.8562827110290527,3.428496837615967,8.248024940490723,26.18408203125,7.232666015625,-24.8565673828125
1.6099999,2.609679937362671,3.399766445159912,8.109161376953125,6.683349609375,9.796142578125,-20.660400390625
1.6299999,2.4612393379211426,3.4117374420166016,8.054094314575195,-2.3956298828125,24.7955322265625,-22.735595703125
1.6499999,2.406172752380371,3.490746021270752,8.094796180725098,21.331787109375,27.3895263671875,-24.4598388671875
1.6699999,2.473210334777832,3.5721490383148193,8.252813339233398,56.488037109375,6.0882568359375,-28.5797119140625
1.6899998999999999,2.5546131134033203,3.6583402156829834,8.480262756347656,105.743408203125,-9.3536376953125,-28.7322998046875
1.7099999,2.5689783096313477,3.7493197917938232,8.576030731201172,167.0074462890625,-21.4385986328125,-28.4576416015625
1.7299999,2.513911724090576,4.022258758544922,8.458714485168457,209.4268798828125,-32.958984375,-25.482177734375
1.7499999,2.473210334777832,4.517858505249023,8.180987358093262,214.2181396484375,-36.31591796875,-8.23974609375
1.7699999,2.3942017555236816,5.1810526847839355,7.706935405731201,221.49658203125,-41.9769287109375,4.7454833984375
1.7899999,2.298433542251587,5.971138954162598,7.082048416137695,224.1058349609375,-47.8515625,3.35693359375
1.8099999,2.164358377456665,6.696582317352295,6.40927791595459,191.4825439453125,-35.3546142578125,-5.3558349609375
1.8299999,2.03507137298584,7.405265808105469,5.571307182312012,153.961181640625,-29.8614501953125,-15.5029296875
1.8499999,2.0159177780151367,8.003816604614258,4.776432514190674,130.5084228515625,-16.754150390625,-15.411376953125
1.8699999,2.0590133666992188,8.585607528686523,4.027047157287598,123.5504150390625,-4.608154296875,-14.1448974609375
1.8899999,2.1571757793426514,9.141061782836914,3.5649664402008057,84.16748046875,6.622314453125,9.94873046875
1.9099999,2.212242364883423,9.334992408752441,3.555389642715454,38.238525390625,11.77978515625,44.403076171875
1.9299998999999999,2.078166961669922,9.315838813781738,3.667917013168335,68.8323974609375,-13.97705078125,32.16552734375
1.9499999,2.0207061767578125,9.107542991638184,4.0078935623168945,80.7647705078125,-48.858642578125,-16.387939453125
1.9699999,1.9608511924743652,8.786720275878906,4.153939723968506,63.0645751953125,-78.857421875,-48.4161376953125
1.9899999,1.9560627937316895,8.607154846191406,3.9695863723754883,79.1168212890625,-92.3004150390625,-54.1534423828125
2.0099999,2.0183119773864746,8.669404029846191,3.5865142345428467,77.6824951171875,-74.5086669921875,-38.0401611328125
2.0299999,2.030282974243164,8.803479194641113,3.1531636714935303,38.3453369140625,-63.65966796875,-15.3961181640625
2.0499999,1.9847931861877441,9.114726066589355,2.5019407272338867,14.678955078125,-95.855712890625,-14.129638671875
2.0699999,1.86508309841156,9.370905876159668,1.9536685943603516,-46.4019775390625,-99.7314453125,3.2501220703125
2.0899999,1.7717092037200928,9.531316757202148,1.6735470294952393,-93.56689453125,-57.281494140625,19.805908203125
2.1099999,1.6280571222305298,9.521739959716797,1.5921441316604614,-19.989013671875,-28.167724609375,-1.953125
2.1299999,1.5275006294250488,9.258378028869629,1.9584569931030273,22.5830078125,-19.5770263671875,-32.3486328125
2.1499999,1.4652514457702637,8.944737434387207,2.4588451385498047,10.1470947265625,-16.6015625,-42.0989990234375
2.1699999,1.4293384552001953,8.688557624816895,2.875436305999756,9.70458984375,-10.3607177734375,-45.013427734375
2.1899999,1.3455413579940796,8.60236644744873,3.1052796840667725,15.5181884765625,-11.16943359375,-46.7681884765625
2.2099999,1.1779472827911377,8.753201484680176,3.0597896575927734,21.1639404296875,-13.7786865234375,-43.4722900390625
2.2299999,0.9097966551780701,8.942343711853027,2.940079689025879,5.9814453125,-3.7384033203125,-32.0281982421875
2.2499999,0.5650315880775452,9.193734169006348,2.7485435009002686,-18.310546875,-0.213623046875,-25.8636474609375
2.2699999,0.2537853717803955,9.354146003723145,2.5929205417633057,-33.14208984375,-2.838134765625,-25.81787109375
2.2899999,0,9.440337181091309,2.4420857429504395,-25.177001953125,-1.007080078125,-27.7252197265625
2.3099999,-0.14844051003456116,9.5624418258667,2.248155355453491,-13.3056640625,5.584716796875,-36.56005859375
2.3299999,-0.20111294090747833,9.66539192199707,2.097320795059204,-13.9312744140625,20.477294921875,-30.82275390625
2.3499999,-0.12689268589019775,9.763554573059082,2.0901381969451904,-14.5111083984375,24.932861328125,-18.8140869140625
2.3699999,-0.004788403399288654,9.797073364257812,2.2649147510528564,-4.0283203125,18.7225341796875,-18.035888671875
2.3899999,0.1388636976480484,9.770736694335938,2.6144683361053467,1.953125,15.13671875,-15.7012939453125
2.4099999,0.16998831927776337,9.701305389404297,2.8874073028564453,3.1585693359375,11.04736328125,-11.6424560546875
2.4299999,0.0933738648891449,9.660603523254395,2.980781078338623,3.5247802734375,15.716552734375,-12.237548828125
2.4499999,-0.07182604819536209,9.746794700622559,2.8443117141723633,-1.6937255859375,24.23095703125,-12.6190185546875
2.4699999,-0.21308395266532898,9.995792388916016,2.607285737991333,-10.7879638671875,28.80859375,-1.3427734375
2.4899999,-0.24660277366638184,10.24239444732666,2.4636335372924805,-29.0374755859375,28.7017822265625,20.9808349609375
2.5099999,-0.15801730751991272,10.395624160766602,2.456450939178467,-29.449462890625,26.123046875,25.2838134765625
2.5299999,0.035913024097681046,10.340557098388672,2.561795711517334,-14.2974853515625,20.843505859375,12.63427734375
2.5499999,0.24181437492370605,10.098742485046387,2.698265314102173,-13.0462646484375,17.120361328125,8.60595703125
2.5699999,0.42616790533065796,9.780313491821289,2.801215887069702,-20.9503173828125,20.6756591796875,15.3350830078125
2.5899999,0.5626373887062073,9.497797966003418,2.9233202934265137,-32.0892333984375,27.2064208984375,20.2178955078125
2.6099999,0.6799532771110535,9.277531623840332,3.1316158771514893,-30.1513671875,29.2510986328125,16.9525146484375
2.6299999,0.7445967197418213,9.131484985351562,3.4093432426452637,-17.6849365234375,19.53125,11.3983154296875
2.6499999,0.7206547260284424,9.014169692993164,3.648763418197632,-0.732421875,14.0228271484375,8.23974609375
2.6699999,0.6153098344802856,8.927978515625,3.7684733867645264,-0.3814697265625,16.1895751953125,8.1634521484375
2.6899999,0.47165772318840027,8.83699893951416,3.7876269817352295,-12.02392578125,20.416259765625,9.4757080078125
2.7099999,0.36152446269989014,8.724471092224121,3.7636849880218506,-15.777587890625,19.2108154296875,11.77978515625
2.7299999,0.3232172429561615,8.60236644744873,3.754108190536499,-9.3231201171875,13.97705078125,10.0555419921875
2.7499999,0.3711012601852417,8.482656478881836,3.7876269817352295,-4.2572021484375,11.71875,7.4005126953125
2.7699999,0.45250412821769714,8.374917984008789,3.825934410095215,-1.2359619140625,13.7939453125,4.3792724609375
2.7899999,0.5602431893348694,8.317456245422363,3.866635799407959,3.11279296875,17.4102783203125,0.67138671875
2.8099999,0.667982280254364,8.29830265045166,3.9049429893493652,0.640869140625,12.8936767578125,2.9449462890625
2.8299999,0.751779317855835,8.35336971282959,3.9408559799194336,-2.349853515625,6.8359375,1.9073486328125
2.8499999,0.7996633648872375,8.432378768920898,3.9480385780334473,-5.1116943359375,3.4027099609375,4.058837890625
2.8699999,0.7972691655158997,8.530540466308594,3.931279182434082,-6.072998046875,5.2337646484375,4.0283203125
2.8899999,0.7805097699165344,8.611943244934082,3.912125587463379,-5.92041015625,6.256103515625,-0.8392333984375
2.9099999,0.7469909191131592,8.681375503540039,3.869029998779297,-1.983642578125,2.8076171875,-4.0283203125
2.9299999,0.6967126727104187,8.741230010986328,3.794809579849243,2.4566650390625,4.3182373046875,-5.157470703125
2.9499999,0.6607996821403503,8.808267593383789,3.7158010005950928,-5.615234375,8.60595703125,0.3509521484375
2.9699999,0.6488286852836609,8.848969459533691,3.6990416049957275,-19.2108154296875,12.87841796875,7.537841796875
2.9899999,0.6703764796257019,8.841787338256836,3.7876269817352295,-21.8658447265625,12.1307373046875,6.89697265625
3.0099999,0.7206547260284424,8.774748802185059,3.931279182434082,-11.016845703125,5.0811767578125,2.5787353515625
3.0299999,0.7493851184844971,8.669404029846191,4.041412353515625,-0.457763671875,3.9825439453125,-0.732421875
3.0499999,0.768538773059845,8.544905662536621,4.072536945343018,-1.800537109375,8.9569091796875,2.38037109375
3.0699999,0.751779317855835,8.429984092712402,4.055777549743652,-6.195068359375,11.8255615234375,6.0272216796875
3.0899999,0.727837324142456,8.334216117858887,4.041412353515625,-5.584716796875,8.1329345703125,5.340576171875
3.1099999,0.7230489253997803,8.22887134552002,4.07014274597168,-2.7008056640625,8.72802734375,3.5400390625
3.1299999,0.7230489253997803,8.164227485656738,4.110844135284424,1.5716552734375,10.7269287109375,-0.5340576171875
3.1499999,0.7469909191131592,8.180987358093262,4.129997730255127,11.0626220703125,10.650634765625,-8.60595703125
3.1699999,0.8044517636299133,8.29590892791748,4.211400985717773,16.1590576171875,10.528564453125,-12.5732421875
3.1899999,0.9193734526634216,8.470685958862305,4.393360137939453,10.4217529296875,6.5155029296875,-12.3443603515625
3.2099999,1.0558429956436157,8.647856712341309,4.613626480102539,9.33837890625,-5.9356689453125,-14.4195556640625
3.2299999,1.161187767982483,8.813055992126465,4.73573112487793,26.2298583984375,-15.655517578125,-21.6217041015625
3.2499999,1.192312479019165,8.923190116882324,4.651933670043945,31.7535400390625,-14.7857666015625,-25.2227783203125
3.2699999,1.1444283723831177,9.016563415527344,4.393360137939453,31.1279296875,-5.7220458984375,-26.1383056640625
3.2899999,1.0462661981582642,9.136273384094238,4.079719543457031,44.0826416015625,-3.7994384765625,-31.79931640625
3.3099999,0.9457096457481384,9.239224433898926,3.7828385829925537,48.4771728515625,-14.7247314453125,-29.4647216796875
3.3299999000000002,0.8475474119186401,9.349357604980469,3.550601005554199,28.5491943359375,-16.29638671875,-19.683837890625
3.3499999,0.7565677165985107,9.435548782348633,3.3518824577331543,3.936767578125,-8.4991455078125,-9.0179443359375
3.3699999,0.6440402865409851,9.50737476348877,3.117250680923462,-0.6103515625,-6.500244140625,-2.62451171875
3.3899999,0.569819986820221,9.543288230895996,2.9879636764526367,-3.936767578125,-6.927490234375,0.6866455078125
3.4099999,0.5482721924781799,9.533711433410645,2.9759926795959473,-8.056640625,-6.072998046875,5.859375
3.4299999,0.5961562395095825,9.490615844726562,3.1316158771514893,-11.016845703125,-7.7667236328125,8.5906982421875
3.4499999,0.6823474764823914,9.375694274902344,3.375824451446533,-12.5732421875,-15.7470703125,6.256103515625
3.4699999,0.7781155705451965,9.20091724395752,3.6320040225982666,2.9144287109375,-19.3023681640625,-4.4403076171875
3.4899999,0.8236053586006165,9.045293807983398,3.758896589279175,29.205322265625,-19.59228515625,-16.3421630859375
3.5099999,0.811634361743927,8.93037223815918,3.73016619682312,32.40966796875,-21.3165283203125,-14.892578125
3.5299999,0.811634361743927,8.892065048217773,3.691859006881714,21.8048095703125,-20.32470703125,-10.0250244140625
3.5499999,0.790086567401886,8.971074104309082,3.603273630142212,46.81396484375,-28.4576416015625,-18.768310546875
3.5699999,0.5650315880775452,9.277531623840332,3.098097085952759,5.7830810546875,-13.458251953125,15.3045654296875
3.5899999,0.43335050344467163,9.361329078674316,2.8107926845550537,-39.8101806640625,-1.6021728515625,33.843994140625
3.6099999,0.31364041566848755,9.332598686218262,2.537853717803955,3.2806396484375,-4.7607421875,16.265869140625
3.6299999,0.31124621629714966,9.205705642700195,2.451662540435791,5.889892578125,-3.35693359375,11.322021484375
3.6499999,0.395043283700943,9.155426979064941,2.499546527862549,-4.1351318359375,9.33837890625,11.3372802734375
3.6699999,0.524330198764801,9.114726066589355,2.719813108444214,23.4527587890625,16.78466796875,5.523681640625
3.6899999,0.6177040338516235,9.23443603515625,2.808398485183716,71.075439453125,-1.6326904296875,-8.4228515625
3.7099999,0.6991068720817566,9.349357604980469,2.8586769104003906,38.63525390625,-4.82177734375,0.732421875
3.7299999,0.646434485912323,9.497797966003418,2.5785553455352783,7.6141357421875,13.9007568359375,13.4124755859375
3.7499999,0.5626373887062073,9.617507934570312,2.1739351749420166,4.69970703125,23.681640625,17.059326171875
3.7699999,0.49799394607543945,9.636661529541016,1.8770540952682495,0.5645751953125,23.4832763671875,18.2647705078125
3.7899999,0.45250412821769714,9.533711433410645,1.721431016921997,-1.1444091796875,14.0380859375,12.969970703125
3.8099999,0.43335050344467163,9.299078941345215,1.647210717201233,-2.01416015625,11.627197265625,2.0904541015625
3.8299999000000002,0.40222588181495667,9.014169692993164,1.6136919260025024,1.6326904296875,26.4892578125,-8.270263671875
3.8499999,0.3663128614425659,8.734047889709473,1.644816517829895,-8.5601806640625,30.426025390625,-6.744384765625
3.8699999,0.3423708379268646,8.573636054992676,1.7908629179000854,-35.5987548828125,17.2271728515625,4.791259765625
3.8899999,0.3687070608139038,8.518569946289062,2.1140801906585693,-53.8787841796875,10.223388671875,13.7176513671875
3.9099999,0.4165911078453064,8.56884765625,2.4444799423217773,-39.4439697265625,5.8746337890625,5.615234375
3.9299999,0.48602294921875,8.650250434875488,2.738966703414917,-17.0135498046875,8.1787109375,-2.716064453125
3.9499999,0.5339069962501526,8.724471092224121,2.9161376953125,-11.23046875,6.53076171875,-0.274658203125
3.9699999,0.5410895943641663,8.757989883422852,2.9903578758239746,-0.732421875,5.31005859375,-4.638671875
3.9899999,0.5027823448181152,8.813055992126465,2.9712042808532715,25.146484375,3.5400390625,-15.9454345703125
4.0099999,0.4596867263317108,8.892065048217773,2.8778305053710938,32.470703125,1.6326904296875,-19.8516845703125
4.029999900000001,0.40701428055763245,9.030928611755371,2.719813108444214,26.7486572265625,5.859375,-17.2576904296875
4.0499999,0.36152446269989014,9.210494041442871,2.537853717803955,25.238037109375,11.16943359375,-15.4266357421875
4.069999900000001,0.31842881441116333,9.370905876159668,2.3989901542663574,17.51708984375,6.256103515625,-10.4522705078125
4.0899999000000005,0.272938996553421,9.516951560974121,2.3367409706115723,7.26318359375,-0.6256103515625,-6.5155029296875
4.1099999,0.22505496442317963,9.603142738342285,2.315192937850952,4.7149658203125,-2.5634765625,-4.7760009765625
4.1299999000000005,0.19393034279346466,9.62947940826416,2.33913516998291,5.3558349609375,0.91552734375,-3.4027099609375
4.1499999,0.1843535304069519,9.57441234588623,2.406172752380371,10.55908203125,1.46484375,-5.2947998046875
4.1699999000000005,0.17956513166427612,9.459490776062012,2.4660277366638184,23.2696533203125,-6.1492919921875,-8.48388671875
4.1899999,0.16759411990642548,9.339780807495117,2.451662540435791,24.59716796875,-12.63427734375,-9.1705322265625
4.209999900000001,0.13407529890537262,9.232041358947754,2.3511061668395996,9.33837890625,-7.965087890625,-7.7362060546875
4.2299999,0.07900865375995636,9.181763648986816,2.166752576828003,1.77001953125,-2.0751953125,-6.7291259765625
4.249999900000001,-0.002394201699644327,9.162610054016113,1.9393033981323242,9.1705322265625,-1.5716552734375,-6.9427490234375
4.2699999,-0.08619125932455063,9.169792175292969,1.824381709098816,6.1492919921875,1.6021728515625,-6.9732666015625
4.289999900000001,-0.1604115068912506,9.169792175292969,1.7884687185287476,3.5247802734375,4.180908203125,-6.4849853515625
4.3099999,-0.20350714027881622,9.172186851501465,1.8124107122421265,12.14599609375,1.3427734375,-8.6669921875
4.329999900000001,-0.2059013396501541,9.181763648986816,1.86508309841156,16.693115234375,0.701904296875,-9.918212890625
4.3499999,-0.181959331035614,9.162610054016113,1.946485996246338,4.5318603515625,1.5411376953125,-6.439208984375
4.369999900000001,-0.17717093229293823,9.169792175292969,1.9728221893310547,9.5367431640625,1.983642578125,-8.1634521484375
4.3899999,-0.20111294090747833,9.153033256530762,1.9488801956176758,20.7061767578125,-0.6103515625,-10.0250244140625
4.409999900000001,-0.24899697303771973,9.150638580322266,1.889025092124939,15.472412109375,1.5106201171875,-10.0555419921875
4.4299999,-0.31603461503982544,9.157821655273438,1.7693150043487549,7.87353515625,4.82177734375,-9.063720703125
4.449999900000001,-0.35434186458587646,9.210494041442871,1.6879122257232666,3.448486328125,7.232666015625,-9.9029541015625
4.4699999,-0.3758896589279175,9.289502143859863,1.659181833267212,0.946044921875,7.38525390625,-11.566162109375
4.489999900000001,-0.3663128614425659,9.39245319366455,1.6950948238372803,-2.1209716796875,6.1187744140625,-11.138916015625
4.5099999,-0.3447650372982025,9.497797966003418,1.7764976024627686,-5.79833984375,5.9814453125,-9.735107421875
4.529999900000001,-0.33039984107017517,9.59835433959961,1.8507179021835327,-2.960205078125,3.814697265625,-9.33837890625
4.5499999,-0.33039984107017517,9.696516990661621,1.920149803161621,2.777099609375,2.5634765625,-10.1165771484375
4.569999900000001,-0.36152446269989014,9.785101890563965,1.9536685943603516,6.5460205078125,2.197265625,-9.27734375
4.5899999000000005,-0.4141969084739685,9.859322547912598,1.9584569931030273,6.65283203125,1.7242431640625,-7.1868896484375
4.609999900000001,-0.4836287498474121,9.892841339111328,1.9129672050476074,2.50244140625,1.068115234375,-5.0048828125
4.6299999000000005,-0.5506663918495178,9.892841339111328,1.824381709098816,-1.3275146484375,0.5340576171875,-2.86865234375
4.6499999,-0.6153098344802856,9.832986831665039,1.7286136150360107,-2.4566650390625,3.1890869140625,-3.2501220703125
4.6699999000000005,-0.667982280254364,9.758766174316406,1.6759412288665771,-4.7149658203125,5.7220458984375,-3.96728515625
4.6899999,-0.7110779285430908,9.648633003234863,1.6927006244659424,-11.5509033203125,4.913330078125,-2.50244140625
4.709999900000001,-0.7422025203704834,9.533711433410645,1.7573440074920654,-14.556884765625,2.410888671875,-2.655029296875
4.7299999,-0.7445967197418213,9.397241592407227,1.8267759084701538,-13.519287109375,2.593994140625,-4.1046142578125
4.749999900000001,-0.7182605266571045,9.27034854888916,1.886630892753601,-8.9569091796875,5.1116943359375,-5.9356689453125
4.7699999,-0.667982280254364,9.162610054016113,1.9752163887023926,-0.457763671875,6.439208984375,-8.4228515625
4.789999900000001,-0.6224924325942993,9.129091262817383,2.0470423698425293,12.9547119140625,2.13623046875,-11.2152099609375
4.8099999,-0.6033388376235962,9.14585018157959,2.099714994430542,6.89697265625,0.3814697265625,-9.002685546875
4.829999900000001,-0.6200982332229614,9.205705642700195,2.0805611610412598,-1.312255859375,2.8533935546875,-6.500244140625
4.8499999,-0.6727706789970398,9.260771751403809,1.968033790588379,-1.922607421875,4.302978515625,-6.195068359375
4.869999900000001,-0.7445967197418213,9.301473617553711,1.7884687185287476,-1.251220703125,3.9520263671875,-7.0343017578125
4.8899999,-0.828393816947937,9.32541561126709,1.644816517829895,-11.8255615234375,6.6986083984375,-5.0506591796875
4.909999900000001,-0.9050082564353943,9.313444137573242,1.5945383310317993,-26.3519287109375,8.30078125,-0.457763671875
4.9299999,-0.950498104095459,9.296685218811035,1.6879122257232666,-28.0914306640625,7.781982421875,-0.67138671875
4.949999900000001,-0.9840168952941895,9.251194953918457,1.8746598958969116,-20.4315185546875,2.7618408203125,-2.74658203125
4.9699999,-1.0127472877502441,9.210494041442871,2.0805611610412598,-22.247314453125,-0.5950927734375,-2.0294189453125
4.989999900000001,-1.070208191871643,9.2033109664917,2.1978771686553955,-25.543212890625,4.730224609375,-0.823974609375
5.0099999,-1.1444283723831177,9.255983352661133,2.296039342880249,-24.0478515625,11.932373046875,0.1983642578125
5.029999900000001,-1.2282254695892334,9.375694274902344,2.382230758666992,-15.07568359375,13.8397216796875,-0.0457763671875
5.0499999,-1.3263877630233765,9.564835548400879,2.52109432220459,-4.1656494140625,12.02392578125,1.068115234375
5.069999900000001,-1.41257905960083,9.749189376831055,2.6408045291900635,4.08935546875,11.9171142578125,3.570556640625
5.0899999000000005,-1.4867992401123047,9.816226959228516,2.585737943649292,15.7928466796875,14.5111083984375,7.75146484375
5.109999900000001,-1.5179238319396973,9.691728591918945,2.343923568725586,15.7318115234375,22.1405029296875,12.237548828125
5.1299999000000005,-1.4987702369689941,9.373299598693848,2.032677173614502,1.3580322265625,36.1175537109375,14.4805908203125
5.1499999,-1.4197616577148438,9.016563415527344,1.9057846069335938,-12.26806640625,45.074462890625,11.993408203125
5.1699999000000005,-1.292868971824646,8.753201484680176,2.049436569213867,-2.5634765625,39.031982421875,5.8746337890625
5.1899999,-1.1444283723831177,8.707711219787598,2.425326347351074,18.8751220703125,26.031494140625,0.152587890625
5.209999900000001,-1.0247182846069336,8.827422142028809,2.7700912952423096,29.6630859375,18.98193359375,-1.9683837890625
5.2299999,-1.0007762908935547,9.023746490478516,2.846705913543701,27.618408203125,19.7601318359375,-3.23486328125
5.249999900000001,-1.0989385843276978,9.2033109664917,2.6001031398773193,22.9949951171875,24.4140625,-4.5623779296875
5.2699999,-1.235408067703247,9.373299598693848,2.279279947280884,21.4385986328125,32.1502685546875,-7.049560546875
5.289999900000001,-1.3215993642807007,9.536105155944824,2.075772762298584,26.153564453125,36.407470703125,-10.19287109375
5.3099999,-1.3263877630233765,9.636661529541016,2.006340980529785,31.25,25.0244140625,-4.1656494140625
5.329999900000001,-1.290474772453308,9.667786598205566,1.9752163887023926,35.0494384765625,18.310546875,-0.5035400390625
5.3499999,-1.256955862045288,9.557653427124023,1.8267759084701538,27.8778076171875,25.5889892578125,-1.9073486328125
5.369999900000001,-1.2521674633026123,9.366117477416992,1.5442601442337036,20.4315185546875,34.942626953125,-6.1187744140625
5.3899999,-1.237802267074585,9.172186851501465,1.2832920551300049,15.625,34.881591796875,-11.04736328125
5.409999900000001,-1.216254472732544,9.071630477905273,1.0821791887283325,15.56396484375,27.9541015625,-16.021728515625
5.4299999,-1.2114660739898682,9.097966194152832,0.9265560507774353,15.7012939453125,26.18408203125,-18.1884765625
5.449999900000001,-1.2449848651885986,9.239224433898926,0.7613561153411865,5.4168701171875,36.0870361328125,-15.1519775390625
5.4699999,-1.3096283674240112,9.41400146484375,0.6655880808830261,-5.8135986328125,46.7071533203125,-10.4217529296875
5.489999900000001,-1.3718775510787964,9.586383819580078,0.706289529800415,-7.110595703125,46.9970703125,-10.8489990234375
5.5099999,-1.434126853942871,9.682151794433594,0.871489405632019,-4.2724609375,34.3170166015625,-13.97705078125
5.529999900000001,-1.50355863571167,9.694122314453125,1.0007762908935547,-0.0762939453125,23.62060546875,-15.5181884765625
5.5499999,-1.558625340461731,9.679757118225098,1.0007762908935547,-2.6397705078125,26.3519287109375,-15.7928466796875
5.569999900000001,-1.580173134803772,9.643844604492188,0.9074024558067322,-14.46533203125,35.003662109375,-12.5885009765625
5.5899999000000005,-1.5298948287963867,9.591172218322754,0.8595184087753296,-21.4080810546875,36.3922119140625,-9.063720703125
5.609999900000001,-1.4245500564575195,9.44991397857666,0.9696516990661621,-13.2293701171875,32.5927734375,-7.2021484375
5.6299999000000005,-1.3287819623947144,9.248801231384277,1.072602391242981,8.1787109375,26.123046875,-12.75634765625
5.6499999,-1.2689268589019775,9.033323287963867,1.1563993692398071,12.6800537109375,21.4080810546875,-19.287109375
5.6699999000000005,-1.2689268589019775,8.916007041931152,1.1420341730117798,7.6141357421875,26.702880859375,-20.477294921875
5.6899999,-1.2832920551300049,8.959102630615234,1.1444283723831177,-0.1068115234375,29.022216796875,-17.3492431640625
5.709999900000001,-1.2976573705673218,9.083600997924805,1.1659762859344482,-13.1988525390625,22.0184326171875,-12.1307373046875
5.7299999,-1.3096283674240112,9.239224433898926,1.194706678390503,-14.0838623046875,17.9901123046875,-11.138916015625
5.749999900000001,-1.3096283674240112,9.351752281188965,1.2186486721038818,-11.0015869140625,22.6898193359375,-13.702392578125
5.7699999,-1.3263877630233765,9.390059471130371,1.2066776752471924,-3.4637451171875,25.787353515625,-13.7939453125
5.789999900000001,-1.3239935636520386,9.397241592407227,1.2665326595306396,1.6632080078125,23.49853515625,-14.58740234375
5.8099999,-1.316810965538025,9.349357604980469,1.3934253454208374,-0.8087158203125,17.5933837890625,-15.8233642578125
5.829999900000001,-1.3335703611373901,9.277531623840332,1.5155296325683594,-0.1678466796875,11.3067626953125,-16.8609619140625
5.8499999,-1.3958195447921753,9.253589630126953,1.577778935432434,-1.7242431640625,7.32421875,-18.49365234375
5.869999900000001,-1.5203180313110352,9.29189682006836,1.5442601442337036,-1.52587890625,5.035400390625,-19.2413330078125
5.8899999,-1.7046716213226318,9.41639518737793,1.4221558570861816,4.5166015625,2.9296875,-17.974853515625
5.909999900000001,-1.920149803161621,9.615114212036133,1.2737152576446533,6.6070556640625,1.7547607421875,-17.5323486328125
5.9299999,-2.1523873805999756,9.864110946655273,1.091755986213684,6.8206787109375,-0.18310546875,-15.869140625
5.949999900000001,-2.367865562438965,10.137049674987793,0.8978256583213806,6.195068359375,1.220703125,-11.04736328125
5.9699999,-2.5474305152893066,10.3549222946167,0.7206547260284424,2.105712890625,5.767822265625,-3.96728515625
5.989999900000001,-2.6791117191314697,10.42195987701416,0.5626373887062073,1.190185546875,8.1939697265625,2.0294189453125
6.0099999,-2.7461493015289307,10.292673110961914,0.4836287498474121,0.6103515625,8.7738037109375,3.2196044921875
6.029999900000001,-2.765302896499634,9.99339771270752,0.47165772318840027,0.6103515625,7.0037841796875,1.3580322265625
6.0499999,-2.7700912952423096,9.646238327026367,0.48602294921875,3.5552978515625,3.3416748046875,0.3662109375
6.069999900000001,-2.7724854946136475,9.378087997436523,0.49320554733276367,4.6234130859375,2.288818359375,0.823974609375
6.0899999000000005,-2.7916390895843506,9.239224433898926,0.5027823448181152,2.6092529296875,4.180908203125,0.9002685546875
6.109999900000001,-2.827552318572998,9.198522567749023,0.49799394607543945,4.913330078125,2.6702880859375,-0.5035400390625
6.1299999000000005,-2.87064790725708,9.232041358947754,0.47884035110473633,4.150390625,-1.007080078125,-1.4190673828125
6.149999900000001,-2.920926094055176,9.296685218811035,0.43095630407333374,0.48828125,-1.6632080078125,-1.5716552734375
6.1699999000000005,-2.959233283996582,9.38048267364502,0.3663128614425659,-6.1798095703125,1.0528564453125,-0.6103515625
6.1899999,-2.983175277709961,9.47146224975586,0.33039984107017517,-12.664794921875,3.204345703125,0.8087158203125
6.209999900000001,-2.978386878967285,9.555258750915527,0.363918662071228,-10.8489990234375,2.2125244140625,1.6326904296875
6.2299999,-2.959233283996582,9.603142738342285,0.4596867263317108,0.244140625,1.5716552734375,0.7171630859375
6.249999900000001,-2.9328970909118652,9.634267807006836,0.5602431893348694,4.4403076171875,0.701904296875,0.335693359375
6.2699999,-2.9089550971984863,9.646238327026367,0.6200982332229614,5.0811767578125,2.7313232421875,1.2054443359375
6.289999900000001,-2.8874073028564453,9.648633003234863,0.608127236366272,6.8359375,2.7008056640625,1.678466796875
6.3099999,-2.8586769104003906,9.63187313079834,0.5793967843055725,3.662109375,3.326416015625,3.753662109375
6.329999900000001,-2.8107926845550537,9.610325813293457,0.5602431893348694,-4.7607421875,4.6234130859375,6.7138671875
6.3499999,-2.741360902786255,9.57201862335205,0.5985504388809204,-8.3465576171875,5.7220458984375,9.307861328125
6.369999900000001,-2.652775526046753,9.533711433410645,0.7182605266571045,-2.1514892578125,4.1046142578125,8.941650390625
6.3899999,-2.5689783096313477,9.493009567260742,0.8882488012313843,7.26318359375,-0.6256103515625,6.77490234375
6.409999900000001,-2.5067291259765625,9.466673851013184,1.0606313943862915,9.4146728515625,-4.7760009765625,5.4168701171875
6.4299999,-2.499546527862549,9.459490776062012,1.1492167711257935,0.9765625,-7.38525390625,7.110595703125
6.449999900000001,-2.540247917175293,9.459490776062012,1.161187767982483,-8.6517333984375,-7.1563720703125,10.009765625
6.4699999,-2.6144683361053467,9.466673851013184,1.1013327836990356,-6.7596435546875,-7.2479248046875,9.3231201171875
6.489999900000001,-2.6791117191314697,9.481039047241211,1.0342950820922852,-2.7923583984375,-9.674072265625,7.2174072265625
6.5099999,-2.7078421115875244,9.469067573547363,0.9840168952941895,-1.0223388671875,-12.2528076171875,7.9193115234375
6.529999900000001,-2.691082715988159,9.437943458557129,0.9528923034667969,-2.4261474609375,-14.0380859375,10.6353759765625
6.5499999,-2.6431987285614014,9.35893440246582,0.9050082564353943,-5.67626953125,-13.397216796875,12.725830078125
6.569999900000001,-2.585737943649292,9.224859237670898,0.8810662031173706,-10.162353515625,-9.3841552734375,13.092041015625
6.5899999000000005,-2.5234885215759277,9.081207275390625,0.9074024558067322,-12.1917724609375,-8.087158203125,11.71875
6.609999900000001,-2.454056739807129,8.973467826843262,1.0414776802062988,0.3662109375,-10.6353759765625,7.354736328125
6.6299999000000005,-2.3942017555236816,8.978256225585938,1.2018892765045166,23.0255126953125,-13.641357421875,2.0904541015625
6.649999900000001,-2.343923568725586,9.066842079162598,1.3024457693099976,26.458740234375,-14.7857666015625,2.9754638671875
6.6699999000000005,-2.300827741622925,9.215282440185547,1.3479355573654175,12.3748779296875,-10.406494140625,7.9193115234375
6.6899999,-2.2697031497955322,9.363722801208496,1.2976573705673218,15.19775390625,-8.30078125,9.7198486328125
6.709999900000001,-2.2170307636260986,9.454702377319336,1.3048399686813354,21.2554931640625,-12.2222900390625,9.6435546875
6.7299999,-2.161964178085327,9.516951560974121,1.2832920551300049,42.3431396484375,-18.6004638671875,6.072998046875
6.749999900000001,-2.1284453868865967,9.502586364746094,1.1803414821624756,48.6907958984375,-24.566650390625,6.591796875
6.7699999,-2.123656988143921,9.445125579833984,0.9481038451194763,39.3829345703125,-23.4527587890625,9.796142578125
6.789999900000001,-2.1356279850006104,9.368511199951172,0.6727706789970398,37.139892578125,-15.716552734375,9.4146728515625
6.8099999,-2.1356279850006104,9.282320022583008,0.4429273009300232,41.1529541015625,-14.34326171875,7.5531005859375
6.829999900000001,-2.1308395862579346,9.210494041442871,0.31603461503982544,36.6363525390625,-21.240234375,6.378173828125
6.8499999,-2.1356279850006104,9.133879661560059,0.24660277366638184,23.8189697265625,-27.0843505859375,5.5389404296875
6.869999900000001,-2.1811177730560303,9.083600997924805,0.1364694982767105,25.146484375,-23.590087890625,0.5035400390625
6.8899999,-2.2385785579681396,9.126696586608887,-0.019153613597154617,30.8990478515625,-18.707275390625,-5.67626953125
6.909999900000001,-2.250549554824829,9.275136947631836,-0.12210428714752197,25.6805419921875,-16.5557861328125,-4.1351318359375
6.9299999,-2.1978771686553955,9.50498104095459,-0.2346317619085312,43.8995361328125,-21.7437744140625,-2.532958984375
6.949999900000001,-2.0925323963165283,9.68933391571045,-0.4118026793003082,58.349609375,-23.01025390625,-2.74658203125
6.9699999,-1.946485996246338,9.775525093078613,-0.6344634294509888,41.1834716796875,-12.359619140625,0
6.989999900000001,-1.7908629179000854,9.739612579345703,-0.7829039692878723,26.031494140625,3.1890869140625,5.18798828125
7.0099999,-1.647210717201233,9.660603523254395,-0.9050082564353943,49.9420166015625,1.64794921875,5.9814453125
7.029999900000001,-1.525106430053711,9.557653427124023,-0.8643068075180054,40.069580078125,-9.70458984375,7.0953369140625
7.0499999,-1.455674648284912,9.48343276977539,-0.8092401623725891,17.02880859375,-12.298583984375,8.544921875
7.069999900000001,-1.434126853942871,9.418789863586426,-0.8379706144332886,35.0494384765625,-6.866455078125,5.7373046875
7.0899999000000005,-1.4437036514282227,9.397241592407227,-1.0103530883789062,49.072265625,-9.002685546875,2.471923828125
7.109999900000001,-1.4173674583435059,9.44752025604248,-1.1683704853057861,19.8974609375,-9.6282958984375,3.814697265625
7.1299999000000005,-1.3335703611373901,9.519346237182617,-1.3311761617660522,-7.293701171875,-8.148193359375,8.60595703125
7.149999900000001,-1.194706678390503,9.567230224609375,-1.4437036514282227,-16.9525146484375,-9.8724365234375,11.993408203125
7.1699999000000005,-1.0223240852355957,9.53849983215332,-1.4413094520568848,-28.80859375,-9.2926025390625,11.53564453125
7.1899999,-0.849941611289978,9.411606788635254,-1.2952631711959839,-42.572021484375,-2.7923583984375,10.6201171875
7.209999900000001,-0.7182605266571045,9.232041358947754,-1.1204863786697388,-33.5693359375,-0.335693359375,8.2855224609375
7.2299999,-0.6320692300796509,9.095572471618652,-0.8930372595787048,-25.7720947265625,-3.2806396484375,3.814697265625
7.249999900000001,-0.6033388376235962,9.045293807983398,-0.6991068720817566,-24.2767333984375,-2.3193359375,1.9378662109375
7.2699999,-0.629675030708313,9.133879661560059,-0.5937620401382446,-14.6331787109375,-0.0457763671875,0.8392333984375
7.289999900000001,-0.6943184733390808,9.327810287475586,-0.5291185975074768,-10.711669921875,1.77001953125,1.3275146484375
7.3099999,-0.7805097699165344,9.567230224609375,-0.5003881454467773,-6.5155029296875,2.38037109375,2.86865234375
7.329999900000001,-0.8667010068893433,9.758766174316406,-0.4812345504760742,-0.3509521484375,2.3956298828125,5.7373046875
7.3499999,-0.9409212470054626,9.84256362915039,-0.45010992884635925,-2.2735595703125,1.2969970703125,6.8511962890625
7.369999900000001,-0.9888052940368652,9.780313491821289,-0.38546648621559143,1.220703125,-0.213623046875,4.730224609375
7.3899999,-1.01753568649292,9.62947940826416,-0.31603461503982544,13.3514404296875,-6.9427490234375,1.922607421875
7.409999900000001,-1.0342950820922852,9.457097053527832,-0.24181437492370605,19.6380615234375,-14.22119140625,-1.617431640625
7.4299999,-1.0749965906143188,9.306262016296387,-0.24181437492370605,21.453857421875,-19.378662109375,-4.974365234375
7.449999900000001,-1.1563993692398071,9.215282440185547,-0.35913026332855225,18.12744140625,-23.62060546875,-7.6904296875
7.4699999,-1.2689268589019775,9.253589630126953,-0.5841852426528931,2.0904541015625,-29.1290283203125,-10.1470947265625
7.489999900000001,-1.381454348564148,9.425971984863281,-0.811634361743927,-2.2735595703125,-24.261474609375,-9.2315673828125
7.5099999,-1.4748282432556152,9.636661529541016,-1.0438719987869263,7.4920654296875,-24.4903564453125,-3.9215087890625
7.529999900000001,-1.5131354331970215,9.806650161743164,-1.2042834758758545,6.3934326171875,-34.393310546875,-6.317138671875
7.5499999,-1.5131354331970215,9.770736694335938,-1.237802267074585,-9.735107421875,-25.0396728515625,-2.899169921875
7.569999900000001,-1.4915876388549805,9.543288230895996,-1.2114660739898682,-9.5062255859375,-21.7132568359375,-2.227783203125
7.5899999000000005,-1.460463047027588,9.224859237670898,-1.0199298858642578,-10.4217529296875,-19.3328857421875,-4.1046142578125
7.609999900000001,-1.4652514457702637,8.951920509338379,-0.768538773059845,-9.5977783203125,-21.97265625,-4.1351318359375
7.6299999000000005,-1.5155296325683594,8.853757858276367,-0.5985504388809204,7.6141357421875,-29.0374755859375,-10.2691650390625
7.649999900000001,-1.6328455209732056,8.935160636901855,-0.569819986820221,6.5765380859375,-27.6641845703125,-14.1754150390625
7.6699999000000005,-1.764526605606079,9.133879661560059,-0.6344634294509888,-13.24462890625,-20.8740234375,-9.368896484375
7.6899999,-1.8962076902389526,9.35654067993164,-0.7541735172271729,1.5411376953125,-10.7269287109375,-6.28662109375
7.709999900000001,-2.0015525817871094,9.495404243469238,-0.8020575642585754,15.533447265625,-15.2587890625,-8.1787109375
7.7299999,-2.0590133666992188,9.545681953430176,-0.7469909191131592,19.59228515625,-16.0369873046875,-10.3607177734375
7.749999900000001,-2.0661959648132324,9.473855972290039,-0.6248866319656372,31.005859375,-4.0740966796875,-7.01904296875
7.7699999,-2.051830768585205,9.330204010009766,-0.5051765441894531,49.072265625,1.800537109375,-7.9193115234375
7.789999900000001,-2.0207061767578125,9.155426979064941,-0.42856210470199585,58.746337890625,-4.1656494140625,-15.3656005859375
7.8099999,-2.032677173614502,8.983044624328613,-0.49799394607543945,53.070068359375,-7.62939453125,-14.556884765625
7.829999900000001,-2.094926595687866,8.899248123168945,-0.7709329724311829,41.6717529296875,-7.6904296875,-9.9334716796875
7.8499999,-2.190694570541382,8.908824920654297,-1.139639973640442,25.4364013671875,-2.044677734375,-6.28662109375
7.869999900000001,-2.2912509441375732,9.006986618041992,-1.5131354331970215,17.2271728515625,-0.885009765625,-4.2572021484375
7.8899999,-2.3750481605529785,9.124302864074707,-1.8148049116134644,17.6544189453125,-6.256103515625,-4.5013427734375
7.909999900000001,-2.4372973442077637,9.229647636413574,-2.013523578643799,10.955810546875,-7.293701171875,-4.3487548828125
7.9299999,-2.477998733520508,9.296685218811035,-2.161964178085327,1.7852783203125,-3.47900390625,-2.716064453125
7.949999900000001,-2.497152328491211,9.32541561126709,-2.2577321529388428,-4.547119140625,-0.885009765625,-0.885009765625
7.9699999,-2.4851813316345215,9.337387084960938,-2.255337953567505,-9.09423828125,1.8310546875,0.701904296875
7.989999900000001,-2.4420857429504395,9.327810287475586,-2.145204782485962,-7.4615478515625,1.9989013671875,0.5950927734375
8.0099999,-2.3989901542663574,9.29189682006836,-2.0183119773864746,0.8544921875,-1.0528564453125,-0.1678466796875
8.0299999,-2.360682964324951,9.253589630126953,-1.900996208190918,1.8768310546875,-0.7476806640625,-0.4119873046875
8.049999900000001,-2.341529369354248,9.21288776397705,-1.8411411046981812,0.5340576171875,2.410888671875,-1.2664794921875
8.069999900000001,-2.3295583724975586,9.181763648986816,-1.8171991109848022,-0.48828125,2.7923583984375,-1.434326171875
8.0899999,-2.315192937850952,9.167398452758789,-1.764526605606079,-2.0294189453125,1.4495849609375,-1.617431640625
8.1099999,-2.296039342880249,9.169792175292969,-1.6855180263519287,-0.3204345703125,-0.2899169921875,-3.875732421875
8.129999900000001,-2.274491548538208,9.181763648986816,-1.6136919260025024,3.204345703125,-2.838134765625,-4.547119140625
8.149999900000001,-2.2577321529388428,9.222464561462402,-1.580173134803772,2.01416015625,-4.45556640625,-5.2490234375
8.1699999,-2.2409727573394775,9.251194953918457,-1.5682021379470825,-1.251220703125,-3.7994384765625,-4.9896240234375
8.1899999,-2.2361843585968018,9.272743225097656,-1.5945383310317993,-4.1656494140625,-9.002685546875,-4.45556640625
8.2099999,-2.255337953567505,9.255983352661133,-1.601720929145813,-11.1236572265625,-9.33837890625,-3.72314453125
8.229999900000001,-2.2816741466522217,9.215282440185547,-1.5753847360610962,-12.4969482421875,-13.5345458984375,-4.791259765625
8.2499999,-2.3295583724975586,9.17936897277832,-1.53707754611969,-4.6844482421875,-20.0347900390625,-8.6517333984375
8.2699999,-2.403778553009033,9.131484985351562,-1.5203180313110352,1.251220703125,-16.5863037109375,-7.5225830078125
8.2899999,-2.47560453414917,9.095572471618652,-1.525106430053711,-0.3509521484375,-6.4697265625,-6.927490234375
8.309999900000001,-2.5474305152893066,9.057265281677246,-1.5634137392044067,-9.1705322265625,0.6561279296875,-4.8828125
8.3299999,-2.5905263423919678,9.028534889221191,-1.5825673341751099,-14.556884765625,1.9989013671875,-1.6326904296875
8.3499999,-2.5785553455352783,9.026140213012695,-1.5322890281677246,-17.5933837890625,-0.3204345703125,0.18310546875
8.3699999,-2.535459518432617,9.047688484191895,-1.4532804489135742,-16.90673828125,-0.5340576171875,1.9683837890625
8.389999900000001,-2.4660277366638184,9.107542991638184,-1.3742717504501343,-18.1427001953125,2.227783203125,3.082275390625
8.4099999,-2.3965959548950195,9.2033109664917,-1.3287819623947144,-22.4761962890625,4.8675537109375,7.659912109375
8.4299999,-2.3367409706115723,9.308655738830566,-1.3287819623947144,-22.27783203125,9.735107421875,14.83154296875
8.4499999,-2.2864625453948975,9.404424667358398,-1.3479355573654175,-24.6124267578125,14.0838623046875,18.798828125
8.469999900000001,-2.248155355453491,9.466673851013184,-1.3623007535934448,-28.3660888671875,13.916015625,16.17431640625
8.4899999,-2.190694570541382,9.493009567260742,-1.2976573705673218,-28.3203125,15.899658203125,13.3209228515625
8.5099999,-2.099714994430542,9.509769439697266,-1.1803414821624756,-19.2718505859375,12.20703125,12.115478515625
8.5299999,-1.9752163887023926,9.531316757202148,-1.0271124839782715,-6.40869140625,2.838134765625,8.636474609375
8.549999900000001,-1.8171991109848022,9.524134635925293,-0.8762778043746948,-3.7841796875,-0.4730224609375,7.0037841796875
8.569999900000001,-1.6376339197158813,9.490615844726562,-0.7805097699165344,-9.2926025390625,-0.3204345703125,7.4005126953125
8.5899999,-1.4628572463989258,9.44991397857666,-0.727837324142456,-11.444091796875,-2.9754638671875,6.8359375
8.6099999,-1.2737152576446533,9.488221168518066,-0.6823474764823914,-12.3748779296875,-7.32421875,5.462646484375
8.629999900000001,-1.0965443849563599,9.59835433959961,-0.6153098344802856,-10.8795166015625,-9.3841552734375,7.5225830078125
8.649999900000001,-0.9433154463768005,9.813833236694336,-0.5841852426528931,-5.3253173828125,-11.71875,8.7890625
8.6699999,-0.8212111592292786,10.041281700134277,-0.5841852426528931,-9.5977783203125,-11.962890625,11.4898681640625
8.6899999,-0.7254431247711182,10.192116737365723,-0.6320692300796509,-15.899658203125,-10.3302001953125,14.984130859375
8.709999900000001,-0.6512228846549988,10.232817649841309,-0.7134721279144287,-11.1236572265625,-6.927490234375,12.6800537109375
8.729999900000001,-0.5746083855628967,10.168174743652344,-0.6799532771110535,-10.8489990234375,-3.0364990234375,9.6435546875
8.7499999,-0.5027823448181152,10.019734382629395,-0.5985504388809204,2.1820068359375,-5.279541015625,4.8828125
8.7699999,-0.45010992884635925,9.93593692779541,-0.5339069962501526,3.021240234375,-14.862060546875,-1.2969970703125
8.7899999,-0.37828385829925537,10.038887977600098,-0.45010992884635925,-30.029296875,-15.533447265625,3.7689208984375
8.809999900000001,-0.2849099934101105,10.319009780883789,-0.40940847992897034,-26.1383056640625,-7.9498291015625,10.894775390625
8.8299999,-0.21787235140800476,10.74996566772461,-0.33039984107017517,-3.5247802734375,-11.871337890625,7.9345703125
8.8499999,-0.1843535304069519,11.161767959594727,-0.19393034279346466,7.50732421875,-13.427734375,6.103515625
8.8699999,-0.2513911724090576,11.473014831542969,-0.24660277366638184,17.669677734375,-14.7552490234375,6.256103515625
8.889999900000001,-0.3711012601852417,11.616666793823242,-0.31842881441116333,-11.810302734375,-15.13671875,18.06640625
8.9099999,-0.5482721924781799,11.616666793823242,-0.4644751250743866,-20.8892822265625,-14.404296875,24.993896484375
8.9299999,-0.7398083209991455,11.578359603881836,-0.4908113479614258,7.2174072265625,-11.8865966796875,16.7694091796875
8.9499999,-0.9600749015808105,11.489773750305176,-0.49320554733276367,10.2691650390625,-20.5535888671875,20.6451416015625
8.969999900000001,-1.2306196689605713,11.41555404663086,-0.4213795065879822,-45.7763671875,-34.7137451171875,40.252685546875
8.9899999,-1.5490485429763794,11.32457447052002,-0.5195417404174805,-54.8858642578125,-33.3404541015625,44.3572998046875
9.0099999,-1.8531121015548706,11.226411819458008,-0.768538773059845,-21.42333984375,-32.1807861328125,33.1878662109375
9.0299999,-2.0925323963165283,11.154585838317871,-1.015141487121582,-10.19287109375,-21.30126953125,20.843505859375
9.049999900000001,-2.2385785579681396,11.097125053405762,-1.3024457693099976,-12.51220703125,-3.936767578125,21.4996337890625
9.069999900000001,-2.300827741622925,11.061211585998535,-1.400607943534851,5.3558349609375,13.12255859375,27.9693603515625
9.0899999,-2.274491548538208,10.896012306213379,-1.256955862045288,17.822265625,18.3868408203125,31.6162109375
9.1099999,-2.229001760482788,10.522516250610352,-0.9696516990661621,26.6571044921875,17.3797607421875,30.3802490234375
9.129999900000001,-2.1475989818573,9.981427192687988,-0.5099649429321289,23.3306884765625,18.2647705078125,27.7557373046875
9.149999900000001,-2.054224967956543,9.287108421325684,0.05746084079146385,2.777099609375,15.6097412109375,25.604248046875
9.1699999,-2.0039467811584473,8.588001251220703,0.5722141861915588,-18.9971923828125,-3.96728515625,18.9056396484375
9.1899999,-1.9919757843017578,7.903259754180908,1.0223240852355957,-10.8489990234375,-13.4124755859375,14.862060546875
9.209999900000001,-2.056619167327881,7.252037048339844,1.1803414821624756,21.8963623046875,-8.5601806640625,12.420654296875
9.229999900000001,-2.1308395862579346,6.708553314208984,1.070208191871643,35.21728515625,0.91552734375,2.6397705078125
9.2499999,-2.2146365642547607,6.325480937957764,0.7158663272857666,38.9862060546875,4.6234130859375,-5.5694580078125
9.2699999,-2.2888567447662354,6.200982570648193,0.4141969084739685,18.5394287109375,-3.143310546875,-8.0413818359375
9.2899999,-2.3104045391082764,6.4595561027526855,0.1628057211637497,19.7906494140625,-11.6729736328125,-20.9197998046875
9.309999900000001,-2.250549554824829,7.0126166343688965,-0.22266076505184174,49.6826171875,-16.9219970703125,-22.705078125
9.3299999,-2.0638017654418945,7.7643961906433105,-0.5770025849342346,17.791748046875,-6.0272216796875,-8.056640625
9.3499999,-1.7764976024627686,8.465897560119629,-0.9385270476341248,-22.27783203125,11.444091796875,3.7384033203125
9.3699999,-1.4508862495422363,8.858546257019043,-1.1420341730117798,-8.819580078125,15.0299072265625,7.32421875
9.389999900000001,-1.1492167711257935,8.975862503051758,-0.9313444495201111,-14.2364501953125,8.97216796875,-0.579833984375
9.4099999,-0.9002198576927185,8.887276649475098,-0.5363011956214905,-25.7110595703125,-0.6256103515625,-7.38525390625
9.4299999,-0.6991068720817566,8.762778282165527,-0.15083470940589905,-7.843017578125,-2.197265625,-11.016845703125
9.4499999,-0.545877993106842,8.746018409729004,0.11013327538967133,-12.1612548828125,1.4190673828125,-9.9029541015625
9.469999900000001,-0.44771572947502136,8.815450668334961,0.24420857429504395,-20.81298828125,5.126953125,-7.537841796875
9.4899999,-0.42377370595932007,8.949525833129883,0.2825157940387726,-8.9569091796875,1.3275146484375,-9.0484619140625
9.5099999,-0.4620809257030487,9.133879661560059,0.3663128614425659,-8.11767578125,-3.2806396484375,-14.8773193359375
9.5299999,-0.5506663918495178,9.320627212524414,0.3902548849582672,-1.89208984375,-4.2266845703125,-16.4794921875
9.549999900000001,-0.667982280254364,9.464279174804688,0.26815059781074524,1.6326904296875,-5.645751953125,-13.580322265625
9.569999900000001,-0.790086567401886,9.5624418258667,0.10055647045373917,-12.969970703125,0.5340576171875,-12.725830078125
9.5899999,-0.9145850539207458,9.617507934570312,-0.12210428714752197,-11.7950439453125,4.669189453125,-13.2598876953125
9.6099999,-1.01753568649292,9.672574996948242,-0.2585737705230713,-5.1422119140625,3.5400390625,-12.237548828125
9.629999900000001,-1.094150185585022,9.730035781860352,-0.2992752194404602,-4.669189453125,3.0975341796875,-9.490966796875
9.649999900000001,-1.137245774269104,9.780313491821289,-0.2968810200691223,0.9765625,5.279541015625,-7.62939453125
9.6699999,-1.1563993692398071,9.785101890563965,-0.29209262132644653,2.86865234375,7.5531005859375,-6.134033203125
9.6899999,-1.1420341730117798,9.746794700622559,-0.21308395266532898,-0.0457763671875,9.185791015625,-7.293701171875
9.709999900000001,-1.113303780555725,9.68694019317627,-0.07422025501728058,9.4146728515625,8.3770751953125,-10.7421875
9.729999900000001,-1.0797849893569946,9.59596061706543,0.07182604819536209,20.81298828125,2.471923828125,-10.772705078125
9.7499999,-1.070208191871643,9.528923034667969,0.1604115068912506,16.3421630859375,-0.5340576171875,-9.3994140625
9.7699999,-1.094150185585022,9.481039047241211,0.16759411990642548,7.8125,2.532958984375,-9.4451904296875
9.7899999,-1.1420341730117798,9.435548782348633,0.016759412363171577,17.6239013671875,2.0751953125,-8.1787109375
9.809999900000001,-1.1899182796478271,9.41400146484375,-0.16759411990642548,18.4173583984375,1.2969970703125,-7.598876953125
9.8299999,-1.2282254695892334,9.378087997436523,-0.304063618183136,7.537841796875,5.279541015625,-7.87353515625
9.8499999,-1.2425906658172607,9.344569206237793,-0.3878606855869293,8.8043212890625,4.150390625,-9.0789794921875
9.8699999,-1.237802267074585,9.327810287475586,-0.4357447028160095,14.6026611328125,-3.021240234375,-10.1470947265625
9.889999900000001,-1.2282254695892334,9.334992408752441,-0.43095630407333374,14.2822265625,-2.1514892578125,-11.04736328125
9.9099999,-1.2210428714752197,9.363722801208496,-0.47165772318840027,13.427734375,0.9613037109375,-12.2833251953125
9.9299999,-1.2401964664459229,9.421183586120605,-0.545877993106842,6.1187744140625,-2.7008056640625,-11.6424560546875
9.9499999,-1.2689268589019775,9.493009567260742,-0.6033388376235962,-3.1585693359375,-5.5084228515625,-11.1846923828125
9.969999900000001,-1.3024457693099976,9.567230224609375,-0.6033388376235962,4.3792724609375,-3.6163330078125,-10.8489990234375
9.9899999,-1.3239935636520386,9.624691009521484,-0.6009446382522583,13.9312744140625,-7.1563720703125,-11.505126953125
10.0099999,-1.3287819623947144,9.617507934570312,-0.5506663918495178,3.11279296875,-10.0555419921875,-13.8702392578125
10.0299999,-1.316810965538025,9.564835548400879,-0.4405331015586853,-10.7879638671875,-10.0250244140625,-17.9443359375
10.049999900000001,-1.2952631711959839,9.440337181091309,-0.2753331959247589,-10.8184814453125,-14.58740234375,-23.3154296875
10.069999900000001,-1.2713210582733154,9.48343276977539,0.05985504388809204,-31.43310546875,-22.9034423828125,-28.2440185546875
10.0899999,-1.2473790645599365,9.543288230895996,0.6847416758537292,-15.1214599609375,-30.3497314453125,-33.2183837890625
10.1099999,-1.2665326595306396,9.847352027893066,1.2665326595306396,69.061279296875,-52.5970458984375,-39.8406982421875
10.129999900000001,-1.2880805730819702,10.469843864440918,1.8411411046981812,50.872802734375,-81.5582275390625,-41.6412353515625
10.149999900000001,-1.3838485479354858,11.748347282409668,2.183511972427368,7.8887939453125,-108.062744140625,-44.43359375
10.1699999,-1.5658079385757446,13.596671104431152,1.9608511924743652,74.493408203125,-131.8206787109375,-19.9737548828125
10.1899999,-1.7286136150360107,15.95017147064209,0.8164227604866028,107.0556640625,-140.4571533203125,35.09521484375
10.209999900000001,-1.8411411046981812,18.28691291809082,-0.8355764150619507,86.12060546875,-117.0654296875,77.2857666015625
10.229999900000001,-1.9919757843017578,20.187908172607422,-2.7437551021575928,87.738037109375,-96.4813232421875,110.565185546875
10.2499999,-2.1930887699127197,21.44725799560547,-4.831499099731445,70.6634521484375,-110.3515625,145.9197998046875
10.2699999,-2.75812029838562,22.06496238708496,-6.5050458908081055,0.30517578125,-102.96630859375,188.0645751953125
10.2899999,-3.7421371936798096,21.739351272583008,-7.94635534286499,-4.5166015625,-53.558349609375,239.1510009765625
10.309999900000001,-5.240907669067383,20.671537399291992,-9.279925346374512,33.0963134765625,-10.040283203125,269.378662109375
10.3299999,-7.292738437652588,18.928558349609375,-9.964667320251465,16.326904296875,25.054931640625,293.548583984375
10.3499999,-9.737217903137207,16.53914451599121,-10.041281700134277,28.3355712890625,71.929931640625,322.0062255859375
10.3699999,-12.461819648742676,13.287819862365723,-10.077195167541504,38.26904296875,128.6163330078125,362.36572265625
10.389999900000001,-15.349226951599121,8.729259490966797,-10.338163375854492,-94.9554443359375,208.251953125,411.0565185546875
10.4099999,-17.92059898376465,2.008735179901123,-11.018115997314453,-222.7630615234375,300.2166748046875,422.91259765625
10.4299999,-19.534292221069336,-7.2137298583984375,-11.298237800598145,-133.4381103515625,391.0369873046875,318.328857421875
10.4499999,-20.015525817871094,-16.682798385620117,-10.486603736877441,120.3765869140625,429.2144775390625,69.9310302734375
10.469999900000001,-19.414581298828125,-24.265233993530273,-8.269572257995605,255.8746337890625,430.877685546875,-175.0030517578125
10.4899999,-18.725051879882812,-26.759992599487305,-3.7445313930511475,250.1678466796875,486.99951171875,-341.6595458984375
10.5099999,-17.396268844604492,-23.118412017822266,4.659116744995117,87.8143310546875,479.3853759765625,-449.1729736328125
10.5299999,-16.15367889404297,-15.78976058959961,13.151350021362305,80.7342529296875,246.7193603515625,-444.9005126953125
10.549999900000001,-14.322114944458008,-6.277596950531006,21.67710304260254,155.364990234375,68.2220458984375,-427.490234375
10.569999900000001,-12.1194486618042,3.3734302520751953,26.30270004272461,210.5712890625,47.760009765625,-469.4671630859375
10.5899999,-10.316615104675293,11.889605522155762,26.566062927246094,145.1263427734375,-22.4151611328125,-385.68115234375
10.6099999,-9.131484985351562,20.501548767089844,24.202985763549805,-81.817626953125,-120.7733154296875,-298.3245849609375
10.629999900000001,-8.647856712341309,27.380090713500977,21.562179565429688,-328.9031982421875,-214.7979736328125,-220.21484375
10.649999900000001,-8.49941635131836,32.304962158203125,19.19910430908203,-240.1275634765625,-273.7884521484375,-129.7760009765625
10.6699999,-8.513781547546387,35.261802673339844,16.855180740356445,-85.784912109375,-309.8907470703125,-80.0323486328125
10.6899999,-8.458714485168457,36.008792877197266,14.135366439819336,0.457763671875,-318.084716796875,-10.8642578125
10.709999900000001,-8.334216117858887,35.309688568115234,10.319009780883789,162.1551513671875,-285.15625,71.8231201171875
10.729999900000001,-8.20732307434082,32.913089752197266,5.963956356048584,306.0150146484375,-234.8785400390625,179.6875
10.7499999,-8.185775756835938,28.56043243408203,0.8068459630012512,353.8665771484375,-178.8330078125,258.1024169921875
10.7699999,-8.157045364379883,22.448034286499023,-3.993528366088867,230.16357421875,-61.676025390625,271.1639404296875
10.7899999,-7.975085735321045,15.10023021697998,-7.714118003845215,0.2593994140625,56.396484375,242.034912109375
10.809999900000001,-7.400477409362793,7.714118003845215,-9.914389610290527,-45.318603515625,105.3619384765625,196.533203125
10.8299999,-6.433219909667969,1.1468225717544556,-10.101137161254883,11.5814208984375,156.829833984375,135.2691650390625
10.8499999,-5.310339450836182,-3.6583402156829834,-8.465897560119629,3.204345703125,219.329833984375,46.4324951171875
10.8699999,-4.156333923339844,-5.937620162963867,-5.114014625549316,-97.5799560546875,244.7662353515625,-32.2723388671875
10.889999900000001,-3.045424461364746,-6.232107162475586,-0.7565677165985107,-193.3135986328125,177.2918701171875,-31.5399169921875
10.9099999,-1.9752163887023926,-4.455609321594238,4.302380561828613,-203.277587890625,94.5281982421875,-14.6484375
10.9299999,-0.9385270476341248,-1.6879122257232666,8.518569946289062,-70.2056884765625,32.5164794921875,-26.9012451171875
10.9499999,-0.0071826050989329815,1.460463047027588,10.685321807861328,130.9814453125,-6.7291259765625,-40.557861328125
10.969999900000001,0.689530074596405,4.4532151222229,10.84094524383545,83.7554931640625,-7.4920654296875,-30.3497314453125
10.9899999,1.072602391242981,7.105990409851074,9.521739959716797,-42.4652099609375,1.312255859375,-21.240234375
11.0099999,1.213860273361206,9.057265281677246,7.560888767242432,-34.637451171875,-6.5460205078125,-11.993408203125
11.0299999,1.1444283723831177,10.247182846069336,5.8873419761657715,9.429931640625,-10.4827880859375,0.0762939453125
11.049999900000001,0.993593692779541,10.663774490356445,4.824316501617432,0.42724609375,0.79345703125,1.9683837890625
11.069999900000001,0.8259995579719543,10.57040023803711,4.177882194519043,12.3748779296875,5.0201416015625,-8.4075927734375
11.0899999,0.7158663272857666,10.093954086303711,3.840299606323242,42.7398681640625,-3.4332275390625,-6.591796875
11.1099999,0.6847416758537292,9.62947940826416,3.670311212539673,38.360595703125,3.0059814453125,-3.47900390625
11.129999900000001,0.689530074596405,9.282320022583008,3.5649664402008057,-13.3819580078125,10.9405517578125,0.0762939453125
11.149999900000001,0.6943184733390808,9.081207275390625,3.620033025741577,-30.6396484375,10.07080078125,6.866455078125
11.1699999,0.6823474764823914,8.98543930053711,3.8091750144958496,-7.2784423828125,0.2899169921875,8.4991455078125
11.1899999,0.6631938815116882,8.935160636901855,4.031835556030273,17.9290771484375,-2.2430419921875,6.34765625
11.209999900000001,0.6344634294509888,8.846575736999512,4.1180267333984375,7.5531005859375,4.2877197265625,8.23974609375
11.229999900000001,0.6320692300796509,8.753201484680176,4.036623954772949,-4.82177734375,10.2996826171875,10.406494140625
11.2499999,0.6272808313369751,8.695740699768066,3.9624037742614746,-4.1046142578125,10.2691650390625,12.420654296875
11.2699999,0.6248866319656372,8.707711219787598,3.9456443786621094,11.04736328125,1.0986328125,16.326904296875
11.2899999,0.6272808313369751,8.678980827331543,4.000710964202881,21.4996337890625,-2.593994140625,25.2838134765625
11.309999900000001,0.629675030708313,8.62391471862793,4.043806552886963,20.08056640625,3.4637451171875,23.86474609375
11.3299999,0.6488286852836609,8.485051155090332,4.098873138427734,13.9007568359375,7.6446533203125,13.8397216796875
11.3499999,0.6751648783683777,8.305485725402832,4.19224739074707,22.1710205078125,3.4637451171875,11.322021484375
11.3699999,0.7110779285430908,8.188169479370117,4.24970817565918,42.8924560546875,-3.0364990234375,10.43701171875
11.389999900000001,0.7661445140838623,8.169015884399414,4.24970817565918,33.843994140625,-3.3416748046875,9.3841552734375
11.4099999,0.8379706144332886,8.209717750549316,4.132391929626465,12.5579833984375,2.685546875,8.5601806640625
11.4299999,0.9169792532920837,8.274360656738281,3.914519786834717,8.7890625,5.37109375,7.7972412109375
11.4499999,0.9888052940368652,8.391676902770996,3.8067808151245117,0.30517578125,4.6844482421875,4.08935546875
11.469999900000001,1.0342950820922852,8.525752067565918,3.797203779220581,-3.3416748046875,1.8463134765625,1.15966796875
11.4899999,1.0534487962722778,8.652645111083984,3.861847400665283,6.072998046875,-0.91552734375,4.8370361328125
11.5099999,1.0438719987869263,8.7484130859375,3.9408559799194336,9.4757080078125,0.335693359375,8.636474609375
11.5299999,1.015141487121582,8.769960403442383,4.041412353515625,7.110595703125,3.814697265625,4.913330078125
11.549999900000001,0.9888052940368652,8.767566680908203,4.065354347229004,10.772705078125,0.7781982421875,-2.3345947265625
11.569999900000001,0.9600749015808105,8.762778282165527,4.005499362945557,7.3394775390625,-5.950927734375,-1.6021728515625
11.5899999,0.9457096457481384,8.765172004699707,3.914519786834717,-7.9803466796875,-1.3275146484375,1.434326171875
11.6099999,0.933738648891449,8.793902397155762,3.8115692138671875,-22.2015380859375,4.3487548828125,-0.5035400390625
11.629999900000001,0.9409212470054626,8.757989883422852,3.7828385829925537,-27.435302734375,-0.0152587890625,-2.3040771484375
11.649999900000001,0.950498104095459,8.734047889709473,3.869029998779297,-22.4151611328125,-5.18798828125,-3.9215087890625
11.6699999,0.9792284965515137,8.753201484680176,4.0294413566589355,-13.092041015625,-2.9296875,-5.79833984375
11.6899999,1.0199298858642578,8.801085472106934,4.170699596405029,-6.8206787109375,-1.52587890625,-4.57763671875
11.709999900000001,1.0438719987869263,8.860940933227539,4.256890773773193,-23.4527587890625,-6.5460205078125,-2.1820068359375
11.729999900000001,1.0462661981582642,8.889671325683594,4.278438568115234,-38.4063720703125,-7.7667236328125,-2.9296875
11.7499999,1.0271124839782715,8.911218643188477,4.228160381317139,-29.4952392578125,-0.91552734375,-6.927490234375
11.7699999,0.9888052940368652,8.927978515625,4.182670593261719,-24.0325927734375,3.4942626953125,-5.18798828125
11.7899999,0.9528923034667969,8.935160636901855,4.163516521453857,-30.303955078125,0.8392333984375,1.40380859375
11.809999900000001,0.9265560507774353,8.954314231872559,4.2090067863464355,-32.4554443359375,0.6103515625,3.47900390625
11.8299999,0.9409212470054626,8.973467826843262,4.364629745483398,-27.2064208984375,2.9144287109375,0.701904296875
11.8499999,0.9600749015808105,8.947132110595703,4.522646903991699,-28.13720703125,0.6256103515625,4.0130615234375
11.8699999,1.0103530883789062,8.841787338256836,4.757278919219971,-41.2139892578125,-4.669189453125,13.73291015625
11.889999900000001,1.0438719987869263,8.650250434875488,4.912901878356934,-29.8919677734375,-7.2174072265625,12.3748779296875
11.9099999,1.0558429956436157,8.396465301513672,5.020640850067139,-17.7459716796875,-6.8817138671875,5.43212890625
11.9299999,1.05105459690094,8.17141056060791,5.137956619262695,-31.4178466796875,-3.2806396484375,2.593994140625
11.9499999,1.0630255937576294,8.034940719604492,5.207388877868652,-15.228271484375,-1.4495849609375,0.244140625
11.969999900000001,1.0869675874710083,7.975085735321045,5.286397457122803,3.570556640625,-4.791259765625,-3.082275390625
11.9899999,1.113303780555725,7.931990146636963,5.257667064666748,0.8392333984375,-9.8419189453125,-2.197265625
12.0099999,1.139639973640442,7.943961143493652,5.185841083526611,-20.56884765625,-7.75146484375,-0.274658203125
12.0299999,1.161187767982483,7.939172744750977,5.032611846923828,-27.3895263671875,-4.608154296875,1.64794921875
12.049999900000001,1.1755530834197998,7.967903137207031,4.944026470184326,-15.533447265625,-7.843017578125,3.4027099609375
12.069999900000001,1.1875240802764893,7.943961143493652,4.944026470184326,8.0413818359375,-6.0882568359375,0.7781982421875
12.0899999,1.1516109704971313,7.9415669441223145,4.972756862640381,19.7601318359375,-8.11767578125,-4.0740966796875
12.1099999,1.0821791887283325,7.996633529663086,4.948814868927002,9.5062255859375,-11.3983154296875,-7.8125
12.129999900000001,0.9840168952941895,8.130708694458008,4.7405195236206055,11.138916015625,-11.688232421875,-9.58251953125
12.149999900000001,0.8858546018600464,8.312667846679688,4.477157115936279,5.4931640625,0.6561279296875,-6.28662109375
12.1699999,0.8307880163192749,8.47547435760498,4.359841346740723,-9.2315673828125,16.54052734375,-3.9825439453125
12.1899999,0.811634361743927,8.573636054992676,4.4532151222229,-8.7890625,9.4451904296875,-7.843017578125
12.209999900000001,0.7829039692878723,8.638279914855957,4.8482584953308105,-12.908935546875,-4.3792724609375,-5.31005859375
12.229999900000001,0.7469909191131592,8.686163902282715,5.363011837005615,-5.859375,-6.3323974609375,-4.2724609375
12.2499999,0.6751648783683777,8.762778282165527,5.770026206970215,22.705078125,-4.852294921875,-10.3607177734375
12.2699999,0.5363011956214905,8.875306129455566,5.896918773651123,42.755126953125,-12.5274658203125,-10.345458984375
12.289999900000002,0.33279404044151306,9.057265281677246,5.78678560256958,32.2265625,-13.5040283203125,-4.0740966796875
12.309999900000001,0.0933738648891449,9.186552047729492,5.523423194885254,11.3067626953125,-6.89697265625,6.256103515625
12.3299999,-0.15083470940589905,9.220070838928223,5.161899089813232,18.402099609375,-10.345458984375,9.246826171875
12.3499999,-0.304063618183136,9.107542991638184,4.795586109161377,32.6385498046875,-15.7928466796875,4.5013427734375
12.3699999,-0.3064578175544739,8.87291145324707,4.438849925994873,24.993896484375,-13.1072998046875,2.2735595703125
12.389999900000001,-0.1173158809542656,8.578424453735352,4.086902141571045,10.0555419921875,-3.0975341796875,4.4097900390625
12.4099999,0.2346317619085312,8.29830265045166,3.9169139862060547,-3.4942626953125,5.2490234375,6.8817138671875
12.4299999,0.6775590777397156,8.054094314575195,4.017470359802246,-3.3111572265625,4.8065185546875,5.2490234375
12.4499999,1.1228805780410767,7.91283655166626,4.299986362457275,2.4871826171875,-9.0789794921875,1.0986328125
12.469999900000001,1.4700398445129395,7.922413349151611,4.6255974769592285,1.52587890625,-13.3819580078125,1.1749267578125
12.4899999,1.6759412288665771,8.04930591583252,4.841075897216797,2.74658203125,-8.209228515625,6.317138671875
12.5099999,1.745373010635376,8.236053466796875,4.922478675842285,5.06591796875,-7.3089599609375,5.7373046875
12.5299999,1.7357962131500244,8.406042098999023,4.850652694702148,18.829345703125,-12.451171875,0.8544921875
12.549999900000001,1.702277421951294,8.528146743774414,4.651933670043945,24.505615234375,-12.1307373046875,3.1585693359375
12.569999900000001,1.721431016921997,8.583212852478027,4.434061527252197,5.157470703125,-0.396728515625,10.650634765625
12.5899999,1.8171991109848022,8.5903959274292,4.244919776916504,-4.6539306640625,10.284423828125,12.3138427734375
12.6099999,1.968033790588379,8.544905662536621,4.163516521453857,1.251220703125,5.7220458984375,10.2996826171875
12.629999900000001,2.1164743900299072,8.473079681396484,4.091690540313721,-1.3885498046875,0.2899169921875,11.8255615234375
12.649999900000001,2.212242364883423,8.403648376464844,4.055777549743652,-22.2015380859375,9.4757080078125,19.6533203125
12.6699999,2.2385785579681396,8.303091049194336,4.14915132522583,-33.9508056640625,23.5137939453125,21.6217041015625
12.6899999,2.2170307636260986,8.197746276855469,4.467580318450928,-13.61083984375,18.0816650390625,11.688232421875
12.709999900000001,2.1715409755706787,8.08043098449707,4.874594688415527,13.275146484375,-1.5106201171875,2.7923583984375
12.729999900000001,2.097320795059204,8.054094314575195,5.0876784324646,14.0228271484375,-12.054443359375,1.8768310546875
12.7499999,2.0254945755004883,8.1139497756958,5.0014872550964355,-11.23046875,0.67138671875,7.7667236328125
12.7699999,1.9752163887023926,8.180987358093262,4.63517427444458,-15.411376953125,14.801025390625,13.6871337890625
12.789999900000002,1.9345149993896484,8.20492935180664,4.292803764343262,-2.9296875,13.031005859375,10.8795166015625
12.809999900000001,1.9345149993896484,8.109161376953125,4.1180267333984375,7.7056884765625,8.4075927734375,8.087158203125
12.8299999,1.9536685943603516,7.9415669441223145,3.974374771118164,12.7105712890625,7.4920654296875,4.9285888671875
12.8499999,1.9847931861877441,7.841010570526123,3.9169139862060547,12.7105712890625,19.500732421875,-0.0152587890625
12.8699999,2.049436569213867,7.790732383728027,3.9025487899780273,15.44189453125,30.0140380859375,0.54931640625
12.889999900000001,2.118868589401245,7.869740962982178,4.015076160430908,3.72314453125,23.0712890625,3.7994384765625
12.9099999,2.1356279850006104,8.061277389526367,4.185064792633057,-5.55419921875,12.298583984375,5.0506591796875
12.9299999,2.097320795059204,8.11634349822998,4.398148536682129,-9.5672607421875,14.1754150390625,10.1776123046875
12.9499999,1.9991583824157715,8.224082946777344,4.611232280731201,-11.8255615234375,19.95849609375,0.91552734375
12.969999900000001,1.8555063009262085,8.22887134552002,4.802768707275391,-3.7689208984375,12.9241943359375,-11.16943359375
12.9899999,1.6879122257232666,8.176198959350586,4.884171485900879,21.3470458984375,3.173828125,-4.69970703125
13.0099999,1.5179238319396973,8.164227485656738,4.903325080871582,32.7606201171875,9.5977783203125,-1.190185546875
13.0299999,1.3646949529647827,8.042123794555664,4.800374507904053,31.6162109375,18.341064453125,-2.74658203125
13.049999900000001,1.278503656387329,7.879317760467529,4.659116744995117,36.2091064453125,15.9454345703125,-10.1318359375
13.069999900000001,1.256955862045288,7.706935405731201,4.481945514678955,36.9110107421875,13.0767822265625,-16.021728515625
13.0899999,1.316810965538025,7.673416614532471,4.228160381317139,23.223876953125,15.1519775390625,-17.4407958984375
13.1099999,1.3982137441635132,7.778761386871338,3.950432777404785,16.937255859375,25.8026123046875,-11.8865966796875
13.129999900000001,1.455674648284912,8.042123794555664,3.7852327823638916,18.61572265625,30.70068359375,-7.0953369140625
13.149999900000001,1.460463047027588,8.348581314086914,3.778050184249878,17.1051025390625,21.42333984375,-8.0413818359375
13.1699999,1.3670891523361206,8.597578048706055,3.9025487899780273,12.0086669921875,13.397216796875,-5.401611328125
13.1899999,1.216254472732544,8.777143478393555,4.091690540313721,13.275146484375,15.9149169921875,-2.4871826171875
13.209999900000001,0.993593692779541,8.841787338256836,4.304774761199951,21.9573974609375,19.6075439453125,0.54931640625
13.229999900000001,0.7709329724311829,8.801085472106934,4.584896087646484,21.087646484375,11.5966796875,2.74658203125
13.2499999,0.5817909836769104,8.652645111083984,4.819528102874756,16.754150390625,-7.4462890625,3.204345703125
13.2699999,0.45250412821769714,8.547300338745117,4.821922302246094,27.130126953125,-15.3350830078125,-5.035400390625
13.289999900000002,0.3878606855869293,8.47547435760498,4.505887508392334,41.7633056640625,-3.6468505859375,-5.401611328125
13.309999900000001,0.40940847992897034,8.542511940002441,4.084507942199707,37.109375,5.6304931640625,-2.5177001953125
13.3299999,0.4692635238170624,8.614337921142578,3.708618402481079,17.608642578125,0.7171630859375,1.89208984375
13.3499999,0.5793967843055725,8.635885238647461,3.555389642715454,8.056640625,-9.7503662109375,1.5106201171875
13.3699999,0.7134721279144287,8.588001251220703,3.5242648124694824,9.429931640625,-13.763427734375,0.7781982421875
13.389999900000001,0.8355764150619507,8.588001251220703,3.5410242080688477,12.3291015625,-9.765625,3.6468505859375
13.4099999,0.9361328482627869,8.604761123657227,3.509899616241455,19.7296142578125,-6.4849853515625,13.5040283203125
13.4299999,1.0055646896362305,8.633491516113281,3.4548330307006836,13.916015625,-13.3056640625,23.4222412109375
13.4499999,1.0558429956436157,8.65743350982666,3.406949043273926,-17.51708984375,-22.64404296875,26.031494140625
13.469999900000001,1.0821791887283325,8.655038833618164,3.292027235031128,-34.2254638671875,-24.383544921875,16.204833984375
13.4899999,1.0989385843276978,8.786720275878906,3.177105665206909,-14.3890380859375,-25.7415771484375,1.007080078125
13.5099999,1.1300631761550903,8.975862503051758,3.1028854846954346,7.9498291015625,-24.7039794921875,-4.791259765625
13.5299999,1.1516109704971313,9.205705642700195,3.0190882682800293,-7.6141357421875,-38.421630859375,6.1492919921875
13.549999900000001,1.2234370708465576,9.32302188873291,2.956839084625244,-24.9176025390625,-41.1529541015625,16.3726806640625
13.569999900000001,1.316810965538025,9.313444137573242,2.9544448852539062,-10.3759765625,-26.67236328125,7.75146484375
13.5899999,1.4077905416488647,9.272743225097656,3.0190882682800293,3.0364990234375,-19.8822021484375,-0.30517578125
13.6099999,1.4652514457702637,9.318233489990234,3.1316158771514893,-14.46533203125,-30.548095703125,9.5367431640625
13.629999900000001,1.534683346748352,9.399636268615723,3.2968156337738037,-40.2069091796875,-35.15625,27.64892578125
13.649999900000001,1.644816517829895,9.531316757202148,3.3854012489318848,-41.534423828125,-24.993896484375,29.72412109375
13.6699999,1.802833914756775,9.677363395690918,3.2824504375457764,-34.3780517578125,-9.9029541015625,23.040771484375
13.6899999,2.0446481704711914,9.80904483795166,3.181894063949585,-45.6085205078125,9.3841552734375,27.8472900390625
13.709999900000001,2.274491548538208,9.821015357971191,3.19865345954895,-53.4820556640625,12.7105712890625,34.8968505859375
13.729999900000001,2.449268341064453,9.854534149169922,3.3016040325164795,-47.9888916015625,2.3040771484375,41.4886474609375
13.7499999,2.5953147411346436,9.732429504394531,3.4787750244140625,-58.65478515625,-4.1351318359375,57.4798583984375
13.7699999,2.6575639247894287,9.476250648498535,3.4548330307006836,-54.3212890625,-2.13623046875,66.4215087890625
13.789999900000002,2.6839001178741455,9.023746490478516,3.2561142444610596,-38.8031005859375,23.7274169921875,47.2869873046875
13.809999900000001,2.6671407222747803,8.525752067565918,2.999934673309326,-87.646484375,40.130615234375,36.4990234375
13.8299999,2.698265314102173,7.95832633972168,3.2776620388031006,-138.61083984375,39.6881103515625,31.646728515625
13.8499999,2.7916390895843506,7.496245384216309,3.7229835987091064,-53.9703369140625,20.4315185546875,3.47900390625
13.8699999,3.0166940689086914,7.2783732414245605,4.264073371887207,-18.4173583984375,-4.33349609375,-24.59716796875
13.889999900000001,3.2178070545196533,7.017405033111572,4.807557106018066,-82.6416015625,22.1710205078125,-16.5557861328125
13.9099999,3.354276657104492,6.964732646942139,5.216965675354004,-101.776123046875,51.7425537109375,-16.9830322265625
13.9299999,3.40216064453125,6.813898086547852,5.66228723526001,-48.88916015625,37.90283203125,-12.4969482421875
13.9499999,3.332728862762451,6.766014099121094,6.160281181335449,8.7738037109375,9.6282958984375,-19.7296142578125
13.969999900000001,3.251325845718384,6.8593878746032715,6.440402507781982,26.1993408203125,8.85009765625,-26.0467529296875
13.9899999,3.112462282180786,7.0557122230529785,6.40927791595459,-3.387451171875,13.2293701171875,-17.8375244140625
14.0099999,2.978386878967285,7.2568254470825195,6.490680694580078,-58.5479736328125,26.4129638671875,1.52587890625
14.0299999,2.8131868839263916,7.273584842681885,6.5912370681762695,-26.9775390625,8.575439453125,-1.89208984375
14.049999900000001,2.6623523235321045,7.134721279144287,6.670246124267578,21.6827392578125,-19.7601318359375,-22.2320556640625
14.069999900000001,2.5306711196899414,7.089231014251709,6.751648902893066,-28.74755859375,-13.7176513671875,-23.5595703125
14.0899999,2.410961151123047,7.082048416137695,6.715735912322998,-60.7757568359375,5.7220458984375,2.6702880859375
14.1099999,2.298433542251587,7.158663272857666,6.71334171295166,-15.7623291015625,6.65283203125,19.4854736328125
14.129999900000001,2.2409727573394775,7.189787864685059,6.801927089691162,6.134033203125,-5.8135986328125,6.4544677734375
14.149999900000001,2.250549554824829,6.955155849456787,6.8593878746032715,-41.32080078125,-12.4969482421875,-3.47900390625
14.1699999,2.250549554824829,6.890512466430664,6.962338447570801,-82.550048828125,-5.31005859375,-17.51708984375
14.1899999,2.2673089504241943,6.809109687805176,6.88332986831665,-26.3671875,-12.8021240234375,-6.6070556640625
14.209999900000001,2.2457611560821533,6.785167694091797,6.8043212890625,8.9263916015625,-20.7977294921875,10.1165771484375
14.229999900000001,2.1739351749420166,6.6846113204956055,6.780379295349121,-50.84228515625,-7.9498291015625,2.99072265625
14.2499999,2.1308395862579346,6.48828649520874,6.809109687805176,-64.5751953125,2.3956298828125,-3.662109375
14.2699999,2.0685901641845703,6.313509941101074,6.821080684661865,-17.8375244140625,-8.30078125,-4.8370361328125
14.289999900000002,2.013523578643799,6.100425720214844,6.8809356689453125,-7.232666015625,-6.9427490234375,6.1798095703125
14.309999900000001,2.011129379272461,5.918466567993164,6.952761650085449,-47.7752685546875,15.8538818359375,15.655517578125
14.3299999,2.032677173614502,5.810727596282959,7.103596210479736,-40.6951904296875,19.1802978515625,9.2315673828125
14.3499999,2.006340980529785,5.784391403198242,7.2568254470825195,37.261962890625,1.007080078125,11.3983154296875
14.3699999,2.056619167327881,5.746084213256836,7.615955829620361,14.7247314453125,-5.4168701171875,25.482177734375
14.389999900000001,1.9943699836730957,5.856217384338379,7.857769966125488,-70.465087890625,0.457763671875,12.39013671875
14.4099999,2.0183119773864746,5.7987565994262695,8.02536392211914,-94.268798828125,-4.69970703125,4.1656494140625
14.4299999,2.0685901641845703,5.693411827087402,8.20492935180664,-80.4443359375,-8.8348388671875,11.9171142578125
14.4499999,2.183511972427368,5.5329999923706055,8.29830265045166,-52.337646484375,-12.02392578125,7.5225830078125
14.469999900000001,2.3319525718688965,5.319916248321533,8.418013572692871,-57.830810546875,-11.016845703125,-2.777099609375
14.4899999,2.47560453414917,5.061342239379883,8.544905662536621,-65.338134765625,-15.0909423828125,-13.36669921875
14.5099999,2.6024973392486572,4.812345504760742,8.734047889709473,-77.9266357421875,-25.8331298828125,-20.599365234375
14.5299999,2.7317841053009033,4.711789131164551,8.875306129455566,-89.7064208984375,-37.4298095703125,-26.0772705078125
14.549999900000001,2.8586769104003906,4.532223701477051,8.923190116882324,-75.592041015625,-51.5594482421875,-23.2086181640625
14.569999900000001,2.978386878967285,4.3191399574279785,8.949525833129883,-41.56494140625,-52.67333984375,-23.4527587890625
14.5899999,3.1100680828094482,4.129997730255127,8.844181060791016,-4.7149658203125,-62.98828125,-29.5562744140625
14.6099999,3.248931646347046,3.9671921730041504,8.820239067077637,-3.1280517578125,-70.892333984375,-29.388427734375
14.629999900000001,3.378218650817871,4.02465295791626,8.712499618530273,18.1732177734375,-68.1610107421875,-30.6243896484375
14.649999900000001,3.5242648124694824,4.355052947998047,8.360552787780762,20.294189453125,-68.695068359375,-27.5726318359375
14.6699999,3.6750996112823486,4.661510944366455,8.216899871826172,-40.9698486328125,-51.239013671875,-17.27294921875
14.6899999,3.8115692138671875,4.884171485900879,8.08282470703125,-51.422119140625,-43.2586669921875,-18.8751220703125
14.709999900000001,3.955221176147461,4.989516258239746,8.154650688171387,-13.5955810546875,-49.0875244140625,-27.587890625
14.729999900000001,4.1156325340271,4.977545261383057,8.389283180236816,-14.6331787109375,-41.9158935546875,-15.9454345703125
14.7499999,4.285621166229248,4.9152960777282715,8.664615631103516,-35.2935791015625,-41.80908203125,-3.204345703125
14.7699999,4.441244125366211,4.862623691558838,8.848969459533691,-20.32470703125,-52.42919921875,-12.1002197265625
14.789999900000002,4.575319290161133,4.776432514190674,8.937555313110352,-9.2315673828125,-63.079833984375,-17.791748046875
14.809999900000001,4.661510944366455,4.627991676330566,8.834604263305664,-17.4713134765625,-57.1441650390625,-4.5928955078125
14.8299999,4.692635536193848,4.513070106506348,8.580819129943848,-29.4647216796875,-47.8515625,3.7841796875
14.8499999,4.716577529907227,4.2975921630859375,8.334216117858887,-33.6456298828125,-45.074462890625,-1.7547607421875
14.8699999,4.680664539337158,4.079719543457031,8.032546997070312,-6.9122314453125,-59.967041015625,-15.960693359375
14.889999900000001,4.659116744995117,3.8786067962646484,7.783549785614014,10.3607177734375,-60.394287109375,-17.5323486328125
14.9099999,4.642356872558594,3.713406801223755,7.577648162841797,-32.3638916015625,-52.9937744140625,-4.1351318359375
14.9299999,4.654327869415283,3.6942532062530518,7.3885064125061035,-46.81396484375,-61.1724853515625,-0.8392333984375
14.9499999,4.714183330535889,3.7181951999664307,7.3454108238220215,-8.1329345703125,-72.906494140625,-7.50732421875
14.969999900000001,4.8482584953308105,3.691859006881714,7.3885064125061035,-6.866455078125,-73.0743408203125,-10.7574462890625
14.9899999,5.023035049438477,3.6535518169403076,7.268796443939209,-11.77978515625,-75.836181640625,-6.8359375
15.0099999,5.260061264038086,3.5745432376861572,7.113173484802246,-3.570556640625,-71.77734375,-6.500244140625
15.0299999,5.547365188598633,3.466804027557373,6.914454460144043,10.68115234375,-71.3653564453125,-15.7470703125
15.049999900000001,5.841852188110352,3.375824451446533,6.63433313369751,18.096923828125,-82.4432373046875,-16.937255859375
15.069999900000001,6.124367713928223,3.287238836288452,6.339846134185791,37.8875732421875,-84.747314453125,-13.5650634765625
15.0899999,6.402095317840576,3.2130186557769775,5.935225963592529,48.7518310546875,-79.498291015625,-14.09912109375
15.1099999,6.682217121124268,3.2297780513763428,5.343858242034912,51.7425537109375,-77.2247314453125,-9.5977783203125
15.129999900000001,6.955155849456787,3.31118106842041,4.630385875701904,25.9246826171875,-75.4241943359375,3.4027099609375
15.149999900000001,7.232883453369141,3.3638534545898438,3.885789394378662,-8.8653564453125,-66.7266845703125,14.4500732421875
15.1699999,7.493851184844971,3.2369606494903564,3.066972494125366,-6.3629150390625,-63.04931640625,18.61572265625
15.1899999,7.7643961906433105,2.8826189041137695,2.2170307636260986,43.8079833984375,-53.4210205078125,10.1165771484375
15.209999900000001,8.018181800842285,2.2864625453948975,1.3623007535934448,89.8284912109375,-36.6973876953125,4.241943359375
15.229999900000001,8.303091049194336,1.5155296325683594,0.6416460275650024,62.6983642578125,-29.9835205078125,-10.711669921875
15.2499999,8.980650901794434,-0.090979665517807,0.0454898327589035,-4.8828125,-61.248779296875,-87.310791015625
15.2699999,9.41400146484375,-0.7182605266571045,-0.0933738648891449,23.13232421875,-92.0257568359375,-126.0528564453125
15.289999900000002,9.775525093078613,-0.8595184087753296,-0.7326257228851318,55.3741455078125,-144.195556640625,-176.0711669921875
15.309999900000001,9.727641105651855,0.2825157940387726,-3.3039982318878174,178.7872314453125,-209.4268798828125,-243.6065673828125
15.3299999,9.35654067993164,2.5761611461639404,-11.444284439086914,374.0692138671875,-262.2222900390625,-236.38916015625
15.3499999,9.557653427124023,3.026270866394043,-24.85420799255371,499.9847412109375,4.57763671875,-159.8663330078125
15.3699999,8.492233276367188,-0.8092401623725891,-39.73177719116211,499.9847412109375,489.3341064453125,-238.616943359375
15.389999900000001,1.6615760326385498,-4.644751071929932,-51.34365463256836,163.421630859375,499.9847412109375,-500
15.4099999,-11.817779541015625,-3.7397429943084717,-49.83052062988281,-394.9737548828125,499.9847412109375,-500
15.4299999,-31.009700775146484,5.178658485412598,-32.779014587402344,283.7371826171875,499.9847412109375,-419.647216796875
15.4499999,-47.25914764404297,22.184673309326172,-6.457161903381348,-165.435791015625,310.97412109375,-297.91259765625
15.469999900000001,-52.97410583496094,38.62086868286133,13.2710599899292,138.5650634765625,-95.6878662109375,-42.2821044921875
15.4899999,-47.20168685913086,45.79629135131836,25.962722778320312,393.951416015625,55.145263671875,153.9764404296875
15.5099999,-33.504459381103516,41.587284088134766,25.46472930908203,-140.8233642578125,184.99755859375,155.120849609375
15.5299999,-19.031509399414062,29.125463485717773,19.37388038635254,-201.202392578125,63.53759765625,55.3131103515625
15.549999900000001,-8.130708694458008,14.190433502197266,13.960590362548828,53.6346435546875,-46.44775390625,-10.5743408203125
15.569999900000001,-1.3072341680526733,2.7724854946136475,9.904812812805176,6.8359375,-0.732421875,-30.7464599609375
15.5899999,2.0446481704711914,-2.5115175247192383,5.959167957305908,-104.888916015625,58.837890625,-2.7923583984375
15.6099999,2.655169725418091,-2.8347349166870117,3.3710360527038574,-46.417236328125,41.717529296875,35.8428955078125
15.629999900000001,1.8315643072128296,-0.45489832758903503,2.188300371170044,16.448974609375,5.31005859375,40.3900146484375
15.649999900000001,0.45250412821769714,2.492363929748535,1.9273324012756348,-41.8243408203125,-5.55419921875,25.5126953125
15.6699999,-0.6272808313369751,5.118803024291992,1.6735470294952393,-75.6378173828125,6.591796875,23.2086181640625
15.6899999,-1.1468225717544556,7.225700855255127,1.501164436340332,-60.05859375,18.0511474609375,32.501220703125
15.709999900000001,-1.2186486721038818,8.5903959274292,1.7956513166427612,-36.31591796875,12.3138427734375,44.0216064453125
15.729999900000001,-0.9696516990661621,9.181763648986816,2.2673089504241943,-9.765625,-10.6353759765625,43.15185546875
15.7499999,-0.5746083855628967,9.131484985351562,2.762908697128296,-7.38525390625,-22.2015380859375,39.9322509765625
15.7699999,-0.11252748221158981,8.736441612243652,2.6168625354766846,-2.0751953125,-19.195556640625,46.478271484375
15.789999900000002,0.3495534360408783,8.29830265045166,2.0925323963165283,-24.658203125,4.3792724609375,50.567626953125
15.809999900000001,0.7206547260284424,8.018181800842285,1.6280571222305298,-53.3905029296875,24.4293212890625,41.046142578125
15.8299999,1.0414776802062988,7.8098859786987305,1.4891934394836426,-39.8406982421875,9.0179443359375,36.0107421875
15.8499999,1.3024457693099976,7.773972988128662,1.7405846118927002,0.54931640625,-10.7879638671875,33.8134765625
15.869999900000002,1.4652514457702637,7.869740962982178,2.0685901641845703,7.5836181640625,-3.082275390625,25.93994140625
15.889999900000001,1.6639702320098877,8.056488990783691,2.1140801906585693,-11.260986328125,4.364013671875,26.8096923828125
15.9099999,1.8100165128707886,8.109161376953125,1.9776105880737305,-20.0958251953125,9.6893310546875,33.9202880859375
15.9299999,1.9081788063049316,8.118738174438477,1.889025092124939,7.8125,9.33837890625,25.665283203125
15.9499999,1.946485996246338,8.04691219329834,2.073378562927246,5.9051513671875,7.6904296875,8.087158203125
15.969999900000001,1.9369091987609863,7.975085735321045,2.5306711196899414,-33.3251953125,2.166748046875,0.457763671875
15.9899999,1.9393033981323242,8.030152320861816,2.964021682739258,-35.003662109375,-11.23046875,5.889892578125
16.0099999,2.011129379272461,8.109161376953125,3.272873640060425,-27.4810791015625,-14.404296875,19.7906494140625
16.0299999,2.1045033931732178,8.29590892791748,3.1316158771514893,-14.1754150390625,-21.8353271484375,5.9051513671875
16.0499999,2.2242133617401123,8.439560890197754,2.7940332889556885,12.5885009765625,-6.2713623046875,-3.2958984375
16.0699999,2.2673089504241943,8.60236644744873,2.516305923461914,15.9149169921875,15.0909423828125,-3.3416748046875
16.089999900000002,2.2601263523101807,8.621520042419434,2.4684219360351562,-18.3563232421875,8.6822509765625,-5.706787109375
16.109999900000002,2.2026655673980713,8.556877136230469,2.6671407222747803,-35.736083984375,-4.7607421875,-10.92529296875
16.1299999,2.142810583114624,8.406042098999023,2.8107926845550537,-19.317626953125,-5.67626953125,-16.2506103515625
16.1499999,2.0925323963165283,8.288725852966309,2.784456491470337,-11.9476318359375,1.373291015625,-19.0277099609375
16.1699999,2.008735179901123,8.26478385925293,2.6575639247894287,-4.150390625,11.932373046875,-20.416259765625
16.1899999,1.9273324012756348,8.38449478149414,2.5330653190612793,21.484375,6.9732666015625,-30.731201171875
16.2099999,1.8387469053268433,8.635885238647461,2.5450363159179688,21.91162109375,2.7618408203125,-37.9486083984375
16.2299999,1.7525556087493896,8.944737434387207,2.738966703414917,-17.39501953125,2.349853515625,-17.425537109375
16.249999900000002,1.6879122257232666,9.23682975769043,2.9065608978271484,-21.270751953125,-5.18798828125,-2.777099609375
16.269999900000002,1.6089035272598267,9.390059471130371,2.980781078338623,1.3885498046875,-16.2811279296875,-2.532958984375
16.2899999,1.5107412338256836,9.344569206237793,2.9328970909118652,-6.011962890625,-19.073486328125,3.6468505859375
16.3099999,1.4389152526855469,9.150638580322266,2.7461493015289307,-12.359619140625,-17.3492431640625,6.103515625
16.3299999,1.37906014919281,8.822632789611816,2.513911724090576,12.481689453125,-17.4407958984375,2.6092529296875
16.3499999,1.3407529592514038,8.38449478149414,2.255337953567505,46.08154296875,-19.500732421875,-2.3193359375
16.3699999,1.3623007535934448,7.915230751037598,1.8842366933822632,47.8668212890625,-17.2119140625,-6.2713623046875
16.3899999,1.3192051649093628,7.575253963470459,1.6950948238372803,33.0657958984375,23.1781005859375,-18.5089111328125
16.4099999,1.2018892765045166,7.405265808105469,1.656787633895874,57.281494140625,43.3502197265625,-25.20751953125
16.429999900000002,1.0965443849563599,7.733271598815918,1.9249382019042969,59.4940185546875,44.1436767578125,-39.61181640625
16.4499999,0.9624691009521484,8.42040729522705,2.2577321529388428,43.4722900390625,29.266357421875,-39.36767578125
16.4699999,0.9576807022094727,9.232041358947754,2.4588451385498047,18.3868408203125,17.0745849609375,-15.899658203125
16.4899999,0.9648633003234863,9.99339771270752,2.279279947280884,-0.4730224609375,17.2271728515625,-0.7476806640625
16.5099999,0.9888052940368652,10.44350814819336,1.9704279899597168,-12.26806640625,29.84619140625,0.9002685546875
16.5299999,0.9528923034667969,10.615890502929688,1.6831238269805908,-20.904541015625,27.801513671875,1.129150390625
16.5499999,0.9097966551780701,10.625467300415039,1.599326729774475,-47.8057861328125,11.0321044921875,11.41357421875
16.5699999,0.8236053586006165,10.424354553222656,1.659181833267212,-83.251953125,-4.547119140625,26.1077880859375
16.589999900000002,0.7326257228851318,10.127472877502441,1.8171991109848022,-106.0333251953125,11.2457275390625,23.895263671875
16.609999900000002,0.6033388376235962,9.765948295593262,2.030282974243164,-106.0943603515625,38.665771484375,12.0086669921875
16.6299999,0.4908113479614258,9.461885452270508,2.2888567447662354,-98.08349609375,39.3524169921875,10.009765625
16.6499999,0.4165911078453064,9.344569206237793,2.5450363159179688,-62.31689453125,20.599365234375,20.3857421875
16.6699999,0.38546648621559143,9.301473617553711,2.8107926845550537,-29.8614501953125,37.3687744140625,27.862548828125
16.6899999,0.33039984107017517,9.370905876159668,3.1196448802948,-26.2451171875,54.87060546875,34.7900390625
16.7099999,0.4141969084739685,9.349357604980469,3.5889084339141846,-36.346435546875,42.4652099609375,47.66845703125
16.7299999,0.5578489899635315,9.095572471618652,4.1156325340271,12.6190185546875,25.970458984375,35.94970703125
16.749999900000002,0.8092401623725891,8.755595207214355,4.28322696685791,87.249755859375,7.781982421875,-4.119873046875
16.769999900000002,1.0678139925003052,8.523358345031738,4.125209331512451,37.41455078125,26.031494140625,-0.7781982421875
16.7899999,1.2856862545013428,8.485051155090332,3.8810009956359863,-65.155029296875,66.6961669921875,28.3355712890625
16.8099999,1.5298948287963867,8.710105895996094,3.9025487899780273,-93.3837890625,60.6231689453125,48.5076904296875
16.8299999,1.7573440074920654,8.920795440673828,4.2329487800598145,-14.0380859375,6.04248046875,25.6805419921875
16.8499999,2.0254945755004883,8.978256225585938,4.836287498474121,6.7596435546875,-7.6751708984375,8.0108642578125
16.8699999,2.250549554824829,8.87051773071289,5.463568210601807,-30.6854248046875,12.8936767578125,17.9290771484375
16.8899999,2.387019157409668,8.712499618530273,5.803544998168945,-23.040771484375,-5.401611328125,8.1787109375
16.9099999,2.473210334777832,8.688557624816895,5.899312973022461,-11.5966796875,-40.924072265625,-13.6260986328125
16.929999900000002,2.540247917175293,8.774748802185059,5.638344764709473,-27.8167724609375,-35.94970703125,-12.5732421875
16.9499999,2.5713725090026855,8.932766914367676,5.097255229949951,-54.962158203125,-10.833740234375,10.7269287109375
16.9699999,2.580949544906616,9.057265281677246,4.671087741851807,-72.69287109375,-4.669189453125,22.2930908203125
16.9899999,2.5546131134033203,9.045293807983398,4.553771495819092,-39.4744873046875,-20.8587646484375,7.7667236328125
17.0099999,2.497152328491211,8.827422142028809,4.570530891418457,-18.310546875,-41.8548583984375,-10.3607177734375
17.0299999,2.454056739807129,8.501810073852539,4.60165548324585,-50.4608154296875,-25.4364013671875,-3.5400390625
17.0499999,2.497152328491211,8.293514251708984,4.654327869415283,-77.1331787109375,1.77001953125,1.373291015625
17.0699999,2.5306711196899414,8.209717750549316,4.853046894073486,-48.095703125,-1.64794921875,1.15966796875
17.089999900000002,2.5522189140319824,8.274360656738281,5.166687488555908,15.3656005859375,-23.7579345703125,4.2572021484375
17.109999900000002,2.5258827209472656,8.310274124145508,5.39174222946167,-2.197265625,-23.193359375,15.869140625
17.1299999,2.4588451385498047,8.26239013671875,5.327098846435547,-58.4259033203125,-6.2408447265625,15.4571533203125
17.1499999,2.5019407272338867,8.094796180725098,5.157110691070557,-67.047119140625,6.77490234375,12.2833251953125
17.1699999,2.557007312774658,7.881711959838867,5.123591423034668,-32.7301025390625,4.2877197265625,5.889892578125
17.1899999,2.6360161304473877,7.592013359069824,5.382165431976318,-21.0418701171875,-2.5177001953125,8.4075927734375
17.2099999,2.631227731704712,7.271190643310547,5.480327606201172,-39.24560546875,-10.07080078125,10.498046875
17.2299999,2.535459518432617,7.0341644287109375,5.571307182312012,-74.6612548828125,9.765625,-4.5928955078125
17.249999900000002,2.406172752380371,6.7492547035217285,5.513846397399902,-69.0460205078125,34.423828125,-6.439208984375
17.269999900000002,2.319981336593628,6.536170482635498,5.56173038482666,-48.4466552734375,22.64404296875,-8.3465576171875
17.2899999,2.296039342880249,6.418854713439941,5.791574001312256,-45.10498046875,6.2255859375,-24.0325927734375
17.3099999,2.3942017555236816,6.382941722869873,5.920860767364502,-17.974853515625,-0.42724609375,-35.3546142578125
17.3299999,2.542642116546631,6.603208065032959,5.846640586853027,-0.335693359375,5.9356689453125,-33.3251953125
17.3499999,2.6862943172454834,6.864176273345947,5.7341132164001465,-19.0582275390625,23.193359375,-14.83154296875
17.3699999,2.741360902786255,7.105990409851074,5.70777702331543,-36.43798828125,24.59716796875,-2.7008056640625
17.3899999,2.736572504043579,7.134721279144287,5.91128396987915,-48.2177734375,10.7421875,-9.4146728515625
17.409999900000003,2.698265314102173,7.036558628082275,6.212953567504883,-49.072265625,6.2103271484375,-18.7530517578125
17.429999900000002,2.6862943172454834,6.967126846313477,6.48828649520874,-33.1268310546875,12.63427734375,-14.2364501953125
17.4499999,2.7030537128448486,7.043741226196289,6.66785192489624,-20.7672119140625,17.39501953125,-0.5035400390625
17.4699999,2.7437551021575928,7.139509677886963,6.84981107711792,-24.6124267578125,16.1285400390625,11.016845703125
17.4899999,2.738966703414917,7.122750282287598,7.003039836883545,-47.9736328125,8.758544921875,11.1846923828125
17.5099999,2.671929121017456,6.9455790519714355,7.168240070343018,-74.4171142578125,8.6212158203125,3.9520263671875
17.5299999,2.561795711517334,6.658275127410889,7.292738437652588,-67.901611328125,11.5203857421875,0.1983642578125
17.5499999,2.4420857429504395,6.344634532928467,7.4100542068481445,-39.73388671875,8.880615234375,-3.90625
17.5699999,2.346317768096924,6.076483726501465,7.508216381072998,-17.0745849609375,6.34765625,-6.378173828125
17.589999900000002,2.2625205516815186,5.813121795654297,7.623138427734375,-19.0887451171875,8.11767578125,-5.7525634765625
17.609999900000002,2.1763293743133545,5.51624059677124,7.802703380584717,-56.5032958984375,14.0838623046875,-6.16455078125
17.6299999,2.1068975925445557,5.216965675354004,7.994239330291748,-75.0885009765625,11.199951171875,-12.847900390625
17.6499999,2.070984363555908,5.061342239379883,8.200140953063965,-55.4962158203125,4.0283203125,-29.693603515625
17.6699999,2.0901381969451904,4.970362663269043,8.286332130432129,-48.1109619140625,0.3814697265625,-27.1148681640625
17.6899999,2.1356279850006104,5.032611846923828,8.2312650680542,-43.8690185546875,8.544921875,-12.0086669921875
17.7099999,2.1763293743133545,5.078101634979248,8.20732307434082,-43.5791015625,24.505615234375,-8.4381103515625
17.7299999,2.1571757793426514,5.063736438751221,8.214506149291992,-33.63037109375,16.4031982421875,-24.35302734375
17.749999900000002,2.0877439975738525,5.080495834350586,8.305485725402832,-19.5159912109375,2.9296875,-41.229248046875
17.769999900000002,1.9704279899597168,5.128379821777344,8.377311706542969,-29.327392578125,1.9989013671875,-33.4930419921875
17.7899999,1.8626888990402222,5.264849662780762,8.38688850402832,-36.31591796875,9.307861328125,-15.5792236328125
17.8099999,1.7621324062347412,5.389348030090332,8.394071578979492,-24.566650390625,11.7950439453125,-0.244140625
17.8299999,1.6759412288665771,5.410895824432373,8.389283180236816,-20.6451416015625,-1.2664794921875,-4.39453125
17.8499999,1.580173134803772,5.293580055236816,8.413225173950195,-19.622802734375,-6.8511962890625,-7.1563720703125
17.8699999,1.4963760375976562,5.145139217376709,8.468291282653809,-23.3612060546875,3.997802734375,-5.9051513671875
17.8899999,1.4197616577148438,5.003881454467773,8.56645393371582,-20.599365234375,4.2724609375,-2.3193359375
17.909999900000003,1.37906014919281,4.841075897216797,8.719682693481445,-15.13671875,-9.6435546875,4.21142578125
17.929999900000002,1.3670891523361206,4.685452938079834,8.911218643188477,-10.406494140625,-17.0745849609375,1.983642578125
17.9499999,1.3670891523361206,4.501099109649658,9.023746490478516,-16.4031982421875,-17.0135498046875,-2.960205078125
17.9699999,1.3646949529647827,4.331110954284668,9.011775016784668,-14.4805908203125,-16.387939453125,-8.9874267578125
17.9899999,1.3934253454208374,4.180276393890381,8.932766914367676,-9.429931640625,-17.2271728515625,-17.1966552734375
18.0099999,1.455674648284912,4.101267337799072,8.767566680908203,-7.659912109375,-22.491455078125,-17.9901123046875
18.0299999,1.5322890281677246,4.050989151000977,8.516175270080566,-3.692626953125,-25.7720947265625,-13.641357421875
18.0499999,1.6160861253738403,4.067748546600342,8.22887134552002,1.1138916015625,-10.92529296875,-12.5274658203125
18.0699999,1.6687586307525635,4.089296340942383,8.078036308288574,3.5400390625,11.8865966796875,-12.4664306640625
18.089999900000002,1.6855180263519287,4.067748546600342,8.10437297821045,9.6893310546875,11.5966796875,-13.73291015625
18.109999900000002,1.680729627609253,3.9911341667175293,8.305485725402832,-6.256103515625,-4.7149658203125,-10.6353759765625
18.1299999,1.6663644313812256,3.909731388092041,8.616731643676758,-2.01416015625,-9.8724365234375,-7.3089599609375
18.1499999,1.678335428237915,3.845088005065918,8.971074104309082,-0.8544921875,-4.425048828125,6.988525390625
18.1699999,1.723825216293335,3.840299606323242,9.30386734008789,7.38525390625,-11.383056640625,12.2833251953125
18.1899999,1.800439715385437,3.890577793121338,9.53849983215332,36.224365234375,-20.2484130859375,0.5340576171875
18.2099999,1.8842366933822632,3.952826976776123,9.643844604492188,37.2772216796875,-14.892578125,-0.4119873046875
18.2299999,1.968033790588379,4.055777549743652,9.528923034667969,3.0364990234375,-12.26806640625,10.9405517578125
18.249999900000002,2.032677173614502,4.175487995147705,9.301473617553711,-5.79833984375,-16.2506103515625,13.5650634765625
18.269999900000002,2.1475989818573,4.304774761199951,9.157821655273438,20.08056640625,-22.1710205078125,9.58251953125
18.2899999,2.2218191623687744,4.28322696685791,8.96149730682373,47.3175048828125,-33.69140625,19.989013671875
18.3099999,2.255337953567505,4.1156325340271,8.671798706054688,48.0194091796875,-41.900634765625,17.0135498046875
18.3299999,2.2361843585968018,3.9001545906066895,8.339004516601562,31.7230224609375,-23.681640625,-4.5318603515625
18.3499999,2.1523873805999756,3.7445313930511475,7.898471355438232,6.2255859375,-18.8751220703125,-9.979248046875
18.3699999,2.1068975925445557,3.7852327823638916,7.687781810760498,1.2054443359375,-14.2669677734375,-5.462646484375
18.3899999,2.0853497982025146,3.971980571746826,7.704541206359863,7.1868896484375,-10.0555419921875,-3.8909912109375
18.409999900000003,2.0853497982025146,4.259284973144531,7.886500358581543,22.3541259765625,-9.58251953125,-15.07568359375
18.429999900000002,2.0638017654418945,4.548983097076416,8.070854187011719,33.3709716796875,-10.833740234375,-27.0538330078125
18.4499999,2.008735179901123,4.862623691558838,8.1139497756958,33.660888671875,-8.8958740234375,-28.594970703125
18.4699999,1.9488801956176758,5.224148273468018,8.042123794555664,22.216796875,1.129150390625,-25.7110595703125
18.4899999,1.9129672050476074,5.552153587341309,7.943961143493652,15.7928466796875,4.791259765625,-22.8424072265625
18.5099999,1.8962076902389526,5.851428985595703,7.797914981842041,26.7333984375,-4.82177734375,-19.4091796875
18.5299999,1.8986018896102905,6.064512729644775,7.594407558441162,24.4293212890625,-8.575439453125,-10.25390625
18.5499999,1.920149803161621,6.14831018447876,7.343016624450684,-3.753662109375,3.7689208984375,3.4027099609375
18.5699999,1.9560627937316895,6.074089527130127,7.110779285430908,-11.0015869140625,14.7552490234375,9.246826171875
18.589999900000002,1.9919757843017578,5.808333396911621,7.029376029968262,8.4381103515625,13.3514404296875,5.31005859375
18.609999900000002,2.0422539710998535,5.446808815002441,7.194576263427734,22.491455078125,8.6822509765625,-3.7689208984375
18.6299999,2.0877439975738525,5.0876784324646,7.4316020011901855,18.0511474609375,5.950927734375,-8.6822509765625
18.6499999,2.1475989818573,4.867412090301514,7.599195957183838,9.5367431640625,4.5013427734375,-9.7808837890625
18.6699999,2.229001760482788,4.865017890930176,7.63989782333374,26.9927978515625,6.65283203125,-16.1285400390625
18.6899999,2.3367409706115723,5.125985622406006,7.491456985473633,47.6531982421875,9.063720703125,-21.1181640625
18.7099999,2.4851813316345215,5.580883979797363,7.338228225708008,33.1573486328125,13.18359375,-11.6729736328125
18.7299999,2.63362193107605,6.165069580078125,7.175422668457031,20.5078125,12.7105712890625,-3.936767578125
18.749999900000002,2.765302896499634,6.799532890319824,6.959944248199463,32.196044921875,8.72802734375,-3.23486328125
18.769999900000002,2.8634653091430664,7.448361396789551,6.737283706665039,30.2734375,14.70947265625,1.1444091796875
18.7899999,2.911349296569824,8.078036308288574,6.490680694580078,18.0206298828125,26.2298583984375,15.68603515625
18.8099999,2.8874073028564453,8.678980827331543,6.212953567504883,24.9786376953125,28.9764404296875,27.984619140625
18.8299999,2.806004285812378,9.2033109664917,6.00226354598999,29.3426513671875,29.4952392578125,36.1480712890625
18.8499999,2.6647465229034424,9.636661529541016,5.839457988739014,16.632080078125,36.712646484375,47.637939453125
18.8699999,2.470816135406494,9.885659217834473,5.767632007598877,10.711669921875,47.7752685546875,59.600830078125
18.8899999,2.2457611560821533,10.017339706420898,5.837063789367676,47.6531982421875,57.891845703125,43.02978515625
18.909999900000003,1.9632453918457031,9.99339771270752,5.920860767364502,104.2938232421875,58.7005615234375,19.775390625
18.929999900000002,1.659181833267212,9.763554573059082,5.966350555419922,127.6397705078125,54.5654296875,25.1617431640625
18.9499999,1.3455413579940796,9.428366661071777,5.784391403198242,136.6119384765625,48.2940673828125,29.998779296875
18.9699999,1.0989385843276978,8.937555313110352,5.480327606201172,144.317626953125,61.859130859375,38.848876953125
18.9899999,0.9241618514060974,8.453926086425781,5.094861030578613,175.8270263671875,82.94677734375,44.7845458984375
19.0099999,0.8379706144332886,7.931990146636963,4.750096321105957,230.6060791015625,84.4268798828125,41.3970947265625
19.0299999,0.768538773059845,7.594407558441162,4.388571739196777,290.985107421875,88.8519287109375,30.303955078125
19.0499999,0.6967126727104187,7.453149795532227,3.7852327823638916,311.8133544921875,97.0916748046875,21.4996337890625
19.0699999,0.6033388376235962,7.4555439949035645,3.2321722507476807,266.632080078125,114.532470703125,17.578125
19.089999900000002,0.49320554733276367,7.915230751037598,2.2840683460235596,272.3388671875,126.15966796875,9.857177734375
19.109999900000002,0.3687070608139038,8.463502883911133,1.4317326545715332,217.2698974609375,132.6141357421875,12.26806640625
19.1299999,0.21547815203666687,9.119514465332031,0.6823474764823914,111.785888671875,151.0162353515625,19.6685791015625
19.1499999,0.05506663769483566,9.581595420837402,0.07182604819536209,83.1451416015625,142.02880859375,24.7039794921875
19.1699999,-0.11971008777618408,9.718064308166504,-0.2322375625371933,56.8084716796875,123.5504150390625,20.6756591796875
19.1899999,-0.2585737705230713,9.646238327026367,-0.36152446269989014,20.5841064453125,124.053955078125,9.4757080078125
19.2099999,-0.3495534360408783,9.579200744628906,-0.33039984107017517,-11.8560791015625,132.5225830078125,3.204345703125
19.2299999,-0.3471592366695404,9.710882186889648,-0.031124621629714966,-28.7322998046875,126.4801025390625,4.2724609375
19.249999900000002,-0.27054479718208313,9.995792388916016,0.47884035110473633,-2.99072265625,103.33251953125,8.514404296875
19.269999900000002,-0.11013327538967133,10.407594680786133,0.9720458984375,28.8238525390625,76.35498046875,13.4735107421875
19.2899999,0.05746084079146385,10.699687004089355,1.290474772453308,11.53564453125,63.5528564453125,14.9993896484375
19.3099999,0.22026655077934265,10.96544361114502,1.2641384601593018,1.0223388671875,65.093994140625,-6.40869140625
19.3299999,0.36152446269989014,11.21204662322998,0.9026140570640564,39.9169921875,66.2384033203125,-38.4979248046875
19.3499999,0.43095630407333374,11.5065336227417,0.3687070608139038,55.6793212890625,77.880859375,-43.6859130859375
19.3699999,0.4429273009300232,11.944672584533691,-0.47884035110473633,21.30126953125,97.47314453125,-47.18017578125
19.3899999,0.31603461503982544,12.502521514892578,-1.525106430053711,-23.0255126953125,135.467529296875,-44.036865234375
19.409999900000003,0.0694318488240242,13.139378547668457,-2.7006595134735107,-56.793212890625,180.206298828125,-22.3236083984375
19.429999900000002,-0.33279404044151306,13.467384338378906,-3.4356794357299805,-133.4228515625,228.8970947265625,0.5035400390625
19.4499999,-0.7589619159698486,13.476961135864258,-3.2321722507476807,-176.239013671875,248.8861083984375,11.90185546875
19.4699999,-1.1348515748977661,12.957419395446777,-2.049436569213867,-142.8680419921875,205.2459716796875,32.65380859375
19.4899999,-1.3982137441635132,11.923124313354492,-0.1604115068912506,-136.077880859375,150.57373046875,64.1632080078125
19.5099999,-1.4772224426269531,10.788272857666016,1.7693150043487549,-127.3956298828125,126.1444091796875,75.8514404296875
19.5299999,-1.4413094520568848,9.768342971801758,3.35667085647583,-101.348876953125,120.2850341796875,66.8792724609375
19.5499999,-1.3311761617660522,8.99740982055664,4.398148536682129,-79.193115234375,94.9249267578125,66.7724609375
19.5699999,-1.2042834758758545,8.492233276367188,4.941632270812988,-44.49462890625,63.262939453125,78.5675048828125
19.589999900000002,-1.0630255937576294,8.164227485656738,5.07570743560791,-26.30615234375,48.828125,83.0078125
19.609999900000002,-0.9289502501487732,7.833827972412109,4.8937482833862305,-33.416748046875,45.379638671875,80.3985595703125
19.6299999,-0.7781155705451965,7.532158374786377,4.491522312164307,-19.1802978515625,41.9921875,68.84765625
19.6499999,-0.5985504388809204,7.338228225708008,4.122815132141113,25.1312255859375,45.6085205078125,56.57958984375
19.6699999,-0.45489832758903503,7.189787864685059,3.8498764038085938,34.4696044921875,42.1600341796875,57.9376220703125
19.6899999,-0.2585737705230713,7.144298076629639,3.7493197917938232,29.2510986328125,35.7818603515625,53.924560546875
19.7099999,-0.07900865375995636,7.115567684173584,3.5865142345428467,59.2041015625,35.2630615234375,50.7659912109375
19.7299999,0.1388636976480484,7.048529624938965,3.3231520652770996,66.7724609375,37.29248046875,48.9501953125
19.749999900000002,0.33758243918418884,7.01979923248291,3.098097085952759,22.7203369140625,51.8035888671875,40.1458740234375
19.769999900000002,0.5099649429321289,7.007828235626221,2.8347349166870117,17.547607421875,52.642822265625,32.9132080078125
19.7899999,0.6392518281936646,7.0988078117370605,2.7293899059295654,36.2396240234375,51.025390625,30.8380126953125
19.8099999,0.730231523513794,7.187393665313721,2.7748796939849854,15.31982421875,53.4820556640625,39.9932861328125
19.8299999,0.7924807667732239,7.295132637023926,2.8778305053710938,-3.5858154296875,61.126708984375,44.2047119140625
19.8499999,0.8906430602073669,7.295132637023926,3.0095114707946777,4.7149658203125,73.8525390625,39.8712158203125
19.8699999,1.0678139925003052,7.084442615509033,3.2537200450897217,-9.3994140625,77.69775390625,32.5927734375
19.8899999,1.259350061416626,6.866570472717285,3.584120035171509,-46.9512939453125,56.5338134765625,15.68603515625
19.909999900000003,1.4772224426269531,6.63433313369751,3.9456443786621094,-22.918701171875,41.9921875,8.3770751953125
19.929999900000002,1.5825673341751099,6.560112476348877,4.271255970001221,21.8048095703125,38.604736328125,4.4403076171875
19.9499999,1.5825673341751099,6.610390663146973,4.575319290161133,49.6368408203125,38.6199951171875,0.3204345703125
19.9699999,1.479616641998291,6.847416877746582,4.675876140594482,92.926025390625,37.29248046875,-4.0283203125
19.9899999,1.3551181554794312,7.1251444816589355,4.728548526763916,109.3597412109375,31.494140625,-9.2926025390625
20.0099999,1.2042834758758545,7.438784599304199,4.565742492675781,86.7919921875,17.578125,-11.8408203125
20.0299999,1.0295066833496094,7.8098859786987305,4.309563159942627,53.64990234375,7.0648193359375,-14.5111083984375
20.0499999,0.768538773059845,8.056488990783691,4.1180267333984375,16.8609619140625,1.03759765625,-11.749267578125
20.0699999,0.4429273009300232,8.169015884399414,4.067748546600342,32.3333740234375,1.46484375,-8.4075927734375
20.089999900000002,0.047884032130241394,8.02536392211914,4.333505153656006,57.1441650390625,-0.3662109375,-8.544921875
20.109999900000002,-0.395043283700943,7.627926826477051,4.709394931793213,64.9871826171875,-13.9312744140625,-14.0838623046875
20.1299999,-0.8786720037460327,7.084442615509033,5.051765441894531,70.2972412109375,-18.98193359375,-23.773193359375
20.1499999,-1.4987702369689941,6.57926607131958,5.1331682205200195,89.141845703125,-9.857177734375,-30.70068359375
20.1699999,-2.4372973442077637,6.402095317840576,5.171475887298584,117.7978515625,3.84521484375,-38.299560546875
20.1899999,-3.8307228088378906,6.92881965637207,5.492298603057861,99.9298095703125,0.3662109375,-58.8836669921875
20.2099999,-5.837063789367676,8.078036308288574,6.631938934326172,6.04248046875,-33.935546875,-58.319091796875
20.2299999,-8.638279914855957,10.086771965026855,9.404424667358398,-74.0814208984375,-111.6180419921875,-50.1556396484375
20.249999900000002,-12.385205268859863,12.466608047485352,13.67807388305664,-152.7099609375,-260.7421875,-45.9747314453125
20.269999900000002,-17.331626892089844,14.839262008666992,18.71547508239746,-190.0787353515625,-457.3211669921875,-11.5814208984375
20.2899999,-23.477540969848633,17.518373489379883,24.835054397583008,-77.1636962890625,-500,-18.6767578125
20.3099999,-31.150959014892578,19.752164840698242,29.35051918029785,95.7489013671875,-500,12.6800537109375
20.3299999,-40.34947967529297,22.184673309326172,31.802181243896484,247.9248046875,-500,98.8616943359375
20.3499999,-50.4410400390625,24.210166931152344,27.727249145507812,343.841552734375,-500,249.2523193359375
20.3699999,-58.724979400634766,25.256433486938477,17.7937068939209,185.6231689453125,-500,389.190673828125
20.3899999,-64.0113754272461,24.4376163482666,2.9951462745666504,77.6214599609375,-500,424.62158203125
20.409999900000003,-64.25079345703125,21.284452438354492,-14.173673629760742,107.36083984375,-500,432.2662353515625
