# Time (seconds),Accel_X,Accel_Y,Accel_Z,Gyro_X,Gyro_Y,Gyro_Z
0.0099999,0.004788403399288654,-0.10055647045373917,9.911994934082031,-0.213623046875,0.18310546875,-0.152587890625
0.029999900000000003,0.0071826050989329815,-0.09816227108240128,9.914389610290527,-0.2593994140625,0.1678466796875,-0.213623046875
0.0499999,0.0071826050989329815,-0.0933738648891449,9.907206535339355,-0.244140625,0.091552734375,-0.1983642578125
0.0699999,0.009576806798577309,-0.090979665517807,9.9000244140625,-0.1678466796875,0.1678466796875,-0.2288818359375
0.08999990000000001,0.011971008032560349,-0.090979665517807,9.888052940368652,-0.2288818359375,0.1068115234375,-0.2288818359375
0.10999990000000001,0.011971008032560349,-0.08858546614646912,9.885659217834473,-0.1373291015625,0.0762939453125,-0.1983642578125
0.1299999,0.014365210197865963,-0.090979665517807,9.883264541625977,-0.213623046875,0.1068115234375,-0.18310546875
0.14999990000000002,0.014365210197865963,-0.0933738648891449,9.885659217834473,-0.274658203125,0.1373291015625,-0.213623046875
0.1699999,0.014365210197865963,-0.09576806426048279,9.890447616577148,-0.244140625,0.1220703125,-0.213623046875
0.1899999,0.014365210197865963,-0.09816227108240128,9.895236015319824,-0.1678466796875,0.152587890625,-0.213623046875
0.20999990000000002,0.014365210197865963,-0.09576806426048279,9.9000244140625,-0.1678466796875,0.1373291015625,-0.213623046875
0.2299999,0.014365210197865963,-0.09576806426048279,9.9000244140625,-0.18310546875,0.152587890625,-0.18310546875
0.2499999,0.014365210197865963,-0.09576806426048279,9.9000244140625,-0.213623046875,0.091552734375,-0.244140625
0.2699999,0.016759412363171577,-0.09576806426048279,9.895236015319824,-0.1983642578125,0.0762939453125,-0.213623046875
0.28999990000000003,0.014365210197865963,-0.09576806426048279,9.892841339111328,-0.244140625,0.1373291015625,-0.244140625
0.3099999,0.014365210197865963,-0.09576806426048279,9.890447616577148,-0.213623046875,0.1678466796875,-0.2288818359375
0.3299999,0.014365210197865963,-0.09576806426048279,9.885659217834473,-0.18310546875,0.152587890625,-0.1983642578125
0.34999990000000003,0.014365210197865963,-0.09576806426048279,9.885659217834473,-0.2288818359375,0.18310546875,-0.2593994140625
0.3699999,0.011971008032560349,-0.09576806426048279,9.885659217834473,-0.213623046875,0.1068115234375,-0.213623046875
0.3899999,0.011971008032560349,-0.09576806426048279,9.888052940368652,-0.1983642578125,0.1220703125,-0.1983642578125
0.40999990000000003,0.009576806798577309,-0.09576806426048279,9.890447616577148,-0.1983642578125,0.1220703125,-0.2593994140625
0.4299999,0.009576806798577309,-0.0933738648891449,9.892841339111328,-0.213623046875,0.1220703125,-0.1678466796875
0.4499999,0.0071826050989329815,-0.09576806426048279,9.892841339111328,-0.2288818359375,0.091552734375,-0.18310546875
0.4699999,0.009576806798577309,-0.09816227108240128,9.890447616577148,-0.244140625,0.1220703125,-0.213623046875
0.4899999,0.009576806798577309,-0.10055647045373917,9.890447616577148,-0.152587890625,0.0762939453125,-0.1373291015625
0.5099999,0.011971008032560349,-0.10295066982507706,9.890447616577148,-0.1983642578125,0.0152587890625,-0.152587890625
0.5299999,0.011971008032560349,-0.10295066982507706,9.890447616577148,-0.1983642578125,0.1068115234375,-0.274658203125
0.5499999,0.011971008032560349,-0.09816227108240128,9.892841339111328,-0.152587890625,0.152587890625,-0.2593994140625
0.5699999,0.011971008032560349,-0.09816227108240128,9.895236015319824,-0.2288818359375,0.091552734375,-0.2593994140625
0.5899998999999999,0.009576806798577309,-0.09576806426048279,9.9000244140625,-0.244140625,0.1678466796875,-0.2593994140625
0.6099998999999999,0.009576806798577309,-0.09576806426048279,9.9000244140625,-0.1678466796875,0.152587890625,-0.152587890625
0.6299999,0.009576806798577309,-0.09576806426048279,9.9000244140625,-0.1678466796875,0.1373291015625,-0.18310546875
0.6499999,0.009576806798577309,-0.09576806426048279,9.9000244140625,-0.2288818359375,0.1068115234375,-0.274658203125
0.6699999,0.009576806798577309,-0.09576806426048279,9.9000244140625,-0.18310546875,0.1373291015625,-0.2593994140625
0.6899999,0.009576806798577309,-0.09576806426048279,9.9000244140625,-0.1983642578125,0.152587890625,-0.2593994140625
0.7099999,0.009576806798577309,-0.09576806426048279,9.9000244140625,-0.1983642578125,0.0762939453125,-0.18310546875
0.7299998999999999,0.009576806798577309,-0.09576806426048279,9.9000244140625,-0.2593994140625,0.152587890625,-0.213623046875
0.7499998999999999,0.0071826050989329815,-0.09816227108240128,9.897629737854004,-0.18310546875,0.0762939453125,-0.2288818359375
0.7699999,0.004788403399288654,-0.09816227108240128,9.897629737854004,-0.1373291015625,0.0762939453125,-0.2288818359375
0.7899999,0.004788403399288654,-0.10055647045373917,9.895236015319824,-0.18310546875,0.1678466796875,-0.18310546875
0.8099999,0.004788403399288654,-0.10055647045373917,9.892841339111328,-0.1983642578125,0.1220703125,-0.1983642578125
0.8299999,0.0071826050989329815,-0.10055647045373917,9.890447616577148,-0.18310546875,0.1220703125,-0.1678466796875
0.8499998999999999,0.009576806798577309,-0.09816227108240128,9.888052940368652,-0.1678466796875,0.1068115234375,-0.1983642578125
0.8699998999999999,0.011971008032560349,-0.09576806426048279,9.888052940368652,-0.1373291015625,0.1220703125,-0.2593994140625
0.8899999,0.011971008032560349,-0.09576806426048279,9.885659217834473,-0.1983642578125,0.1678466796875,-0.2593994140625
0.9099999,0.011971008032560349,-0.09576806426048279,9.885659217834473,-0.2593994140625,0.1678466796875,-0.274658203125
0.9299999,0.009576806798577309,-0.09576806426048279,9.885659217834473,-0.152587890625,0.152587890625,-0.213623046875
0.9499999,0.009576806798577309,-0.09576806426048279,9.888052940368652,-0.1678466796875,0.1983642578125,-0.18310546875
0.9699998999999999,0.009576806798577309,-0.0933738648891449,9.890447616577148,-0.152587890625,0.1068115234375,-0.2288818359375
0.9899998999999999,0.009576806798577309,-0.0933738648891449,9.895236015319824,-0.213623046875,0.091552734375,-0.1373291015625
1.0099999,0.0071826050989329815,-0.0933738648891449,9.895236015319824,-0.1983642578125,0.18310546875,-0.213623046875
1.0299999,0.0071826050989329815,-0.0933738648891449,9.895236015319824,-0.244140625,0.1983642578125,-0.213623046875
1.0499999,0.009576806798577309,-0.0933738648891449,9.895236015319824,-0.244140625,0.152587890625,-0.2288818359375
1.0699999,0.011971008032560349,-0.09816227108240128,9.895236015319824,-0.274658203125,0.1678466796875,-0.152587890625
1.0899999,0.009576806798577309,-0.09816227108240128,9.895236015319824,-0.244140625,0.091552734375,-0.1678466796875
1.1099999,0.009576806798577309,-0.10055647045373917,9.895236015319824,-0.213623046875,0.1068115234375,-0.2288818359375
1.1299999,0.009576806798577309,-0.09816227108240128,9.895236015319824,-0.2288818359375,0.1983642578125,-0.1678466796875
1.1499999,0.0071826050989329815,-0.09816227108240128,9.897629737854004,-0.18310546875,0.1068115234375,-0.213623046875
1.1699998999999999,0.004788403399288654,-0.09576806426048279,9.9000244140625,-0.152587890625,0.1373291015625,-0.213623046875
1.1899998999999999,0.0071826050989329815,-0.09576806426048279,9.90241813659668,-0.1983642578125,0.152587890625,-0.2593994140625
1.2099999,0.004788403399288654,-0.09576806426048279,9.90241813659668,-0.1983642578125,0.091552734375,-0.213623046875
1.2299999,0.004788403399288654,-0.09576806426048279,9.90241813659668,-0.1678466796875,0.0762939453125,-0.1373291015625
1.2499999,0.004788403399288654,-0.09576806426048279,9.9000244140625,-0.1373291015625,0.1373291015625,-0.1983642578125
1.2699999,0.0071826050989329815,-0.09576806426048279,9.897629737854004,-0.1678466796875,0.1373291015625,-0.213623046875
1.2899999,0.0071826050989329815,-0.09576806426048279,9.895236015319824,-0.1983642578125,0.0762939453125,-0.1983642578125
1.3099999,0.009576806798577309,-0.09576806426048279,9.895236015319824,-0.2288818359375,0.1373291015625,-0.244140625
1.3299999,0.009576806798577309,-0.09816227108240128,9.892841339111328,-0.1678466796875,0.091552734375,-0.2593994140625
1.3499999,0.009576806798577309,-0.09816227108240128,9.895236015319824,-0.1678466796875,0.1068115234375,-0.213623046875
1.3699999,0.004788403399288654,-0.10055647045373917,9.895236015319824,-0.1373291015625,0.152587890625,-0.213623046875
1.3899999,0.004788403399288654,-0.10055647045373917,9.897629737854004,-0.1983642578125,0.091552734375,-0.152587890625
1.4099999,0.002394201699644327,-0.10295066982507706,9.9000244140625,-0.2288818359375,0.06103515625,-0.18310546875
1.4299998999999999,0.0071826050989329815,-0.10295066982507706,9.9000244140625,-0.213623046875,0.0762939453125,-0.152587890625
1.4499999,0.011971008032560349,-0.10295066982507706,9.9000244140625,-0.2288818359375,0.1220703125,-0.2288818359375
1.4699999,0.014365210197865963,-0.10055647045373917,9.90241813659668,-0.18310546875,0.091552734375,-0.2288818359375
1.4899999,-0.12449848651885986,-0.24420857429504395,9.90241813659668,0,0,0.396728515625
1.5099999,-0.07422025501728058,-0.2082955539226532,9.897629737854004,0.701904296875,-0.06103515625,4.6539306640625
1.5299999,-0.2106897532939911,-0.24660277366638184,9.895236015319824,-1.77001953125,-0.6256103515625,1.03759765625
1.5499999,-0.05746084079146385,-0.1388636976480484,9.890447616577148,-0.091552734375,0.1678466796875,9.1094970703125
1.5699999,-0.002394201699644327,-0.026336219161748886,9.888052940368652,0.4119873046875,0.1983642578125,4.486083984375
1.5899999,0.11013327538967133,0.033518824726343155,9.890447616577148,0.030517578125,-0.0762939453125,-2.0904541015625
1.6099999,0.14604631066322327,0.019153613597154617,9.892841339111328,-0.2288818359375,0.18310546875,-0.244140625
1.6299999,0.13407529890537262,-0.014365210197865963,9.897629737854004,-0.2288818359375,0.1678466796875,-0.06103515625
1.6499999,0.09816227108240128,-0.05267243832349777,9.9000244140625,-0.1983642578125,0.091552734375,-0.1678466796875
1.6699999,0.05985504388809204,-0.08140286058187485,9.9000244140625,-0.152587890625,0.1220703125,-0.2288818359375
1.6899998999999999,0.028730420395731926,-0.09816227108240128,9.9000244140625,-0.244140625,0.1068115234375,-0.213623046875
1.7099999,0.011971008032560349,-0.10773907601833344,9.9000244140625,-0.213623046875,0.1373291015625,-0.1983642578125
1.7299999,0.004788403399288654,-0.11013327538967133,9.9000244140625,-0.18310546875,0.1373291015625,-0.18310546875
1.7499999,0.004788403399288654,-0.10534487664699554,9.9000244140625,-0.1373291015625,0.18310546875,-0.1983642578125
1.7699999,0.009576806798577309,-0.10055647045373917,9.897629737854004,-0.1373291015625,0.1678466796875,-0.1983642578125
1.7899999,0.009576806798577309,-0.09576806426048279,9.897629737854004,-0.2288818359375,0.152587890625,-0.1678466796875
1.8099999,0.014365210197865963,-0.0933738648891449,9.897629737854004,-0.2288818359375,0.1983642578125,-0.244140625
1.8299999,0,-0.1628057211637497,9.897629737854004,-0.1983642578125,0.152587890625,-0.3662109375
1.8499999,-0.07182604819536209,-0.42856210470199585,9.911994934082031,-0.42724609375,0.30517578125,-6.256103515625
1.8699999,-0.07422025501728058,-0.7350199222564697,9.909601211547852,0.42724609375,2.38037109375,-18.9971923828125
1.8899999,-0.07661445438861847,-0.9959878921508789,9.895236015319824,-0.396728515625,-0.5950927734375,-37.322998046875
1.9099999,0.033518824726343155,-1.1468225717544556,9.9000244140625,0.2288818359375,0.1678466796875,-43.304443359375
1.9299998999999999,0.1843535304069519,-1.1324573755264282,9.856928825378418,0.701904296875,-0.1983642578125,-53.0853271484375
1.9499999,0.23942017555236816,-0.6775590777397156,9.830592155456543,-3.082275390625,1.6326904296875,-59.600830078125
1.9699999,0.4596867263317108,-0.42377370595932007,9.880870819091797,3.0364990234375,-0.6561279296875,-7.781982421875
1.9899999,0.33279404044151306,-0.1364694982767105,9.947908401489258,7.1868896484375,-0.640869140625,-13.275146484375
2.0099999,0.3902548849582672,0.031124621629714966,10.007762908935547,13.4124755859375,-25.360107421875,-49.530029296875
2.0299999,0.2992752194404602,-0.21787235140800476,10.050858497619629,-1.3275146484375,-33.4930419921875,-72.540283203125
2.0499999,0.16998831927776337,-0.730231523513794,10.06043529510498,-11.23046875,-15.80810546875,-67.352294921875
2.0699999,0.1149216815829277,-1.5682021379470825,10.06043529510498,-4.608154296875,-30.6243896484375,-79.498291015625
2.0899999,-0.031124621629714966,-2.5306711196899414,10.204087257385254,2.38037109375,-53.16162109375,-121.39892578125
2.1099999,-0.002394201699644327,-2.9759926795959473,10.500968933105469,22.9949951171875,-80.8868408203125,-100.677490234375
2.1299999,0.2561795711517334,-2.7317841053009033,11.010933876037598,37.6434326171875,-138.7176513671875,-36.468505859375
2.1499999,0.8092401623725891,-1.7884687185287476,11.63342571258545,9.0789794921875,-90.51513671875,-17.0745849609375
2.1699999,1.6136919260025024,-0.6703764796257019,12.344504356384277,20.81298828125,-65.8416748046875,2.4566650390625
2.1899999,2.3487119674682617,0.0454898327589035,13.043610572814941,18.00537109375,-63.3087158203125,21.453857421875
2.2099999,3.064578056335449,0.40222588181495667,13.515268325805664,-33.905029296875,-50.0030517578125,-17.02880859375
2.2299999,3.624821424484253,0.45489832758903503,13.891158103942871,-91.888427734375,-33.2794189453125,-56.884765625
2.2499999,4.1395745277404785,0.5506663918495178,14.27423095703125,-113.95263671875,-30.70068359375,-53.0548095703125
2.2699999,4.592078685760498,0.8954314589500427,14.633360862731934,-72.8302001953125,-41.1376953125,-38.421630859375
2.2899999,4.977545261383057,1.414973258972168,14.94460678100586,-74.6917724609375,-28.4423828125,-61.004638671875
2.3099999,5.307945251464844,1.9800047874450684,14.925453186035156,-115.325927734375,14.6484375,-92.041015625
2.3299999,5.580883979797363,2.22660756111145,14.520833015441895,-89.813232421875,32.0892333984375,-99.609375
2.3499999,5.892130374908447,1.9584569931030273,13.615824699401855,-68.6492919921875,10.2081298828125,-138.1683349609375
2.3699999,5.896918773651123,1.0271124839782715,12.646173477172852,-173.8128662109375,12.6190185546875,-209.9609375
2.3899999,5.805939197540283,0,11.702857971191406,-229.1717529296875,5.0811767578125,-206.2530517578125
2.4099999,5.343858242034912,-1.3024457693099976,11.286267280578613,-155.059814453125,17.486572265625,-178.40576171875
2.4299999,4.757278919219971,-2.1739351749420166,11.221623420715332,-92.7581787109375,32.318115234375,-171.8292236328125
2.4499999,4.101267337799072,-2.918531894683838,11.446678161621094,-100.64697265625,41.229248046875,-143.0816650390625
2.4699999,3.5194764137268066,-3.4955344200134277,11.496956825256348,-61.1572265625,64.605712890625,-106.475830078125
2.4899999,3.050212860107422,-3.821146011352539,11.17852783203125,13.2598876953125,60.699462890625,-86.9140625
2.5099999,2.7006595134735107,-3.957615375518799,10.47702693939209,21.4996337890625,18.2037353515625,-104.3701171875
2.5299999,2.47560453414917,-3.995922565460205,9.624691009521484,-28.564453125,10.6964111328125,-131.561279296875
2.5499999,2.3319525718688965,-3.7684733867645264,8.853757858276367,-93.1854248046875,38.3453369140625,-134.6435546875
2.5699999,2.3271639347076416,-3.378218650817871,8.38449478149414,-72.6470947265625,57.6629638671875,-114.1357421875
2.5899999,2.470816135406494,-2.782062292098999,8.185775756835938,-35.308837890625,65.399169921875,-99.9908447265625
2.6099999,2.6599581241607666,-2.315192937850952,8.051700592041016,-23.284912109375,93.7042236328125,-88.5772705078125
2.6299999,2.7533318996429443,-1.946485996246338,7.63989782333374,-37.78076171875,134.1552734375,-79.0863037109375
2.6499999,2.631227731704712,-2.0183119773864746,6.983886241912842,-56.1370849609375,149.4598388671875,-79.345703125
2.6699999,2.365471363067627,-2.4660277366638184,6.457161903381348,-9.246826171875,103.912353515625,-76.904296875
2.6899999,2.049436569213867,-3.043030261993408,6.3063273429870605,38.116455078125,56.1981201171875,-66.8487548828125
2.7099999,1.8483237028121948,-3.35667085647583,6.53377628326416,30.3955078125,71.3958740234375,-36.80419921875
2.7299999,1.6927006244659424,-3.488351821899414,6.63433313369751,-5.950927734375,120.6207275390625,-10.467529296875
2.7499999,1.3838485479354858,-3.4787750244140625,6.31829833984375,-10.0555419921875,130.1727294921875,-5.706787109375
2.7699999,1.137245774269104,-3.404554843902588,5.880159378051758,-1.983642578125,90.9881591796875,-8.3770751953125
2.7899999,0.9648633003234863,-3.184288263320923,5.504269599914551,-87.6617431640625,50.689697265625,14.434814453125
2.8099999,0.8595184087753296,-2.832340717315674,5.674258232116699,-146.4996337890625,65.73486328125,12.26806640625
2.8299999,0.9217676520347595,-2.492363929748535,5.980715751647949,-6.3629150390625,84.136962890625,-16.8609619140625
2.8499999,0.8379706144332886,-2.274491548538208,6.215347766876221,87.310791015625,59.50927734375,-2.6092529296875
2.8699999,0.5817909836769104,-2.4468741416931152,6.244078159332275,-48.553466796875,40.1153564453125,21.6827392578125
2.8899999,0.22026655077934265,-2.674323320388794,6.088454723358154,-152.496337890625,49.62158203125,23.3612060546875
2.9099999,-0.15322890877723694,-2.913743495941162,5.872976779937744,-97.6409912109375,43.1671142578125,14.5416259765625
2.9299999,-0.3902548849582672,-2.9520506858825684,5.8203043937683105,-36.5447998046875,14.6636962890625,-1.0833740234375
2.9499999,-0.4692635238170624,-2.650381326675415,5.8657941818237305,-55.5877685546875,14.434814453125,8.0108642578125
2.9699999,-0.5339069962501526,-2.7054479122161865,5.841852188110352,-55.145263671875,40.1458740234375,20.3399658203125
2.9899999,-0.5770025849342346,-2.564189910888672,5.899312973022461,-31.73828125,48.919677734375,-6.5460205078125
3.0099999,-0.6847416758537292,-2.6360161304473877,5.849034786224365,-29.8004150390625,14.434814453125,-44.3878173828125
3.0299999,-1.0007762908935547,-3.136404275894165,5.760449409484863,-74.9969482421875,-19.9737548828125,-54.50439453125
3.0499999,-1.3886369466781616,-3.5697548389434814,5.827486991882324,-139.984130859375,-23.529052734375,-32.0281982421875
3.0699999,-1.824381709098816,-3.97916316986084,5.726930618286133,-81.6497802734375,-39.764404296875,-13.3056640625
3.0899999,-2.3032219409942627,-4.0964789390563965,5.585672378540039,-118.1640625,-45.83740234375,-35.5682373046875
3.1099999,-2.691082715988159,-3.845088005065918,5.231330871582031,-211.3494873046875,-58.258056640625,-72.8302001953125
3.1299999,-2.875436305999756,-3.4787750244140625,4.666299343109131,-207.6263427734375,-24.4903564453125,-87.1734619140625
3.1499999,-2.875436305999756,-3.799597978591919,4.175487995147705,-197.8912353515625,-29.5562744140625,-115.997314453125
3.1699999,-2.7892448902130127,-4.948814868927002,3.818751811981201,-185.272216796875,-44.12841796875,-101.1505126953125
3.1899999,-2.4420857429504395,-6.4380083084106445,3.383007049560547,-150.81787109375,-52.3681640625,-13.6566162109375
3.2099999,-2.1116859912872314,-8.101978302001953,2.9041666984558105,-283.6761474609375,-77.57568359375,4.5013427734375
3.2299999,-1.5849615335464478,-9.172186851501465,2.363077163696289,-405.426025390625,-120.2545166015625,-38.299560546875
3.2499999,-0.8044517636299133,-9.361329078674316,1.9776105880737305,-416.1834716796875,-136.8255615234375,-34.60693359375
3.2699999,0.19153612852096558,-8.702922821044922,1.987187385559082,-430.7098388671875,-132.7972412109375,-1.312255859375
3.2899999,1.2282254695892334,-7.271190643310547,2.1547815799713135,-486.7095947265625,-68.6187744140625,7.1563720703125
3.3099999,2.073378562927246,-5.609614372253418,1.5729905366897583,-396.9268798828125,76.66015625,-43.7164306640625
3.3299999000000002,2.801215887069702,-4.431667327880859,0.07182604819536209,-246.490478515625,166.32080078125,-100.9979248046875
3.3499999,3.3494882583618164,-4.060565948486328,-1.6184803247451782,-296.600341796875,133.48388671875,-98.5107421875
3.3699999,3.758896589279175,-4.309563159942627,-3.1076738834381104,-306.8084716796875,85.723876953125,-71.7926025390625
3.3899999,4.07014274597168,-4.623203277587891,-3.687070608139038,-249.8931884765625,122.7874755859375,-90.545654296875
3.4099999,3.950432777404785,-4.577713489532471,-3.7158010005950928,-231.3385009765625,138.214111328125,-95.3826904296875
3.4299999,3.6296098232269287,-4.357447147369385,-4.101267337799072,-261.810302734375,98.5107421875,-66.009521484375
3.4499999,3.8810009956359863,-4.481945514678955,-4.972756862640381,-218.1854248046875,70.159912109375,-64.117431640625
3.4699999,4.726154327392578,-5.094861030578613,-5.849034786224365,-172.3480224609375,5.7220458984375,-72.7691650390625
3.4899999,5.954379558563232,-5.834669589996338,-6.615179061889648,-220.4437255859375,-41.07666015625,-71.4111328125
3.5099999,6.964732646942139,-6.19379997253418,-7.108384609222412,-307.281494140625,25.4364013671875,-50.8575439453125
3.5299999,7.122750282287598,-5.75326681137085,-7.448361396789551,-319.183349609375,125.9307861328125,-51.6204833984375
3.5499999,6.7061591148376465,-3.4404678344726562,-8.087613105773926,-282.0892333984375,147.2625732421875,-62.7593994140625
3.5699999,6.404489517211914,-1.5753847360610962,-8.339004516601562,-500,37.04833984375,-34.149169921875
3.5899999,5.602431774139404,0.5482721924781799,-9.035717010498047,-500,211.48681640625,-200.8514404296875
3.6099999,5.9304375648498535,1.5203180313110352,-9.854534149169922,-19.744873046875,290.1611328125,-130.0048828125
3.6299999,5.987898349761963,1.821987509727478,-11.195286750793457,-17.15087890625,159.85107421875,-47.515869140625
3.6499999,6.538564682006836,1.9033904075622559,-12.234370231628418,-329.9407958984375,190.521240234375,-55.2520751953125
3.6699999,7.338228225708008,2.7437551021575928,-12.382811546325684,-289.459228515625,103.973388671875,-45.806884765625
3.6899999,7.8960771560668945,3.8570590019226074,-11.384428977966309,-127.7618408203125,-6.04248046875,-45.989990234375
3.7099999,8.214506149291992,5.272032260894775,-9.548076629638672,-101.104736328125,19.3939208984375,-97.1527099609375
3.7299999,8.334216117858887,6.708553314208984,-8.11634349822998,-82.4432373046875,50.96435546875,-69.549560546875
3.7499999,8.346187591552734,7.726089000701904,-7.029376029968262,-176.116943359375,96.8475341796875,-17.5933837890625
3.7699999,8.274360656738281,8.336610794067383,-6.567295074462891,-327.69775390625,22.3541259765625,-27.5726318359375
3.7899999,8.034940719604492,8.80587387084961,-5.947196960449219,-500,67.657470703125,-102.386474609375
3.8099999,7.82185697555542,9.05247688293457,-5.123591423034668,-235.6109619140625,161.5753173828125,-98.0987548828125
3.8299999000000002,7.618350028991699,9.430760383605957,-4.082113742828369,36.8194580078125,48.5076904296875,-69.793701171875
3.8499999,7.510610580444336,9.931148529052734,-2.935291290283203,6.9427490234375,9.8724365234375,-50.96435546875
3.8699999,7.378929615020752,10.433931350708008,-2.1164743900299072,-13.8397216796875,87.7227783203125,-13.580322265625
3.8899999,7.225700855255127,10.860098838806152,-1.7190368175506592,46.81396484375,144.10400390625,22.369384765625
3.9099999,6.9695210456848145,10.924742698669434,-1.625662922859192,64.27001953125,129.6844482421875,47.882080078125
3.9299999,6.670246124267578,10.668562889099121,-1.6950948238372803,70.8160400390625,96.98486328125,70.9228515625
3.9499999,6.600813865661621,10.20887565612793,-1.577778935432434,75.7598876953125,80.8258056640625,114.9444580078125
3.9699999,6.66785192489624,9.387664794921875,-1.2689268589019775,18.9361572265625,47.088623046875,129.6539306640625
3.9899999,6.933608055114746,8.492233276367188,-0.7134721279144287,-23.92578125,8.97216796875,50.994873046875
4.0099999,7.443572998046875,8.039729118347168,0.2801215946674347,11.9171142578125,-24.139404296875,10.5438232421875
4.029999900000001,7.783549785614014,7.582436561584473,1.0606313943862915,38.238525390625,41.8548583984375,-2.9144287109375
4.0499999,8.157045364379883,7.462726593017578,1.501164436340332,43.39599609375,211.8682861328125,-50.8575439453125
4.069999900000001,8.343792915344238,7.144298076629639,1.3096283674240112,45.928955078125,198.1048583984375,-38.360595703125
4.0899999000000005,8.35097599029541,6.1530985832214355,0.6703764796257019,7.9803466796875,127.716064453125,-22.9949951171875
4.1099999,8.370129585266113,4.941632270812988,-0.014365210197865963,-53.3294677734375,118.5455322265625,16.448974609375
4.1299999000000005,7.927201747894287,4.110844135284424,-0.6200982332229614,-120.1019287109375,167.78564453125,28.961181640625
4.1499999,8.015787124633789,4.05817174911499,-0.26336219906806946,-185.7757568359375,163.8031005859375,132.0037841796875
4.1699999000000005,8.44195556640625,4.572925090789795,0.10295066982507706,-84.930419921875,69.2596435546875,141.4947509765625
4.1899999,9.011775016784668,5.0469770431518555,0.8164227604866028,-58.685302734375,81.4361572265625,57.7239990234375
4.209999900000001,9.818621635437012,5.231330871582031,1.8555063009262085,-41.107177734375,91.6900634765625,94.7113037109375
4.2299999,10.156203269958496,5.109226226806641,2.762908697128296,14.9078369140625,65.12451171875,152.099609375
4.249999900000001,9.959878921508789,4.955997467041016,3.4763808250427246,71.5789794921875,53.314208984375,179.046630859375
4.2699999,9.749189376831055,4.98472785949707,4.343081951141357,67.8863525390625,55.0994873046875,186.3555908203125
4.289999900000001,9.715670585632324,4.9368438720703125,4.309563159942627,122.772216796875,38.1011962890625,224.2431640625
4.3099999,9.923966407775879,4.6734819412231445,4.129997730255127,167.388916015625,-0.1373291015625,263.7939453125
4.329999900000001,10.436325073242188,4.252102375030518,3.6104562282562256,168.670654296875,-49.2706298828125,234.43603515625
4.3499999,10.843339920043945,3.794809579849243,3.179499864578247,161.865234375,-52.2003173828125,162.4755859375
4.369999900000001,11.013327598571777,3.3901896476745605,2.5546131134033203,167.29736328125,-21.392822265625,128.8299560546875
4.3899999,10.898406028747559,3.0765492916107178,2.2601263523101807,47.882080078125,36.9110107421875,125.6256103515625
4.409999900000001,10.429142951965332,2.7700912952423096,2.0470423698425293,-108.551025390625,81.512451171875,82.8094482421875
4.4299999,10.029311180114746,2.609679937362671,2.1978771686553955,-83.953857421875,53.5125732421875,55.389404296875
4.449999900000001,9.658209800720215,2.535459518432617,2.8395233154296875,-55.0689697265625,34.2254638671875,63.140869140625
4.4699999,9.39245319366455,2.5713725090026855,3.8498764038085938,-38.360595703125,3.9520263671875,43.914794921875
4.489999900000001,9.193734169006348,2.652775526046753,4.886565685272217,-48.3551025390625,-20.6451416015625,-8.2550048828125
4.5099999,9.165003776550293,2.6431987285614014,5.6455278396606445,-89.9810791015625,-18.4173583984375,-34.759521484375
4.529999900000001,9.131484985351562,2.432508945465088,6.0621185302734375,-65.673828125,12.664794921875,-41.3055419921875
4.5499999,9.10993766784668,2.049436569213867,6.112396717071533,-20.5078125,53.1158447265625,-65.24658203125
4.569999900000001,8.923190116882324,1.5131354331970215,6.01423454284668,-14.2059326171875,57.7850341796875,-67.5811767578125
4.5899999000000005,8.592789649963379,1.1085153818130493,5.983109951019287,-5.706787109375,48.919677734375,-35.15625
4.609999900000001,8.267178535461426,0.7852981686592102,6.011840343475342,6.6070556640625,64.8040771484375,-25.482177734375
4.6299999000000005,8.094796180725098,0.545877993106842,5.990292549133301,4.8980712890625,74.1119384765625,-34.8968505859375
4.6499999,8.056488990783691,0.33279404044151306,5.832275390625,6.561279296875,70.648193359375,-54.7943115234375
4.6699999000000005,8.003816604614258,0.09576806426048279,5.633556365966797,-1.1749267578125,49.3316650390625,-74.9969482421875
4.6899999,7.843404769897461,-0.1867477297782898,5.377377033233643,-40.71044921875,-1.8768310546875,-67.7642822265625
4.709999900000001,7.465120792388916,-0.4836287498474121,5.236119270324707,-45.2117919921875,-31.6925048828125,-58.1512451171875
4.7299999,7.146692276000977,-0.7565677165985107,5.0685248374938965,-9.09423828125,-33.0047607421875,-56.182861328125
4.749999900000001,7.139509677886963,-0.9074024558067322,4.896142482757568,9.063720703125,-58.0596923828125,-46.905517578125
4.7699999,7.450755596160889,-0.9217676520347595,4.711789131164551,16.6778564453125,-60.48583984375,-47.2564697265625
4.789999900000001,8.02536392211914,-0.8164227604866028,4.584896087646484,2.9296875,-27.0538330078125,-68.4814453125
4.8099999,8.655038833618164,-0.6105214357376099,4.666299343109131,-26.4129638671875,-9.8724365234375,-78.61328125
4.829999900000001,9.222464561462402,-0.42616790533065796,4.817133903503418,-31.2652587890625,-30.2276611328125,-73.3642578125
4.8499999,9.555258750915527,-0.22505496442317963,5.078101634979248,-43.0755615234375,-40.8477783203125,-69.1680908203125
4.869999900000001,9.39245319366455,-0.2513911724090576,5.128379821777344,-48.4466552734375,-38.26904296875,-81.878662109375
4.8899999,9.366117477416992,-0.11013327538967133,5.458779811859131,-33.966064453125,-13.9923095703125,-54.473876953125
4.909999900000001,8.820239067077637,-0.019153613597154617,5.485116004943848,-127.9449462890625,177.06298828125,-34.027099609375
4.9299999,8.489839553833008,0.2059013396501541,5.7341132164001465,-210.9375,102.4017333984375,-93.32275390625
4.949999900000001,8.094796180725098,0.5171475410461426,5.710171222686768,-100.5401611328125,-30.242919921875,-81.0394287109375
4.9699999,7.783549785614014,0.8690952062606812,5.623979568481445,-84.47265625,-42.449951171875,-71.6400146484375
4.989999900000001,7.2137298583984375,1.0079588890075684,5.193023681640625,-257.4615478515625,108.001708984375,-97.930908203125
5.0099999,6.617573261260986,1.0582371950149536,4.76924991607666,-216.5374755859375,107.025146484375,-77.5909423828125
5.029999900000001,6.102819919586182,0.8547300100326538,4.153939723968506,-50.6439208984375,-9.9334716796875,-70.648193359375
5.0499999,5.872976779937744,0.3926490843296051,3.3446998596191406,-81.1920166015625,-47.5311279296875,-82.305908203125
5.069999900000001,5.920860767364502,-0.040701430290937424,2.851494312286377,-106.475830078125,-69.1070556640625,-80.8868408203125
5.0899999000000005,6.45476770401001,-0.42377370595932007,2.604891538619995,-54.779052734375,-106.8572998046875,-93.56689453125
5.109999900000001,7.1706342697143555,-0.706289529800415,2.4468741416931152,-44.0673828125,-38.1011962890625,-104.3548583984375
5.1299999000000005,7.453149795532227,-1.0414776802062988,2.3271639347076416,-90.850830078125,30.70068359375,-126.28173828125
5.1499999,6.983886241912842,-1.4724340438842773,2.0183119773864746,-300.445556640625,60.333251953125,-129.8065185546875
5.1699999000000005,5.446808815002441,-1.5897499322891235,1.9033904075622559,-484.9700927734375,150.848388671875,-130.2642822265625
5.1899999,3.3901896476745605,-1.3455413579940796,2.6144683361053467,-376.4190673828125,215.4388427734375,-126.8463134765625
5.209999900000001,1.5155296325683594,-0.5363011956214905,4.261679172515869,-10.101318359375,118.3624267578125,-59.8907470703125
5.2299999,0.3064578175544739,0.2992752194404602,6.088454723358154,-1.861572265625,219.329833984375,-99.42626953125
5.249999900000001,-0.5578489899635315,0.9313444495201111,7.575253963470459,-154.9072265625,400.32958984375,-111.3739013671875
5.2699999,-1.3623007535934448,1.0223240852355957,8.161833763122559,-193.939208984375,438.3392333984375,-72.6470947265625
5.289999900000001,-2.006340980529785,0.6943184733390808,8.020575523376465,-90.9576416015625,372.039794921875,-67.0623779296875
5.3099999,-2.274491548538208,0.20111294090747833,7.82185697555542,10.162353515625,266.8304443359375,-121.917724609375
5.329999900000001,-2.027888774871826,-0.42377370595932007,7.869740962982178,51.33056640625,281.43310546875,-166.6259765625
5.3499999,-1.6543933153152466,-0.6775590777397156,7.893682956695557,25.1312255859375,385.5438232421875,-87.493896484375
5.369999900000001,-1.8387469053268433,-0.8044517636299133,8.020575523376465,-103.5003662109375,409.1033935546875,-1.4801025390625
5.3899999,-2.7246015071868896,-0.6799532771110535,8.037335395812988,-82.061767578125,360.3363037109375,-86.4105224609375
5.409999900000001,-3.9815573692321777,-0.6967126727104187,8.118738174438477,-16.0064697265625,222.9156494140625,-153.228759765625
5.4299999,-5.219359874725342,-1.0007762908935547,8.523358345031738,-86.2274169921875,123.3673095703125,-126.251220703125
5.449999900000001,-5.681440830230713,-1.3934253454208374,8.650250434875488,-52.2308349609375,121.917724609375,-93.7347412109375
5.4699999,-5.772420406341553,-2.013523578643799,8.75080680847168,-27.6336669921875,190.5670166015625,-47.027587890625
5.489999900000001,-6.160281181335449,-2.5043349266052246,8.59997272491455,20.3857421875,139.923095703125,-49.6063232421875
5.5099999,-7.074865818023682,-2.829946517944336,8.489839553833008,-9.796142578125,59.600830078125,-101.959228515625
5.529999900000001,-8.413225173950195,-3.0526070594787598,8.60236644744873,-79.193115234375,100.3570556640625,-132.8277587890625
5.5499999,-9.557653427124023,-3.1459810733795166,8.980650901794434,-138.0615234375,197.1282958984375,-115.41748046875
5.569999900000001,-9.643844604492188,-3.246537446975708,9.095572471618652,-141.754150390625,210.1593017578125,-78.0792236328125
5.5899999000000005,-8.645462036132812,-3.4332852363586426,9.165003776550293,-152.6947021484375,192.93212890625,-38.818359375
5.609999900000001,-7.2783732414245605,-3.7253777980804443,8.719682693481445,-82.2296142578125,139.8773193359375,2.6092529296875
5.6299999000000005,-6.339846134185791,-4.261679172515869,8.010998725891113,-27.3284912109375,86.85302734375,14.9993896484375
5.6499999,-6.0190229415893555,-4.608838081359863,7.048529624938965,-35.736083984375,51.4678955078125,-22.4456787109375
5.6699999000000005,-6.3063273429870605,-4.8482584953308105,6.110002517700195,-31.4483642578125,57.7545166015625,35.4461669921875
5.6899999,-7.029376029968262,-4.697423934936523,5.348646640777588,73.9898681640625,113.8763427734375,133.6822509765625
5.709999900000001,-7.903259754180908,-4.132391929626465,4.697423934936523,215.8355712890625,161.468505859375,179.74853515625
5.7299999,-8.662221908569336,-3.3446998596191406,3.885789394378662,340.75927734375,163.63525390625,172.760009765625
5.749999900000001,-9.500192642211914,-2.6431987285614014,2.853888511657715,290.374755859375,152.618408203125,191.650390625
5.7699999,-10.323798179626465,-2.1045033931732178,1.7764976024627686,102.996826171875,152.3590087890625,133.2244873046875
5.789999900000001,-10.92953109741211,-1.845929503440857,1.170764684677124,-68.511962890625,238.800048828125,-0.213623046875
5.8099999,-11.51611042022705,-1.821987509727478,1.3838485479354858,-44.9371337890625,241.3330078125,-12.3748779296875
5.829999900000001,-11.552022933959961,-1.7956513166427612,2.3511061668395996,44.9066162109375,205.7952880859375,20.7672119140625
5.8499999,-11.176133155822754,-1.7405846118927002,3.7660791873931885,58.4716796875,90.4693603515625,16.571044921875
5.869999900000001,-10.536881446838379,-1.5658079385757446,5.1331682205200195,26.7181396484375,-49.163818359375,17.8680419921875
5.8899999,-10.062829971313477,-1.235408067703247,5.853823184967041,164.97802734375,-161.376953125,23.1475830078125
5.909999900000001,-10.180145263671875,-0.9074024558067322,5.719748020172119,254.3487548828125,-234.893798828125,23.0560302734375
5.9299999,-11.073183059692383,-0.7589619159698486,4.537012100219727,217.5750732421875,-257.2784423828125,23.3001708984375
5.949999900000001,-11.8225679397583,-0.6224924325942993,2.7078421115875244,148.406982421875,-139.7705078125,0.67138671875
5.9699999,-12.105083465576172,-0.5961562395095825,0.7613561153411865,62.530517578125,32.65380859375,-17.181396484375
5.989999900000001,-12.555193901062012,0.8882488012313843,-0.7852981686592102,60.272216796875,-71.7315673828125,-32.77587890625
6.0099999,-11.939884185791016,1.843535304069519,-1.5634137392044067,-38.421630859375,-101.3336181640625,89.6148681640625
6.029999900000001,-12.035652160644531,3.509899616241455,-1.4532804489135742,-197.1435546875,-98.7091064453125,219.9249267578125
6.0499999,-11.508927345275879,3.758896589279175,-0.646434485912323,-288.726806640625,-100.006103515625,179.962158203125
6.069999900000001,-10.572794914245605,2.8826189041137695,0.9576807022094727,-339.111328125,-81.3446044921875,102.0355224609375
6.0899999000000005,-9.524134635925293,1.6639702320098877,3.1699230670928955,-320.831298828125,-42.0989990234375,-0.9918212890625
6.109999900000001,-8.310274124145508,0.5793967843055725,5.432443618774414,-220.123291015625,-120.361328125,-50.23193359375
6.1299999000000005,-7.603984832763672,-0.19871874153614044,7.127538681030273,-96.8017578125,-174.37744140625,-63.8427734375
6.149999900000001,-7.331045627593994,-0.4908113479614258,7.7213006019592285,-54.901123046875,-165.4205322265625,-82.7789306640625
6.1699999000000005,-7.601590633392334,-0.7924807667732239,7.601590633392334,-187.9119873046875,-95.1995849609375,-88.9129638671875
6.1899999,-7.872135162353516,-1.070208191871643,7.237671852111816,-321.4569091796875,-85.1593017578125,-45.135498046875
6.209999900000001,-8.377311706542969,-1.3407529592514038,7.726089000701904,-273.3154296875,-41.8701171875,-21.6064453125
6.2299999,-8.767566680908203,-1.6855180263519287,9.17936897277832,-53.3599853515625,-11.7340087890625,-34.2559814453125
6.249999900000001,-9.181763648986816,-1.6208745241165161,10.84094524383545,210.6475830078125,-89.5843505859375,-100.6622314453125
6.2699999,-9.519346237182617,-1.2330138683319092,11.796232223510742,383.60595703125,-144.3634033203125,-60.9588623046875
6.289999900000001,-9.684545516967773,-0.6368576288223267,11.994950294494629,128.84521484375,-228.02734375,73.455810546875
6.3099999,-9.418789863586426,-0.0933738648891449,10.769119262695312,90.789794921875,-246.7498779296875,91.888427734375
6.329999900000001,-8.772355079650879,0.10773907601833344,9.299078941345215,62.2406005859375,-223.388671875,45.2728271484375
6.3499999,-7.838616371154785,0.043095629662275314,7.797914981842041,-39.4134521484375,-226.104736328125,18.707275390625
6.369999900000001,-6.806715488433838,0.040701430290937424,6.619967937469482,-6.7138671875,-199.951171875,24.71923828125
6.3899999,-5.767632007598877,0.19153612852096558,6.141127586364746,-0.396728515625,-153.9459228515625,44.677734375
6.409999900000001,-4.702212333679199,0.3998316824436188,6.0190229415893555,-6.4239501953125,-154.205322265625,53.2684326171875
6.4299999,-3.6296098232269287,0.3998316824436188,6.232107162475586,37.29248046875,-117.2332763671875,71.6400146484375
6.449999900000001,-2.8419175148010254,0.8786720037460327,6.988674640655518,60.882568359375,-44.9676513671875,82.275390625
6.4699999,-2.2242133617401123,1.3263877630233765,8.367734909057617,-77.5146484375,-128.692626953125,152.587890625
6.489999900000001,-1.886630892753601,1.9393033981323242,9.327810287475586,17.4102783203125,-266.357421875,260.5438232421875
6.5099999,-1.3192051649093628,2.719813108444214,10.395624160766602,108.0322265625,-170.379638671875,266.754150390625
6.529999900000001,-0.9241618514060974,3.069366693496704,10.232817649841309,16.90673828125,-128.4332275390625,179.38232421875
6.5499999,-0.22744916379451752,3.00711727142334,9.289502143859863,35.5224609375,-35.94970703125,203.887939453125
6.569999900000001,0.014365210197865963,2.3774423599243164,8.398859977722168,-40.8172607421875,111.846923828125,285.3546142578125
6.5899999000000005,0.5195417404174805,1.3215993642807007,8.109161376953125,-366.546630859375,75.775146484375,188.1561279296875
6.609999900000001,0.4692635238170624,0.22266076505184174,8.796297073364258,-463.226318359375,-39.97802734375,66.4825439453125
6.6299999000000005,0.6200982332229614,-0.4812345504760742,10.311826705932617,-207.58056640625,-12.5732421875,87.2344970703125
6.649999900000001,0.3495534360408783,-0.5363011956214905,11.81299114227295,-18.8751220703125,-33.02001953125,118.560791015625
6.6699999000000005,0.08379705995321274,-0.48602294921875,12.842497825622559,38.2080078125,-59.173583984375,121.2615966796875
6.6899999,-0.33997663855552673,-0.45250412821769714,13.096282958984375,49.6673583984375,-62.3016357421875,73.05908203125
6.709999900000001,-0.5171475410461426,-0.6272808313369751,12.45703125,66.22314453125,-134.857177734375,23.92578125
6.7299999,-0.49559974670410156,-0.8858546018600464,11.681309700012207,64.361572265625,-150.665283203125,7.0037841796875
6.749999900000001,-0.27054479718208313,-0.7924807667732239,10.709263801574707,49.9114990234375,-120.941162109375,-31.5704345703125
6.7699999,0.038307227194309235,-0.31364041566848755,9.938331604003906,98.5870361328125,-109.771728515625,-24.2919921875
6.789999900000001,0.40940847992897034,0.608127236366272,9.23682975769043,176.605224609375,-107.72705078125,32.0281982421875
6.8099999,0.5937620401382446,1.7262194156646729,8.348581314086914,201.3092041015625,-74.2340087890625,67.81005859375
6.829999900000001,0.8690952062606812,3.028665065765381,7.283161640167236,12.2833251953125,-38.8336181640625,74.8138427734375
6.8499999,0.9481038451194763,4.010287761688232,6.75883150100708,-198.8372802734375,21.209716796875,122.650146484375
6.869999900000001,1.158793568611145,4.438849925994873,6.2632317543029785,-128.7689208984375,-12.14599609375,186.065673828125
6.8899999,1.1492167711257935,4.244919776916504,6.868964672088623,-88.1195068359375,-14.4805908203125,176.1627197265625
6.909999900000001,1.1348515748977661,3.1675288677215576,7.553706169128418,-65.887451171875,-5.126953125,145.9808349609375
6.9299999,1.0678139925003052,1.941697597503662,8.322244644165039,-40.863037109375,0.67138671875,106.689453125
6.949999900000001,1.0271124839782715,0.7709329724311829,9.069235801696777,-82.5347900390625,27.1453857421875,101.7608642578125
6.9699999,1.015141487121582,-0.24899697303771973,9.445125579833984,-119.8272705078125,8.636474609375,148.25439453125
6.989999900000001,1.0606313943862915,-0.7206547260284424,9.57441234588623,-82.3516845703125,-4.5928955078125,157.501220703125
7.0099999,1.0342950820922852,-1.1492167711257935,9.299078941345215,-80.6884765625,11.8255615234375,148.0560302734375
7.029999900000001,0.9648633003234863,-1.5107412338256836,8.832210540771484,-85.63232421875,42.6177978515625,147.9339599609375
7.0499999,0.8188169598579407,-1.900996208190918,8.027758598327637,-141.3726806640625,44.4488525390625,150.87890625
7.069999900000001,0.4692635238170624,-2.360682964324951,7.888894557952881,-225.5096435546875,46.32568359375,123.016357421875
7.0899999000000005,-0.033518824726343155,-2.832340717315674,7.8529815673828125,-114.227294921875,2.5634765625,126.5411376953125
7.109999900000001,-0.524330198764801,-3.1938650608062744,8.29830265045166,-48.4619140625,-54.5501708984375,174.6673583984375
7.1299999000000005,-1.3431471586227417,-3.162740468978882,8.762778282165527,-39.9932861328125,-48.15673828125,175.6134033203125
7.149999900000001,-1.941697597503662,-3.0597896575927734,8.916007041931152,-14.129638671875,-6.6680908203125,202.972412109375
7.1699999000000005,-2.255337953567505,-3.332728862762451,8.671798706054688,-39.398193359375,14.7705078125,251.0528564453125
7.1899999,-2.557007312774658,-3.3039982318878174,8.59997272491455,-68.3135986328125,-16.8304443359375,215.2099609375
7.209999900000001,-2.6455929279327393,-3.49314022064209,7.872135162353516,5.4168701171875,-81.1004638671875,179.5654296875
7.2299999,-2.9257144927978516,-3.4308910369873047,7.436390399932861,-15.960693359375,-76.4007568359375,183.6700439453125
7.249999900000001,-3.426102638244629,-3.272873640060425,6.756437301635742,-23.162841796875,-61.248779296875,190.338134765625
7.2699999,-3.912125587463379,-3.5625722408294678,6.31829833984375,42.6177978515625,-69.5648193359375,158.0657958984375
7.289999900000001,-4.278438568115234,-4.098873138427734,6.282385349273682,96.405029296875,-68.54248046875,104.4158935546875
7.3099999,-4.592078685760498,-4.477157115936279,6.086060523986816,102.11181640625,-76.0955810546875,60.211181640625
7.329999900000001,-4.750096321105957,-4.577713489532471,6.071695327758789,31.4178466796875,-31.6925048828125,78.0181884765625
7.3499999,-4.922478675842285,-4.285621166229248,6.035782337188721,17.1661376953125,4.5013427734375,80.38330078125
7.369999900000001,-5.135562419891357,-3.821146011352539,5.995080947875977,99.9298095703125,-25.08544921875,15.7928466796875
7.3899999,-5.276820659637451,-3.7660791873931885,6.279991149902344,106.8572998046875,-27.8167724609375,12.3291015625
7.409999900000001,-5.403713226318359,-3.7612907886505127,6.708553314208984,99.151611328125,-11.77978515625,37.9638671875
7.4299999,-5.51624059677124,-3.9264907836914062,7.168240070343018,119.3084716796875,-21.4385986328125,57.9071044921875
7.449999900000001,-5.623979568481445,-4.0964789390563965,7.687781810760498,146.1029052734375,-23.681640625,57.5408935546875
7.4699999,-5.635950565338135,-4.106055736541748,8.370129585266113,135.223388671875,2.9144287109375,52.276611328125
7.489999900000001,-5.556941986083984,-3.9600095748901367,9.114726066589355,90.362548828125,26.0009765625,49.2095947265625
7.5099999,-5.240907669067383,-3.4404678344726562,9.988609313964844,89.7064208984375,11.3067626953125,45.135498046875
7.529999900000001,-4.975151062011719,-2.6647465229034424,10.575188636779785,157.2723388671875,-23.345947265625,32.5775146484375
7.5499999,-4.613626480102539,-1.7717092037200928,11.228805541992188,227.1881103515625,23.406982421875,-33.87451171875
7.569999900000001,-4.357447147369385,-0.8595184087753296,11.860875129699707,139.58740234375,71.59423828125,-37.41455078125
7.5899999000000005,-4.170699596405029,-0.028730420395731926,12.483367919921875,54.8248291015625,47.8363037109375,1.739501953125
7.609999900000001,-3.8738183975219727,0.751779317855835,13.263877868652344,61.4013671875,8.819580078125,18.2342529296875
7.6299999000000005,-3.6798880100250244,1.5634137392044067,13.558363914489746,65.0482177734375,-15.7623291015625,40.8782958984375
7.649999900000001,-3.5889084339141846,2.3104045391082764,13.175292015075684,44.7540283203125,-17.974853515625,67.474365234375
7.6699999000000005,-3.576937437057495,2.6647465229034424,12.282255172729492,17.0745849609375,-23.0560302734375,95.64208984375
7.6899999,-3.6727054119110107,2.6001031398773193,11.08754825592041,21.759033203125,-47.7142333984375,106.0943603515625
7.709999900000001,-3.7900211811065674,2.097320795059204,9.734824180603027,26.8096923828125,-64.8651123046875,94.9554443359375
7.7299999,-3.993528366088867,1.455674648284912,8.307879447937012,14.70947265625,-65.00244140625,88.775634765625
7.749999900000001,-4.2544965744018555,0.8954314589500427,6.98628044128418,-9.9029541015625,-54.7943115234375,104.79736328125
7.7699999,-4.592078685760498,0.5722141861915588,5.78678560256958,5.584716796875,-55.2215576171875,105.1483154296875
7.789999900000001,-4.955997467041016,0.5434837937355042,4.9152960777282715,26.336669921875,-68.7713623046875,76.47705078125
7.8099999,-5.2696380615234375,0.7876923680305481,4.551377296447754,-25.7110595703125,-72.3419189453125,74.64599609375
7.829999900000001,-5.4659624099731445,1.3479355573654175,4.6255974769592285,-66.986083984375,-47.3480224609375,90.7440185546875
7.8499999,-5.686229228973389,1.8770540952682495,4.991910457611084,-26.7333984375,-15.7470703125,46.8902587890625
7.869999900000001,-5.853823184967041,2.300827741622925,5.537788391113281,-3.96728515625,-17.3187255859375,-6.134033203125
7.8899999,-6.155492782592773,2.315192937850952,6.00226354598999,-41.1834716796875,-37.0330810546875,16.0369873046875
7.909999900000001,-6.552929878234863,1.9345149993896484,6.370970726013184,-50.994873046875,-28.6712646484375,40.557861328125
7.9299999,-6.835445880889893,1.1971008777618408,7.010222434997559,-34.088134765625,-3.662109375,20.7977294921875
7.949999900000001,-6.766014099121094,0.5195417404174805,8.04930591583252,-24.6734619140625,-14.70947265625,-26.8402099609375
7.9699999,-6.476315498352051,-0.06224924325942993,9.251194953918457,-26.3671875,-35.308837890625,-46.32568359375
7.989999900000001,-5.851428985595703,-0.27054479718208313,10.457873344421387,-45.3033447265625,-25.6805419921875,-27.16064453125
8.0099999,-5.166687488555908,-0.12210428714752197,11.377246856689453,-80.01708984375,30.70068359375,22.0794677734375
8.0299999,-4.639962673187256,0.15801730751991272,11.769895553588867,-110.076904296875,92.0562744140625,32.5164794921875
8.049999900000001,-4.137180328369141,0.40222588181495667,12.133813858032227,-119.93408203125,205.01708984375,-73.66943359375
8.069999900000001,-3.9624037742614746,0.7565677165985107,12.023680686950684,-73.42529296875,140.1824951171875,-79.1168212890625
8.0899999,-3.957615375518799,0.9720458984375,11.724405288696289,-7.2021484375,27.3895263671875,-19.1802978515625
8.1099999,-3.7397429943084717,1.1252747774124146,12.926295280456543,-3.3721923828125,13.1988525390625,41.0614013671875
8.129999900000001,-3.157952070236206,0.8307880163192749,13.366827964782715,-99.6856689453125,-339.8895263671875,68.084716796875
8.149999900000001,-1.8363527059555054,0.08379705995321274,15.195998191833496,-234.7564697265625,-227.23388671875,-1.708984375
8.1699999,-0.6033388376235962,-0.9026140570640564,15.49766731262207,-95.489501953125,-55.419921875,-24.8565673828125
8.1899999,0.8068459630012512,-1.6065093278884888,15.107412338256836,-18.61572265625,-16.90673828125,-18.8446044921875
8.2099999,1.192312479019165,-1.98958158493042,13.893552780151367,88.7298583984375,37.109375,10.5133056640625
8.229999900000001,0.7996633648872375,-2.499546527862549,13.405135154724121,266.0064697265625,-7.171630859375,8.148193359375
8.2499999,0.28730419278144836,-2.5019407272338867,12.70602798461914,499.9847412109375,-37.9486083984375,9.1094970703125
8.2699999,-0.524330198764801,-2.736572504043579,12.406753540039062,499.9847412109375,-2.5634765625,39.642333984375
8.2899999,-0.9840168952941895,-2.145204782485962,11.319786071777344,499.9847412109375,-29.0374755859375,40.191650390625
8.309999900000001,-1.1540051698684692,-0.4357447028160095,9.514557838439941,499.9847412109375,-91.3543701171875,78.704833984375
8.3299999,-0.8619126081466675,1.6065093278884888,7.292738437652588,462.8448486328125,-39.55078125,50.6744384765625
8.3499999,-0.45010992884635925,4.2090067863464355,5.07570743560791,357.8643798828125,-31.5704345703125,-16.754150390625
8.3699999,-0.06224924325942993,6.57926607131958,3.179499864578247,238.22021484375,-41.3818359375,-37.7349853515625
8.389999900000001,0.47165772318840027,8.372523307800293,1.7334020137786865,138.5955810546875,-9.735107421875,4.5928955078125
8.4099999,0.524330198764801,9.658209800720215,0.8978256583213806,36.9415283203125,-2.166748046875,6.927490234375
8.4299999,0.5554547905921936,10.24000072479248,0.790086567401886,-27.7557373046875,5.3558349609375,-6.7291259765625
8.4499999,0.5171475410461426,10.271124839782715,1.2545616626739502,-29.5562744140625,5.5084228515625,-2.2430419921875
8.469999900000001,0.43095630407333374,9.983820915222168,2.056619167327881,2.5177001953125,0.1678466796875,-2.86865234375
8.4899999,0.3663128614425659,9.576807022094727,2.873042106628418,21.54541015625,-1.983642578125,4.1351318359375
8.5099999,0.29209262132644653,9.241618156433105,3.4165258407592773,16.9219970703125,-0.4425048828125,0.0457763671875
8.5299999,0.2801215946674347,9.009381294250488,3.6583402156829834,-0.213623046875,0.1068115234375,-0.274658203125
8.549999900000001,0.2753331959247589,8.911218643188477,3.665522813796997,-2.685546875,0.244140625,-0.67138671875
8.569999900000001,0.29209262132644653,8.899248123168945,3.5721490383148193,7.9193115234375,-0.2899169921875,0.732421875
8.5899999,0.3016694188117981,8.939949035644531,3.44765043258667,13.3819580078125,-0.0152587890625,0.48828125
8.6099999,0.3232172429561615,9.004592895507812,3.2992098331451416,12.20703125,-0.0457763671875,0.3204345703125
8.629999900000001,0.33518823981285095,9.071630477905273,3.1651346683502197,4.5318603515625,-0.030517578125,0.1373291015625
8.649999900000001,0.3423708379268646,9.114726066589355,3.0861260890960693,-2.227783203125,0.3509521484375,-0.7781982421875
8.6699999,0.3423708379268646,9.138668060302734,3.0621838569641113,4.0435791015625,0.1220703125,-0.274658203125
8.6899999,0.33758243918418884,9.141061782836914,3.090914487838745,13.6871337890625,-0.091552734375,0.67138671875
8.709999900000001,0.33518823981285095,9.14345645904541,3.1052796840667725,17.3797607421875,-0.0457763671875,0.701904296875
8.729999900000001,0.33997663855552673,9.162610054016113,3.028665065765381,5.645751953125,0.1678466796875,-0.1068115234375
8.7499999,0.3423708379268646,9.172186851501465,2.980781078338623,5.6915283203125,0.030517578125,0.030517578125
8.7699999,0.33758243918418884,9.17936897277832,2.959233283996582,12.054443359375,-0.2899169921875,0.5340576171875
8.7899999,0.33518823981285095,9.17936897277832,2.956839084625244,19.500732421875,-0.457763671875,1.1749267578125
8.809999900000001,0.33518823981285095,9.188945770263672,2.935291290283203,24.9481201171875,-0.885009765625,1.434326171875
8.8299999,0.3423708379268646,9.208099365234375,2.8586769104003906,24.7802734375,-1.0833740234375,1.46484375
8.8499999,0.3519476354122162,9.23682975769043,2.741360902786255,15.2740478515625,-0.1373291015625,0.54931640625
8.8699999,0.36152446269989014,9.265560150146484,2.6216509342193604,3.96728515625,0.1373291015625,-0.152587890625
8.889999900000001,0.363918662071228,9.284713745117188,2.5306711196899414,2.777099609375,0.0762939453125,-0.0457763671875
8.9099999,0.36152446269989014,9.296685218811035,2.4899697303771973,6.65283203125,-0.0152587890625,0.1678466796875
8.9299999,0.36152446269989014,9.301473617553711,2.4803929328918457,5.4931640625,-0.06103515625,0.1678466796875
8.9499999,0.36152446269989014,9.301473617553711,2.4851813316345215,0.9002685546875,0.0152587890625,-0.1220703125
8.969999900000001,0.363918662071228,9.30386734008789,2.4851813316345215,-0.4119873046875,0.091552734375,-0.2899169921875
8.9899999,0.363918662071228,9.30386734008789,2.492363929748535,0.7171630859375,0.091552734375,-0.1220703125
9.0099999,0.363918662071228,9.301473617553711,2.5067291259765625,0.030517578125,0.091552734375,-0.152587890625
9.0299999,0.363918662071228,9.299078941345215,2.5234885215759277,-0.1068115234375,0.1220703125,-0.1678466796875
9.049999900000001,0.35913026332855225,9.299078941345215,2.5330653190612793,0.823974609375,0.091552734375,-0.1373291015625
9.069999900000001,0.36152446269989014,9.299078941345215,2.537853717803955,0.732421875,0.030517578125,-0.1373291015625
9.0899999,0.35913026332855225,9.30386734008789,2.535459518432617,0.457763671875,0.1373291015625,-0.1220703125
9.1099999,0.36152446269989014,9.306262016296387,2.5282769203186035,0.823974609375,0.1983642578125,-0.1220703125
9.129999900000001,0.36152446269989014,9.306262016296387,2.5234885215759277,1.251220703125,0.1220703125,-0.18310546875
9.149999900000001,0.36152446269989014,9.30386734008789,2.52109432220459,1.40380859375,0.1678466796875,-0.3662109375
9.1699999,0.35913026332855225,9.301473617553711,2.52109432220459,1.922607421875,0.0762939453125,-0.244140625
9.1899999,0.35913026332855225,9.301473617553711,2.516305923461914,2.1820068359375,-0.030517578125,-0.0152587890625
9.209999900000001,0.35913026332855225,9.30386734008789,2.5067291259765625,1.861572265625,0.0152587890625,0.0457763671875
9.229999900000001,0.36152446269989014,9.311050415039062,2.494758129119873,1.220703125,0.06103515625,-0.0457763671875
9.2499999,0.363918662071228,9.313444137573242,2.4851813316345215,0.885009765625,0.1220703125,-0.18310546875
9.2699999,0.363918662071228,9.315838813781738,2.477998733520508,1.40380859375,0.0762939453125,-0.1678466796875
9.2899999,0.36152446269989014,9.315838813781738,2.47560453414917,1.434326171875,0.1068115234375,-0.0762939453125
9.309999900000001,0.36152446269989014,9.313444137573242,2.473210334777832,0.946044921875,0.091552734375,-0.0762939453125
9.3299999,0.36152446269989014,9.315838813781738,2.4684219360351562,0.8697509765625,0.1373291015625,-0.1068115234375
9.3499999,0.3663128614425659,9.315838813781738,2.4636335372924805,0.4119873046875,0.091552734375,-0.18310546875
9.3699999,0.3663128614425659,9.318233489990234,2.4612393379211426,-0.06103515625,0.152587890625,-0.3204345703125
9.389999900000001,0.3663128614425659,9.320627212524414,2.4612393379211426,0,0.1373291015625,-0.1678466796875
9.4099999,0.363918662071228,9.320627212524414,2.4636335372924805,0.06103515625,0.1373291015625,-0.1068115234375
9.4299999,0.363918662071228,9.320627212524414,2.4636335372924805,0.2593994140625,0.1373291015625,-0.1678466796875
9.4499999,0.36152446269989014,9.32302188873291,2.4660277366638184,0.2288818359375,0.1220703125,-0.2899169921875
9.469999900000001,0.363918662071228,9.32302188873291,2.4612393379211426,0.152587890625,0.1068115234375,-0.30517578125
9.4899999,0.36152446269989014,9.32541561126709,2.4588451385498047,-0.396728515625,0.1678466796875,-0.274658203125
9.5099999,0.363918662071228,9.32302188873291,2.454056739807129,-0.30517578125,0.091552734375,-0.1220703125
9.5299999,0.363918662071228,9.32302188873291,2.454056739807129,0.244140625,0.0762939453125,-0.091552734375
9.549999900000001,0.3663128614425659,9.320627212524414,2.454056739807129,0.5035400390625,0.030517578125,-0.1220703125
9.569999900000001,0.3663128614425659,9.32302188873291,2.454056739807129,0.3662109375,0.152587890625,-0.1678466796875
9.5899999,0.3687070608139038,9.32302188873291,2.454056739807129,-0.3509521484375,0.091552734375,-0.1678466796875
9.6099999,0.3687070608139038,9.32541561126709,2.454056739807129,-0.152587890625,0.06103515625,-0.1373291015625
9.629999900000001,0.3663128614425659,9.32541561126709,2.456450939178467,-0.06103515625,0.091552734375,-0.0762939453125
9.649999900000001,0.363918662071228,9.32541561126709,2.4588451385498047,0.244140625,0.091552734375,-0.1220703125
9.6699999,0.363918662071228,9.32541561126709,2.4612393379211426,0.4425048828125,0.06103515625,-0.1220703125
9.6899999,0.363918662071228,9.32541561126709,2.4612393379211426,0.30517578125,0.0457763671875,-0.1678466796875
9.709999900000001,0.3663128614425659,9.32541561126709,2.4588451385498047,0.4119873046875,0.1220703125,-0.1373291015625
9.729999900000001,0.3687070608139038,9.327810287475586,2.454056739807129,0.0762939453125,0.1983642578125,-0.1068115234375
9.7499999,0.3687070608139038,9.327810287475586,2.449268341064453,0.06103515625,0.1373291015625,-0.1220703125
9.7699999,0.3711012601852417,9.32541561126709,2.4444799423217773,0.3814697265625,0.152587890625,-0.152587890625
9.7899999,0.3687070608139038,9.32541561126709,2.4396915435791016,0.152587890625,0.06103515625,-0.18310546875
9.809999900000001,0.3687070608139038,9.32541561126709,2.4372973442077637,0.0457763671875,0.0762939453125,-0.1983642578125
9.8299999,0.35673606395721436,9.320627212524414,2.4396915435791016,-0.152587890625,0.1220703125,-0.1220703125
9.8499999,0.6129156351089478,9.495404243469238,2.7246015071868896,-6.5155029296875,-28.7628173828125,19.10400390625
9.8699999,1.0199298858642578,9.23682975769043,2.8203697204589844,13.1988525390625,-166.2750244140625,68.4356689453125
9.889999900000001,1.2856862545013428,9.260771751403809,2.7892448902130127,109.4512939453125,-194.8089599609375,-5.5694580078125
9.9099999,1.4700398445129395,9.215282440185547,2.5234885215759277,-44.525146484375,-140.106201171875,-87.0208740234375
9.9299999,1.3766659498214722,9.131484985351562,1.8195933103561401,9.613037109375,-78.6895751953125,-33.477783203125
9.9499999,0.8930372595787048,9.390059471130371,1.3000515699386597,23.1170654296875,-62.1337890625,0.7476806640625
9.969999900000001,0.5578489899635315,9.476250648498535,1.0965443849563599,-53.2989501953125,-30.3955078125,1.46484375
9.9899999,0.2944868206977844,9.497797966003418,1.2545616626739502,-41.259765625,-41.656494140625,-3.7994384765625
10.0099999,0.019153613597154617,9.459490776062012,1.8195933103561401,-13.1683349609375,-37.7044677734375,-11.383056640625
10.0299999,0.42377370595932007,9.430760383605957,2.4660277366638184,3.0517578125,-17.08984375,1.007080078125
10.049999900000001,0.6607996821403503,9.32541561126709,2.760514497756958,124.664306640625,-11.474609375,19.34814453125
10.069999900000001,1.0031704902648926,9.35893440246582,2.717418909072876,108.489990234375,5.1422119140625,-0.91552734375
10.0899999,1.3311761617660522,9.373299598693848,2.1356279850006104,12.5579833984375,-9.002685546875,3.6163330078125
10.1099999,0.9840168952941895,9.478644371032715,1.2425906658172607,23.773193359375,-41.4581298828125,0.7781982421875
10.129999900000001,0.5722141861915588,9.476250648498535,0.8092401623725891,-49.4232177734375,-69.5037841796875,-10.0860595703125
10.149999900000001,-0.016759412363171577,9.674968719482422,1.2497732639312744,-14.312744140625,-21.7132568359375,-17.8680419921875
10.1699999,-0.6153098344802856,9.521739959716797,1.3503297567367554,499.9847412109375,70.4193115234375,-78.216552734375
10.1899999,-0.9193734526634216,9.986215591430664,1.659181833267212,499.9847412109375,-12.5885009765625,-182.06787109375
10.209999900000001,-1.237802267074585,10.716446876525879,0.6009446382522583,298.248291015625,-137.9241943359375,-217.10205078125
10.229999900000001,-1.7764976024627686,12.20803451538086,-1.8746598958969116,422.4853515625,-174.0264892578125,-133.026123046875
10.2499999,-2.4875755310058594,13.800178527832031,-5.073313236236572,358.21533203125,-118.377685546875,17.9443359375
10.2699999,-3.1962592601776123,15.205574989318848,-8.216899871826172,229.644775390625,48.126220703125,76.385498046875
10.2899999,-3.7445313930511475,15.861586570739746,-10.287884712219238,135.6201171875,140.3961181640625,75.13427734375
10.309999900000001,-3.7708675861358643,15.7107515335083,-10.682928085327148,99.6246337890625,88.2415771484375,99.7772216796875
10.3299999,-3.4165258407592773,15.047557830810547,-9.742006301879883,81.634521484375,-26.30615234375,131.9427490234375
10.3499999,-2.8155810832977295,14.221558570861816,-8.305485725402832,56.640625,-79.4219970703125,141.998291015625
10.3699999,-2.0853497982025146,13.374011039733887,-7.074865818023682,2.8839111328125,-48.2177734375,157.012939453125
10.389999900000001,-1.2401964664459229,12.57913589477539,-6.421248912811279,-29.9835205078125,10.833740234375,177.91748046875
10.4099999,-0.5913678407669067,11.520898818969727,-5.935225963592529,-59.0667724609375,31.9061279296875,179.2449951171875
10.4299999,-0.0694318488240242,10.412383079528809,-5.403713226318359,-80.0323486328125,40.924072265625,157.7911376953125
10.4499999,0.4836287498474121,9.284713745117188,-4.6040496826171875,-63.2781982421875,69.4427490234375,151.153564453125
10.469999900000001,0.9169792532920837,8.415618896484375,-3.6296098232269287,-72.8912353515625,30.3192138671875,171.38671875
10.4899999,1.158793568611145,7.8314337730407715,-2.427720546722412,-172.1343994140625,-128.41796875,213.9892578125
10.5099999,1.400607943534851,7.398083209991455,-1.721431016921997,-107.72705078125,-215.6219482421875,228.485107421875
10.5299999,1.4269442558288574,6.670246124267578,-1.5155296325683594,8.575439453125,-203.9031982421875,210.052490234375
10.549999900000001,1.556231141090393,5.710171222686768,-2.073378562927246,33.9508056640625,-165.4815673828125,155.029296875
10.569999900000001,1.8267759084701538,4.637568473815918,-3.2345664501190186,36.4837646484375,-150.0701904296875,69.580078125
10.5899999,2.0829553604125977,3.7253777980804443,-4.489128112792969,-2.6397705078125,-142.5933837890625,5.3863525390625
10.6099999,2.3487119674682617,3.3231520652770996,-5.473145008087158,-32.867431640625,-103.363037109375,-16.90673828125
10.629999900000001,2.410961151123047,3.5410242080688477,-5.750872611999512,-50.4150390625,-103.5614013671875,-14.70947265625
10.649999900000001,2.3558945655822754,4.194641590118408,-5.468356609344482,9.7503662109375,-126.0528564453125,7.720947265625
10.6699999,1.9943699836730957,4.917690277099609,-4.829104900360107,7.171630859375,-161.19384765625,41.1834716796875
10.6899999,1.3072341680526733,5.363011837005615,-4.347870349884033,-16.1895751953125,-204.925537109375,37.7044677734375
10.709999900000001,0.3447650372982025,5.4444146156311035,-4.371812343597412,15.3961181640625,-194.976806640625,28.62548828125
10.729999900000001,-0.8523358106613159,5.188235282897949,-4.900930881500244,27.2216796875,-152.8472900390625,56.8389892578125
10.7499999,-1.8076223134994507,4.721365928649902,-5.583278179168701,-4.5166015625,-117.2637939453125,103.6834716796875
10.7699999,-2.387019157409668,4.199429988861084,-6.054935932159424,10.3759765625,-73.699951171875,122.711181640625
10.7899999,-2.52109432220459,3.60566782951355,-6.023811340332031,-11.2762451171875,-74.1119384765625,116.2109375
10.809999900000001,-2.2888567447662354,2.9017724990844727,-5.655104637145996,-59.5245361328125,-129.608154296875,106.475830078125
10.8299999,-2.056619167327881,2.274491548538208,-5.233725070953369,-63.446044921875,-172.027587890625,56.610107421875
10.8499999,-1.987187385559082,1.8602946996688843,-5.295974254608154,18.5699462890625,-173.187255859375,-13.61083984375
10.8699999,-2.1380221843719482,1.8483237028121948,-5.928043365478516,33.172607421875,-150.45166015625,-36.9415283203125
10.889999900000001,-2.343923568725586,2.4157495498657227,-7.022193431854248,16.2353515625,-77.94189453125,-24.71923828125
10.9099999,-2.403778553009033,3.533841609954834,-7.967903137207031,-25.6195068359375,-4.8675537109375,-8.5601806640625
10.9299999,-2.5091233253479004,4.766855716705322,-8.224082946777344,64.0106201171875,25.32958984375,6.072998046875
10.9499999,-2.5450363159179688,5.719748020172119,-7.807491779327393,286.7584228515625,19.500732421875,50.872802734375
10.969999900000001,-2.75812029838562,5.920860767364502,-6.952761650085449,315.3076171875,-60.6689453125,89.3707275390625
10.9899999,-3.179499864578247,5.250484466552734,-6.382941722869873,268.9056396484375,-112.1368408203125,80.4290771484375
11.0099999,-3.687070608139038,3.907337188720703,-6.552929878234863,236.6790771484375,-104.583740234375,56.7779541015625
11.0299999,-4.338293552398682,2.166752576828003,-7.338228225708008,141.937255859375,-113.922119140625,39.215087890625
11.049999900000001,-5.039794445037842,0.42856210470199585,-8.619126319885254,140.167236328125,-107.3760986328125,15.594482421875
11.069999900000001,-5.655104637145996,-1.0582371950149536,-10.005369186401367,144.4091796875,-91.217041015625,-19.134521484375
11.0899999,-5.386953830718994,-1.8818424940109253,-11.197681427001953,129.6844482421875,-51.422119140625,-47.1649169921875
11.1099999,-4.711789131164551,-2.2409727573394775,-11.894393920898438,51.4984130859375,-22.8271484375,-40.6036376953125
11.129999900000001,-3.536235809326172,-2.097320795059204,-11.465831756591797,-143.9361572265625,-35.491943359375,-60.2569580078125
11.149999900000001,-2.75812029838562,-1.6615760326385498,-10.438719749450684,-121.2310791015625,-124.8321533203125,-154.022216796875
11.1699999,-2.8419175148010254,-1.1180921792984009,-8.983044624328613,73.089599609375,-171.08154296875,-193.5577392578125
11.1899999,-3.9025487899780273,-0.5506663918495178,-7.85537576675415,145.44677734375,-142.76123046875,-132.4310302734375
11.209999900000001,-5.097255229949951,-0.028730420395731926,-7.6351094245910645,130.767822265625,-79.1473388671875,-45.2728271484375
11.229999900000001,-5.748478412628174,0.10295066982507706,-8.145073890686035,103.1646728515625,-0.7476806640625,1.52587890625
11.2499999,-6.0836663246154785,0.08140286058187485,-8.834604263305664,-140.1214599609375,-3.0670166015625,-24.3988037109375
11.2699999,-5.322310447692871,-0.08140286058187485,-9.062053680419922,-500,-91.1865234375,-45.806884765625
11.2899999,-4.479551315307617,-0.043095629662275314,-8.616731643676758,-500,-161.9415283203125,-50.140380859375
11.309999900000001,-3.866635799407959,0.4118026793003082,-7.888894557952881,12.1307373046875,-49.713134765625,-153.3050537109375
11.3299999,-3.514688014984131,1.161187767982483,-7.232883453369141,211.181640625,4.730224609375,-199.005126953125
11.3499999,-3.7229835987091064,1.9369091987609863,-7.321468830108643,107.5897216796875,-17.0745849609375,-159.393310546875
11.3699999,-4.422090530395508,2.4205379486083984,-8.286332130432129,156.097412109375,21.4080810546875,-126.312255859375
11.389999900000001,-4.994304656982422,2.4229321479797363,-9.17936897277832,-81.60400390625,13.580322265625,-57.769775390625
11.4099999,-5.408501625061035,2.0925323963165283,-9.830592155456543,-207.1075439453125,43.88427734375,-62.469482421875
11.4299999,-5.638344764709473,1.886630892753601,-9.718064308166504,-64.8956298828125,92.1630859375,-128.265380859375
11.4499999,-5.772420406341553,2.0422539710998535,-8.822632789611816,-34.698486328125,77.1636962890625,-107.2235107421875
11.469999900000001,-5.839457988739014,2.559401512145996,-7.544129371643066,-118.8507080078125,22.8729248046875,-13.0615234375
11.4899999,-5.906495571136475,3.026270866394043,-6.3733649253845215,-58.197021484375,1.1444091796875,25.4974365234375
11.5099999,-5.8657941818237305,3.268085241317749,-5.774814605712891,34.85107421875,-16.3421630859375,-0.5645751953125
11.5299999,-5.762843608856201,3.1531636714935303,-5.8873419761657715,54.656982421875,-39.1387939453125,-23.3154296875
11.549999900000001,-5.69580602645874,2.9903578758239746,-6.519411087036133,-17.39501953125,3.6163330078125,-9.552001953125
11.569999900000001,-5.75326681137085,2.873042106628418,-7.266402244567871,-122.6348876953125,10.5438232421875,27.64892578125
11.5899999,-5.686229228973389,2.8347349166870117,-7.934384346008301,-85.4644775390625,-33.233642578125,37.872314453125
11.6099999,-5.5545477867126465,2.9496564865112305,-8.329427719116211,-180.7098388671875,-55.4962158203125,78.55224609375
11.629999900000001,-5.367800235748291,3.2130186557769775,-8.738836288452148,-315.5670166015625,-98.32763671875,91.6290283203125
11.649999900000001,-5.243301868438721,3.44765043258667,-8.868123054504395,-308.441162109375,-51.3153076171875,95.27587890625
11.6699999,-5.262455463409424,3.6559460163116455,-8.741230010986328,-231.109619140625,-18.3258056640625,95.2911376953125
11.6899999,-5.382165431976318,3.6942532062530518,-8.130708694458008,-183.77685546875,-12.6495361328125,60.455322265625
11.709999900000001,-5.4252610206604,3.5170822143554688,-7.01979923248291,-211.761474609375,-3.2958984375,21.4385986328125
11.729999900000001,-5.377377033233643,3.3662476539611816,-5.674258232116699,-139.5416259765625,16.387939453125,-18.829345703125
11.7499999,-5.22175407409668,3.555389642715454,-4.230554580688477,44.5404052734375,15.838623046875,-81.97021484375
11.7699999,-5.451597213745117,4.084507942199707,-3.5003228187561035,323.8525390625,-0.1068115234375,-135.2386474609375
11.7899999,-5.9974751472473145,4.90571928024292,-3.9049429893493652,368.8812255859375,-53.802490234375,-79.8187255859375
11.809999900000001,-6.782773494720459,5.468356609344482,-5.6191911697387695,198.0133056640625,-22.369384765625,38.8336181640625
11.8299999,-7.515398979187012,5.568912982940674,-7.905653953552246,-28.86962890625,80.99365234375,104.91943359375
11.8499999,-7.781155586242676,5.0876784324646,-9.792284965515137,-182.7392578125,150.7415771484375,109.1461181640625
11.8699999,-7.469909191131592,4.2329487800598145,-10.376470565795898,-287.7044677734375,166.4276123046875,110.1226806640625
11.889999900000001,-6.593631267547607,3.268085241317749,-9.423578262329102,-340.5609130859375,146.331787109375,93.0633544921875
11.9099999,-5.566518783569336,2.564189910888672,-7.529764175415039,-336.3800048828125,87.554931640625,18.5546875
11.9299999,-4.623203277587891,2.3080103397369385,-5.3582234382629395,-307.4798583984375,-14.312744140625,-75.1953125
11.9499999,-4.1156325340271,2.6024973392486572,-3.5697548389434814,-129.486083984375,-75.9735107421875,-104.43115234375
11.969999900000001,-4.185064792633057,3.1268274784088135,-2.8850131034851074,289.398193359375,-0.79345703125,-129.8675537109375
11.9899999,-4.795586109161377,3.667917013168335,-3.7852327823638916,499.9847412109375,121.856689453125,-184.0667724609375
12.0099999,-5.501875400543213,3.60566782951355,-5.863399982452393,252.7008056640625,86.5631103515625,-172.9583740234375
12.0299999,-6.366182327270508,2.920926094055176,-8.075642585754395,-240.9515380859375,97.2747802734375,-127.0599365234375
12.049999900000001,-6.998251438140869,1.8339585065841675,-9.677363395690918,-263.6871337890625,167.29736328125,-135.6201171875
12.069999900000001,-7.340622425079346,0.8068459630012512,-10.022128105163574,-120.2545166015625,214.996337890625,-183.2733154296875
12.0899999,-7.362170219421387,0.3663128614425659,-9.229647636413574,-94.8944091796875,239.92919921875,-227.96630859375
12.1099999,-7.242460250854492,0.7757213711738586,-7.771578788757324,-182.31201171875,208.2366943359375,-225.0518798828125
12.129999900000001,-7.06528902053833,1.8938134908676147,-5.963956356048584,-230.28564453125,105.5145263671875,-164.9322509765625
12.149999900000001,-6.921637058258057,3.2154128551483154,-4.230554580688477,-215.057373046875,-20.111083984375,-81.268310546875
12.1699999,-6.799532890319824,4.352658748626709,-3.0190882682800293,-142.8375244140625,-56.0150146484375,-37.994384765625
12.1899999,-6.6630635261535645,5.123591423034668,-2.741360902786255,-20.56884765625,-12.9241943359375,-39.55078125
12.209999900000001,-6.5050458908081055,5.492298603057861,-3.361459255218506,55.2825927734375,20.4315185546875,-23.223876953125
12.229999900000001,-6.44279670715332,5.657498836517334,-4.299986362457275,102.020263671875,64.0716552734375,-19.59228515625
12.2499999,-6.406883716583252,5.640739440917969,-5.2480902671813965,168.15185546875,84.0301513671875,-41.839599609375
12.2699999,-6.22731876373291,5.525817394256592,-6.038176536560059,200.2716064453125,90.057373046875,-63.4765625
12.289999900000002,-5.949591159820557,5.415684223175049,-6.682217121124268,161.224365234375,68.1610107421875,-79.498291015625
12.309999900000001,-5.657498836517334,5.324704647064209,-7.261613845825195,131.2255859375,28.472900390625,-80.9173583984375
12.3299999,-5.501875400543213,5.070919036865234,-7.69735860824585,130.035400390625,23.8037109375,-77.9876708984375
12.3499999,-5.633556365966797,4.541800498962402,-8.123526573181152,189.8651123046875,69.5037841796875,-94.8028564453125
12.3699999,-5.942408561706543,3.799597978591919,-8.470685958862305,198.944091796875,111.4501953125,-118.6676025390625
12.389999900000001,-6.277596950531006,3.0621838569641113,-8.652645111083984,101.8524169921875,135.4217529296875,-128.570556640625
12.4099999,-6.380547523498535,2.7940332889556885,-8.640673637390137,26.397705078125,142.39501953125,-134.307861328125
12.4299999,-6.349422931671143,3.203441858291626,-8.106766700744629,-61.248779296875,101.98974609375,-111.4044189453125
12.4499999,-6.258443355560303,4.094084739685059,-7.129932880401611,-92.6055908203125,24.993896484375,-36.4837646484375
12.469999900000001,-6.117185115814209,5.008669853210449,-5.875370979309082,-119.8577880859375,-76.873779296875,50.3082275390625
12.4899999,-6.069301128387451,5.612008571624756,-4.879383087158203,-82.51953125,-152.130126953125,63.4918212890625
12.5099999,-6.145915985107422,5.920860767364502,-4.458003520965576,-57.06787109375,-190.9027099609375,29.78515625
12.5299999,-6.337451934814453,5.935225963592529,-4.924872875213623,-27.313232421875,-173.64501953125,36.1785888671875
12.549999900000001,-6.773196697235107,5.750872611999512,-6.057330131530762,61.4471435546875,-86.3800048828125,67.626953125
12.569999900000001,-7.259219646453857,5.556941986083984,-7.2568254470825195,45.10498046875,-5.7220458984375,57.9071044921875
12.5899999,-7.6782050132751465,5.415684223175049,-8.121131896972656,-22.125244140625,8.056640625,29.5867919921875
12.6099999,-7.9631147384643555,5.39174222946167,-8.097189903259277,-72.7996826171875,13.4735107421875,43.914794921875
12.629999900000001,-8.010998725891113,5.621585369110107,-7.632715225219727,-70.3277587890625,61.3250732421875,51.6357421875
12.649999900000001,-8.037335395812988,5.719748020172119,-8.880094528198242,321.1212158203125,228.546142578125,2.1820068359375
12.6699999,-8.008605003356934,5.3342814445495605,-8.53532886505127,-25.3448486328125,359.893798828125,11.41357421875
12.6899999,-7.422025203704834,4.69024133682251,-9.457097053527832,-193.5882568359375,277.191162109375,3.204345703125
12.709999900000001,-6.7277069091796875,3.869029998779297,-10.014945983886719,99.12109375,201.171875,-47.0733642578125
12.729999900000001,-5.257667064666748,3.1962592601776123,-8.999804496765137,-0.701904296875,121.795654296875,27.40478515625
12.7499999,-3.6846764087677,2.5785553455352783,-9.251194953918457,27.6641845703125,96.8170166015625,203.9642333984375
12.7699999,-1.9369091987609863,1.965639591217041,-8.882488250732422,55.7098388671875,189.7430419921875,306.976318359375
12.789999900000002,-0.033518824726343155,1.3838485479354858,-10.077195167541504,182.9376220703125,157.562255859375,234.9090576171875
12.809999900000001,1.2497732639312744,0.5099649429321289,-10.019734382629395,-33.843994140625,-72.3419189453125,91.522216796875
12.8299999,2.1523873805999756,0.09816227108240128,-11.312602996826172,-130.37109375,-80.596923828125,43.8232421875
12.8499999,2.27209734916687,-0.0454898327589035,-11.32457447052002,17.1356201171875,6.7291259765625,17.791748046875
12.8699999,1.7094600200653076,0.22266076505184174,-10.92953109741211,-9.1400146484375,-22.7508544921875,-0.213623046875
12.889999900000001,0.9672574996948242,0.9169792532920837,-10.491392135620117,-8.5601806640625,-20.3094482421875,-0.7476806640625
12.9099999,0.22266076505184174,1.6304513216018677,-9.971850395202637,-2.166748046875,-9.521484375,-1.5716552734375
12.9299999,-0.3280056416988373,2.1763293743133545,-9.509769439697266,-7.8125,-13.97705078125,-3.326416015625
12.9499999,-0.646434485912323,2.4899697303771973,-9.27034854888916,-1.373291015625,-6.0577392578125,-1.46484375
12.969999900000001,-0.768538773059845,2.6001031398773193,-9.165003776550293,1.556396484375,0.5645751953125,-0.152587890625
12.9899999,-0.7589619159698486,2.5737667083740234,-9.172186851501465,-0.5645751953125,-0.9918212890625,-0.5035400390625
13.0099999,-0.6823474764823914,2.4875755310058594,-9.258378028869629,-1.129150390625,-2.1209716796875,-0.7171630859375
13.0299999,-0.5913678407669067,2.389413356781006,-9.366117477416992,-0.3204345703125,-0.4425048828125,-0.3509521484375
13.049999900000001,-0.5123591423034668,2.3104045391082764,-9.445125579833984,-0.9918212890625,-0.5340576171875,-0.3814697265625
13.069999900000001,-0.4620809257030487,2.2625205516815186,-9.495404243469238,-1.556396484375,-1.28173828125,-0.518798828125
13.0899999,-0.4381389021873474,2.2433669567108154,-9.519346237182617,-0.6256103515625,-0.579833984375,-0.3814697265625
13.1099999,-0.4357447028160095,2.2457611560821533,-9.519346237182617,-0.1983642578125,-0.1220703125,-0.274658203125
13.129999900000001,-0.44532153010368347,2.2601263523101807,-9.50498104095459,-0.4730224609375,-0.1373291015625,-0.3814697265625
13.149999900000001,-0.4596867263317108,2.276885747909546,-9.497797966003418,0.762939453125,0.5035400390625,-0.518798828125
13.1699999,-0.47644615173339844,2.2864625453948975,-9.48343276977539,0.4730224609375,-0.457763671875,-0.5645751953125
13.1899999,-0.4884171485900879,2.293645143508911,-9.476250648498535,0.030517578125,-0.335693359375,-0.396728515625
13.209999900000001,-0.49799394607543945,2.298433542251587,-9.478644371032715,-0.7171630859375,-0.42724609375,-0.396728515625
13.229999900000001,-0.5003881454467773,2.296039342880249,-9.47146224975586,-1.861572265625,-1.28173828125,-0.457763671875
13.2499999,-0.5003881454467773,2.296039342880249,-9.476250648498535,-0.8392333984375,-0.4425048828125,-0.3662109375
13.2699999,-0.49799394607543945,2.296039342880249,-9.473855972290039,-0.5340576171875,-0.2899169921875,-0.3814697265625
13.289999900000002,-0.49320554733276367,2.296039342880249,-9.473855972290039,-0.6561279296875,-0.42724609375,-0.8087158203125
13.309999900000001,-0.49559974670410156,2.296039342880249,-9.473855972290039,-0.701904296875,-0.732421875,-1.52587890625
13.3299999,-0.5003881454467773,2.298433542251587,-9.473855972290039,-0.4425048828125,-0.2899169921875,-0.9765625
13.3499999,-0.5099649429321289,2.298433542251587,-9.47146224975586,-0.3509521484375,0.213623046875,-0.457763671875
13.3699999,-0.5171475410461426,2.3032219409942627,-9.473855972290039,-0.579833984375,-0.091552734375,-0.2288818359375
13.389999900000001,-0.5219359993934631,2.3056161403656006,-9.473855972290039,-0.7476806640625,-0.5645751953125,-0.3204345703125
13.4099999,-0.5219359993934631,2.3080103397369385,-9.478644371032715,-0.7171630859375,-0.6561279296875,-0.4425048828125
13.4299999,-0.5219359993934631,2.3104045391082764,-9.478644371032715,-0.885009765625,-0.8392333984375,-0.5035400390625
13.4499999,-0.5219359993934631,2.3127987384796143,-9.478644371032715,-1.1138916015625,-0.9918212890625,-0.579833984375
13.469999900000001,-0.5147533416748047,2.31758713722229,-9.48343276977539,-0.9765625,-1.0223388671875,-0.6866455078125
13.4899999,-0.5171475410461426,2.319981336593628,-9.478644371032715,-1.739501953125,-1.556396484375,-1.800537109375
13.5099999,-0.5171475410461426,2.319981336593628,-9.473855972290039,-0.9765625,-0.8697509765625,-2.349853515625
13.5299999,-0.5267243981361389,2.319981336593628,-9.464279174804688,-0.1068115234375,0.4119873046875,-0.79345703125
13.549999900000001,-0.5363011956214905,2.319981336593628,-9.454702377319336,0.42724609375,1.3275146484375,0.1373291015625
13.569999900000001,-0.545877993106842,2.319981336593628,-9.44752025604248,0.5645751953125,0.823974609375,-0.06103515625
13.5899999,-0.545877993106842,2.322375535964966,-9.452308654785156,0.946044921875,1.068115234375,-0.3509521484375
13.6099999,-0.5434837937355042,2.319981336593628,-9.461885452270508,0.2899169921875,0.4425048828125,-0.5950927734375
13.629999900000001,-0.5386953949928284,2.319981336593628,-9.476250648498535,-0.4119873046875,-0.30517578125,-0.2593994140625
13.649999900000001,-0.5363011956214905,2.319981336593628,-9.48343276977539,-0.9002685546875,-0.48828125,-0.274658203125
13.6699999,-0.5339069962501526,2.31758713722229,-9.490615844726562,-1.0528564453125,-0.4119873046875,-0.2593994140625
13.6899999,-0.5339069962501526,2.319981336593628,-9.485827445983887,-1.5106201171875,-0.67138671875,-0.2593994140625
13.709999900000001,-0.5339069962501526,2.322375535964966,-9.481039047241211,-1.46484375,-0.7476806640625,-0.2899169921875
13.729999900000001,-0.5339069962501526,2.3271639347076416,-9.469067573547363,-0.885009765625,-0.54931640625,-0.335693359375
13.7499999,-0.5363011956214905,2.3319525718688965,-9.459490776062012,-0.2288818359375,-0.244140625,-0.2899169921875
13.7699999,-0.5386953949928284,2.3367409706115723,-9.454702377319336,-0.091552734375,0.091552734375,-0.213623046875
13.789999900000002,-0.5386953949928284,2.3367409706115723,-9.457097053527832,-0.18310546875,0.3204345703125,-0.1220703125
13.809999900000001,-0.5410895943641663,2.3367409706115723,-9.459490776062012,-0.1373291015625,0.4119873046875,-0.1678466796875
13.8299999,-0.5410895943641663,2.3343467712402344,-9.466673851013184,0.1983642578125,0.213623046875,-0.213623046875
13.8499999,-0.5410895943641663,2.3319525718688965,-9.469067573547363,0.2593994140625,0.1678466796875,-0.213623046875
13.8699999,-0.5410895943641663,2.3295583724975586,-9.473855972290039,0.2288818359375,0.3814697265625,-0.1983642578125
13.889999900000001,-0.5410895943641663,2.3271639347076416,-9.47146224975586,-0.0152587890625,0.396728515625,-0.1220703125
13.9099999,-0.5410895943641663,2.3247697353363037,-9.47146224975586,-0.0152587890625,-0.06103515625,-0.2288818359375
13.9299999,-0.5410895943641663,2.322375535964966,-9.466673851013184,0.030517578125,-0.4119873046875,-0.2899169921875
13.9499999,-0.5386953949928284,2.322375535964966,-9.464279174804688,0.3814697265625,-0.0457763671875,-0.244140625
13.969999900000001,-0.5386953949928284,2.322375535964966,-9.461885452270508,0.6256103515625,0.152587890625,-0.244140625
13.9899999,-0.5386953949928284,2.322375535964966,-9.459490776062012,1.1444091796875,0.4119873046875,-0.1220703125
14.0099999,-0.5386953949928284,2.319981336593628,-9.459490776062012,1.77001953125,0.79345703125,-0.091552734375
14.0299999,-0.5363011956214905,2.31758713722229,-9.466673851013184,1.7852783203125,0.732421875,-0.1373291015625
14.049999900000001,-0.5363011956214905,2.3104045391082764,-9.476250648498535,1.2054443359375,0.30517578125,-0.1678466796875
14.069999900000001,-0.5363011956214905,2.3032219409942627,-9.485827445983887,0.5035400390625,-0.244140625,-0.335693359375
14.0899999,-0.5363011956214905,2.296039342880249,-9.493009567260742,0.030517578125,-0.4730224609375,-0.335693359375
14.1099999,-0.5363011956214905,2.2888567447662354,-9.493009567260742,-0.457763671875,-0.6561279296875,-0.3204345703125
14.129999900000001,-0.5386953949928284,2.2864625453948975,-9.490615844726562,-0.885009765625,-0.79345703125,-0.3204345703125
14.149999900000001,-0.5410895943641663,2.2864625453948975,-9.481039047241211,-0.885009765625,-0.732421875,-0.3204345703125
14.1699999,-0.5434837937355042,2.2888567447662354,-9.473855972290039,-0.244140625,-0.1373291015625,-0.2288818359375
14.1899999,-0.5482721924781799,2.293645143508911,-9.464279174804688,1.007080078125,0.885009765625,-0.091552734375
14.209999900000001,-0.5482721924781799,2.296039342880249,-9.457097053527832,2.105712890625,1.617431640625,0.06103515625
14.229999900000001,-0.545877993106842,2.293645143508911,-9.461885452270508,2.25830078125,1.8310546875,0.091552734375
14.2499999,-0.5410895943641663,2.2888567447662354,-9.469067573547363,0.732421875,0.67138671875,-0.091552734375
14.2699999,-0.5363011956214905,2.2840683460235596,-9.48343276977539,-0.885009765625,-0.5340576171875,-0.274658203125
14.289999900000002,-0.5339069962501526,2.279279947280884,-9.495404243469238,-1.52587890625,-0.7476806640625,-0.2288818359375
14.309999900000001,-0.5339069962501526,2.279279947280884,-9.500192642211914,-2.01416015625,-1.15966796875,-0.2899169921875
14.3299999,-0.5339069962501526,2.279279947280884,-9.497797966003418,-1.77001953125,-1.5411376953125,-0.30517578125
14.3499999,-0.5386953949928284,2.2864625453948975,-9.488221168518066,-0.5645751953125,-0.7171630859375,-0.1983642578125
14.3699999,-0.5434837937355042,2.2912509441375732,-9.478644371032715,0.3509521484375,0.335693359375,0.030517578125
14.389999900000001,-0.5482721924781799,2.296039342880249,-9.473855972290039,0.4425048828125,0.5950927734375,-0.1220703125
14.4099999,-0.5506663918495178,2.298433542251587,-9.47146224975586,-0.2288818359375,-0.18310546875,-0.2288818359375
14.4299999,-0.5530605912208557,2.296039342880249,-9.473855972290039,-0.396728515625,-0.5035400390625,-0.2899169921875
14.4499999,-0.5530605912208557,2.298433542251587,-9.476250648498535,0.030517578125,0.1220703125,-0.1983642578125
14.469999900000001,-0.5530605912208557,2.293645143508911,-9.473855972290039,0.762939453125,0.7171630859375,-0.0762939453125
14.4899999,-0.5506663918495178,2.293645143508911,-9.473855972290039,1.40380859375,1.129150390625,-0.091552734375
14.5099999,-0.5482721924781799,2.2888567447662354,-9.478644371032715,1.312255859375,1.0223388671875,-0.091552734375
14.5299999,-0.545877993106842,2.2840683460235596,-9.48343276977539,0.5340576171875,0.42724609375,-0.1220703125
14.549999900000001,-0.5434837937355042,2.2816741466522217,-9.488221168518066,-0.3814697265625,-0.2288818359375,-0.244140625
14.569999900000001,-0.5434837937355042,2.274491548538208,-9.490615844726562,-0.701904296875,-0.42724609375,-0.30517578125
14.5899999,-0.5410895943641663,2.2888567447662354,-9.459490776062012,-0.3814697265625,-0.274658203125,-0.2899169921875
14.6099999,-0.5913678407669067,2.212242364883423,-9.318233489990234,17.974853515625,-9.7198486328125,0.244140625
14.629999900000001,-0.569819986820221,2.22660756111145,-9.227252960205078,18.4478759765625,44.2352294921875,13.519287109375
14.649999900000001,-0.47644615173339844,2.126051187515259,-9.244012832641602,18.768310546875,43.365478515625,12.39013671875
14.6699999,-0.7182605266571045,1.45806884765625,-9.390059471130371,-14.2364501953125,-29.72412109375,-6.7901611328125
14.6899999,-0.7876923680305481,-0.272938996553421,-10.163386344909668,-41.473388671875,-1.0986328125,-14.6331787109375
14.709999900000001,-1.316810965538025,-1.3670891523361206,-10.524910926818848,-58.074951171875,18.035888671875,-140.716552734375
14.729999900000001,-2.557007312774658,-1.213860273361206,-10.898406028747559,6.1492919921875,20.5535888671875,-86.395263671875
14.7499999,-2.9664158821105957,-0.33997663855552673,-11.010933876037598,58.8836669921875,41.9158935546875,-88.2720947265625
14.7699999,-3.8594532012939453,2.032677173614502,-11.051634788513184,69.610595703125,67.5506591796875,-299.285888671875
14.789999900000002,-3.7014358043670654,3.3710360527038574,-11.659762382507324,139.373779296875,88.3636474609375,-200.8209228515625
14.809999900000001,-2.7533318996429443,3.5625722408294678,-12.480973243713379,184.08203125,91.9036865234375,-56.488037109375
14.8299999,-2.205059766769409,3.220201253890991,-13.364434242248535,332.0770263671875,95.9930419921875,71.1517333984375
14.8499999,-1.4221558570861816,1.9919757843017578,-14.013262748718262,442.901611328125,104.3853759765625,172.7294921875
14.8699999,-0.9959878921508789,0.38546648621559143,-14.085088729858398,352.3101806640625,79.2388916015625,47.821044921875
14.889999900000001,-0.6727706789970398,-1.5873557329177856,-13.924676895141602,273.0560302734375,94.8028564453125,-93.6737060546875
14.9099999,-0.16998831927776337,-3.4787750244140625,-13.508086204528809,275.970458984375,150.3143310546875,-80.7037353515625
14.9299999,0.5817909836769104,-4.771644115447998,-12.947842597961426,264.6026611328125,179.718017578125,-32.196044921875
14.9499999,1.6184803247451782,-5.6455278396606445,-12.480973243713379,246.2921142578125,182.3272705078125,-20.751953125
14.969999900000001,2.5306711196899414,-5.75326681137085,-11.990161895751953,242.462158203125,161.9415283203125,29.11376953125
14.9899999,3.4093432426452637,-5.595249176025391,-11.319786071777344,252.1514892578125,88.9892578125,143.1732177734375
15.0099999,4.098873138427734,-5.2696380615234375,-10.359710693359375,217.529296875,27.9541015625,98.57177734375
15.0299999,4.572925090789795,-4.972756862640381,-9.08838939666748,156.5704345703125,40.95458984375,-44.7540283203125
15.049999900000001,4.836287498474121,-4.900930881500244,-7.575253963470459,155.670166015625,91.3848876953125,-79.681396484375
15.069999900000001,5.080495834350586,-5.188235282897949,-6.100425720214844,174.1790771484375,122.772216796875,-31.4788818359375
15.0899999,5.049371242523193,-5.700594425201416,-4.845864295959473,174.8504638671875,138.702392578125,24.9481201171875
15.1099999,5.0014872550964355,-6.296750545501709,-3.708618402481079,179.26025390625,129.791259765625,24.8870849609375
15.129999900000001,4.99669885635376,-6.947973251342773,-2.674323320388794,191.7266845703125,102.813720703125,3.5247802734375
15.149999900000001,5.116408824920654,-7.496245384216309,-1.659181833267212,183.10546875,87.646484375,-9.58251953125
15.1699999,5.449203014373779,-7.893682956695557,-0.727837324142456,107.2845458984375,107.635498046875,-7.2021484375
15.1899999,5.7987565994262695,-8.336610794067383,0.11252748221158981,69.6563720703125,122.2991943359375,-5.645751953125
15.209999900000001,5.992686748504639,-8.75080680847168,0.7326257228851318,75.5767822265625,96.8780517578125,-28.99169921875
15.229999900000001,5.817910194396973,-9.014169692993164,1.1324573755264282,92.71240234375,55.694580078125,-20.1416015625
15.2499999,5.509057998657227,-9.17697525024414,1.5682021379470825,141.571044921875,25.7110595703125,5.55419921875
15.2699999,5.066130638122559,-8.93037223815918,1.8291701078414917,166.961669921875,20.0347900390625,3.1585693359375
15.289999900000002,4.960785865783691,-8.49941635131836,2.0901381969451904,155.1666259765625,42.3126220703125,-3.9825439453125
15.309999900000001,4.967968463897705,-8.068459510803223,2.389413356781006,165.0848388671875,72.6165771484375,-7.354736328125
15.3299999,4.888959884643555,-7.627926826477051,2.8347349166870117,160.7513427734375,75.3173828125,6.103515625
15.3499999,4.606443881988525,-7.266402244567871,3.421314239501953,113.677978515625,43.487548828125,10.92529296875
15.3699999,4.1611223220825195,-7.141903877258301,4.10366153717041,89.9200439453125,45.318603515625,-2.1820068359375
15.389999900000001,3.8379054069519043,-7.050923824310303,4.596867084503174,108.9324951171875,77.94189453125,-28.076171875
15.4099999,3.6152446269989014,-6.988674640655518,4.73573112487793,133.97216796875,71.7620849609375,-55.2825927734375
15.4299999,3.555389642715454,-6.754043102264404,4.520252704620361,75.653076171875,23.6053466796875,-71.6705322265625
15.4499999,3.801992416381836,-6.560112476348877,4.134786128997803,19.8516845703125,-7.8277587890625,-88.68408203125
15.469999900000001,3.993528366088867,-6.435614109039307,4.022258758544922,66.5130615234375,-12.4969482421875,-93.32275390625
15.4899999,4.062960147857666,-6.387730121612549,3.936067581176758,190.4449462890625,0.5035400390625,-31.005859375
15.5099999,4.134786128997803,-6.54574728012085,4.268861770629883,290.863037109375,37.8570556640625,24.0936279296875
15.5299999,4.060565948486328,-6.509834289550781,4.824316501617432,332.4432373046875,40.557861328125,-71.441650390625
15.549999900000001,3.758896589279175,-6.030993938446045,5.286397457122803,215.75927734375,40.618896484375,-95.76416015625
15.569999900000001,3.885789394378662,-5.260061264038086,5.789179801940918,132.2479248046875,75.7293701171875,-5.9356689453125
15.5899999,3.6152446269989014,-4.271255970001221,5.817910194396973,121.734619140625,48.4771728515625,26.5960693359375
15.6099999,3.641580820083618,-3.246537446975708,5.655104637145996,75.8514404296875,41.0308837890625,36.865234375
15.629999900000001,3.5745432376861572,-2.6671407222747803,5.238513469696045,17.1661376953125,65.24658203125,66.7266845703125
15.649999900000001,3.5386300086975098,-2.5043349266052246,5.027823448181152,52.7496337890625,36.102294921875,69.7021484375
15.6699999,3.5649664402008057,-2.6431987285614014,4.99669885635376,86.0137939453125,45.2423095703125,42.266845703125
15.6899999,3.4332852363586426,-2.956839084625244,5.214571475982666,67.535400390625,72.3724365234375,2.2735595703125
15.709999900000001,3.3925838470458984,-3.043030261993408,5.7987565994262695,14.6636962890625,67.779541015625,-25.87890625
15.729999900000001,3.4811692237854004,-2.9089550971984863,6.435614109039307,-33.14208984375,51.9866943359375,-35.2630615234375
15.7499999,3.514688014984131,-2.6886885166168213,7.007828235626221,-85.174560546875,19.989013671875,-39.00146484375
15.7699999,3.6822822093963623,-2.6815059185028076,7.560888767242432,-134.33837890625,-9.1552734375,-23.1475830078125
15.789999900000002,3.4548330307006836,-2.9903578758239746,7.960720539093018,-73.1964111328125,-16.4642333984375,-3.3721923828125
15.809999900000001,3.1316158771514893,-3.4979286193847656,8.224082946777344,2.0904541015625,1.03759765625,-53.009033203125
15.8299999,2.5450363159179688,-3.8498764038085938,8.528146743774414,51.0711669921875,22.52197265625,-67.81005859375
15.8499999,1.745373010635376,-4.201824188232422,8.813055992126465,68.7408447265625,51.6357421875,-41.56494140625
15.869999900000002,0.6057330369949341,-4.01268196105957,9.078812599182129,146.209716796875,107.5439453125,-100.433349609375
15.889999900000001,-0.7661445140838623,-3.3039982318878174,9.856928825378418,266.78466796875,188.9495849609375,-149.322509765625
15.9099999,-1.941697597503662,-2.0398597717285156,11.006145477294922,307.0831298828125,177.8717041015625,-76.416015625
15.9299999,-2.760514497756958,-0.3926490843296051,12.12902545928955,278.9154052734375,92.1630859375,3.5400390625
15.9499999,-2.691082715988159,0.9528923034667969,12.662932395935059,268.646240234375,7.8125,26.6265869140625
15.969999900000001,-2.140416383743286,1.7094600200653076,12.210428237915039,193.0389404296875,-37.0635986328125,15.1214599609375
15.9899999,-1.3838485479354858,2.0374655723571777,11.101913452148438,86.3189697265625,-5.462646484375,-45.1812744140625
16.0099999,-0.950498104095459,2.403778553009033,10.072406768798828,35.6903076171875,80.4595947265625,-80.4595947265625
16.0299999,-0.6943184733390808,2.9903578758239746,9.344569206237793,104.6295166015625,69.061279296875,-35.8123779296875
16.0499999,-0.6751648783683777,3.60566782951355,9.308655738830566,93.4906005859375,51.20849609375,-11.8255615234375
16.0699999,-0.6129156351089478,3.936067581176758,9.433155059814453,36.62109375,69.427490234375,-10.7421875
16.089999900000002,-0.43335050344467163,4.003105163574219,9.627084732055664,21.8505859375,75.8514404296875,-8.8958740234375
16.109999900000002,-0.11013327538967133,3.756502389907837,9.648633003234863,28.4576416015625,22.9034423828125,12.5274658203125
16.1299999,0.2849099934101105,3.397372245788574,9.423578262329102,19.0582275390625,-24.96337890625,15.533447265625
16.1499999,0.768538773059845,2.8802247047424316,8.846575736999512,5.096435546875,-14.8468017578125,-1.1138916015625
16.1699999,1.2042834758758545,2.3511061668395996,7.982268333435059,-7.0953369140625,-4.33349609375,-7.9193115234375
16.1899999,1.721431016921997,1.6855180263519287,7.043741226196289,-33.3404541015625,-14.83154296875,15.9454345703125
16.2099999,1.920149803161621,1.2282254695892334,6.339846134185791,-117.7215576171875,-31.6162109375,26.1688232421875
16.2299999,1.8626888990402222,0.8858546018600464,5.868188381195068,-120.4833984375,-68.8934326171875,39.1845703125
16.249999900000002,1.5131354331970215,0.6368576288223267,5.674258232116699,-57.525634765625,-38.5589599609375,39.0167236328125
16.269999900000002,0.8882488012313843,0.6631938815116882,5.8657941818237305,-115.7073974609375,18.1427001953125,-6.4239501953125
16.2899999,0.5099649429321289,0.9888052940368652,6.598419666290283,-234.06982421875,-0.4730224609375,-17.2576904296875
16.3099999,0.4165911078453064,1.3263877630233765,7.5968017578125,-357.3150634765625,-85.784912109375,26.5655517578125
16.3299999,0.5506663918495178,1.5059528350830078,8.731653213500977,-500,-152.008056640625,43.02978515625
16.3499999,0.7110779285430908,0.9433154463768005,9.68933391571045,-500,-156.097412109375,107.4676513671875
16.3699999,0.5674257874488831,-0.1149216815829277,9.672574996948242,-455.26123046875,-124.6185302734375,130.9967041015625
16.3899999,-0.10295066982507706,-1.9273324012756348,9.801861763000488,-500,-68.572998046875,91.827392578125
16.4099999,-0.5674257874488831,-3.450044631958008,9.349357604980469,-406.3720703125,-175.262451171875,88.775634765625
16.429999900000002,-1.05105459690094,-5.245696067810059,8.844181060791016,-375.3509521484375,-183.9141845703125,98.0377197265625
16.4499999,-1.0223240852355957,-6.490680694580078,7.967903137207031,-429.107666015625,-182.7850341796875,33.5693359375
16.4699999,-0.5530605912208557,-7.1490864753723145,6.414066314697266,-408.3099365234375,-227.4169921875,32.470703125
16.4899999,0.038307227194309235,-7.94635534286499,4.477157115936279,-96.9390869140625,-203.91845703125,77.69775390625
16.5099999,0.5817909836769104,-7.716512203216553,3.002328872680664,8.7432861328125,-86.0595703125,17.852783203125
16.5299999,0.8906430602073669,-7.668628215789795,1.9177556037902832,-81.085205078125,-87.8448486328125,34.48486328125
16.5499999,0.9528923034667969,-7.340622425079346,1.7070658206939697,-60.791015625,-87.860107421875,71.47216796875
16.5699999,0.8523358106613159,-7.230489253997803,1.745373010635376,-70.9991455078125,-63.323974609375,82.3974609375
16.589999900000002,1.0247182846069336,-7.5417351722717285,1.659181833267212,-54.99267578125,-78.67431640625,64.483642578125
16.609999900000002,1.216254472732544,-8.101978302001953,1.4963760375976562,-56.3201904296875,-83.2061767578125,32.53173828125
16.6299999,1.4628572463989258,-8.650250434875488,1.3694833517074585,-39.154052734375,-82.3211669921875,29.4647216796875
16.6499999,1.5634137392044067,-8.89685344696045,1.3910311460494995,-68.8629150390625,-130.5694580078125,50.0640869140625
16.6699999,1.4460978507995605,-8.609549522399902,1.8626888990402222,-108.3526611328125,-189.544677734375,51.7425537109375
16.6899999,1.216254472732544,-8.44195556640625,1.9273324012756348,-73.150634765625,-219.42138671875,44.1131591796875
16.7099999,0.8882488012313843,-8.2312650680542,1.7812861204147339,-70.7550048828125,-206.3446044921875,52.18505859375
16.7299999,0.5410895943641663,-8.437167167663574,1.1875240802764893,-67.9168701171875,-156.9061279296875,56.427001953125
16.749999900000002,0.3208230137825012,-8.939949035644531,0.3519476354122162,-7.62939453125,-133.1787109375,33.4625244140625
16.769999900000002,0.08619125932455063,-9.488221168518066,0.28969839215278625,17.974853515625,-139.22119140625,27.2216796875
16.7899999,-0.14365209639072418,-9.765948295593262,-0.028730420395731926,168.6859130859375,-164.97802734375,42.694091796875
16.8099999,-0.45010992884635925,-10.098742485046387,0.16519992053508759,179.4891357421875,-169.647216796875,135.3912353515625
16.8299999,-0.7493851184844971,-10.345345497131348,-0.038307227194309235,94.573974609375,-99.4415283203125,149.9176025390625
16.8499999,-0.9361328482627869,-10.6709566116333,-0.5626373887062073,0.396728515625,-110.83984375,59.8297119140625
16.8699999,-1.139639973640442,-11.12346076965332,-1.1827356815338135,-29.11376953125,-127.9144287109375,11.29150390625
16.8899999,-1.192312479019165,-11.437101364135742,-1.5658079385757446,-47.54638671875,-109.0850830078125,-10.80322265625
16.9099999,-1.400607943534851,-11.461043357849121,-1.7597382068634033,-23.98681640625,-87.005615234375,-45.4864501953125
16.929999900000002,-1.4915876388549805,-11.377246856689453,-1.8100165128707886,-12.1002197265625,-80.2154541015625,-67.596435546875
16.9499999,-1.436521053314209,-11.370063781738281,-1.9249382019042969,-37.872314453125,-74.5391845703125,-53.009033203125
16.9699999,-1.479616641998291,-11.513715744018555,-2.027888774871826,6.3018798828125,-19.8516845703125,-40.2069091796875
16.9899999,-1.3215993642807007,-11.997344970703125,-2.207453966140747,-11.3983154296875,-38.5589599609375,-29.1748046875
17.0099999,-1.2545616626739502,-12.480973243713379,-2.296039342880249,-34.0576171875,-77.789306640625,-47.79052734375
17.0299999,-1.0127472877502441,-12.866439819335938,-2.185906171798706,-29.23583984375,-82.183837890625,-48.858642578125
17.0499999,-0.6607996821403503,-12.856863021850586,-2.123656988143921,-16.021728515625,-76.4617919921875,-49.1790771484375
17.0699999,-0.3208230137825012,-12.528857231140137,-2.0254945755004883,11.3525390625,-54.6875,-59.173583984375
17.089999900000002,-0.038307227194309235,-12.133813858032227,-1.9704279899597168,35.9649658203125,-29.8919677734375,-72.8759765625
17.109999900000002,-0.181959331035614,-11.654973983764648,-2.0039467811584473,40.191650390625,6.34765625,-74.2645263671875
17.1299999,-0.21308395266532898,-11.571176528930664,-1.6304513216018677,-11.65771484375,28.4881591796875,5.4931640625
17.1499999,-0.8858546018600464,-11.319786071777344,-1.4963760375976562,-14.312744140625,-34.0576171875,2.7313232421875
17.1699999,-1.4772224426269531,-11.159374237060547,-0.9983820915222168,-19.3023681640625,-21.1944580078125,-16.2353515625
17.1899999,-2.33913516998291,-10.778696060180664,-0.6129156351089478,4.33349609375,-6.0272216796875,14.617919921875
17.2099999,-3.3446998596191406,-10.163386344909668,-0.4165911078453064,-1.2969970703125,-36.3311767578125,42.236328125
17.2299999,-4.434061527252197,-9.907206535339355,-0.8762778043746948,-70.404052734375,-65.7806396484375,77.423095703125
17.249999900000002,-4.90571928024292,-10.884040832519531,-1.4844050407409668,-388.36669921875,3.41796875,1.89208984375
17.269999900000002,-4.596867084503174,-11.78904914855957,-3.2393548488616943,-364.3646240234375,40.191650390625,-172.7142333984375
17.2899999,-3.5745432376861572,-12.959814071655273,-4.2544965744018555,55.2520751953125,-1.739501953125,-0.1983642578125
17.3099999,-1.944091796875,-13.19205093383789,-5.145139217376709,135.5438232421875,-3.0975341796875,12.9852294921875
17.3299999,-0.5722141861915588,-12.337321281433105,-4.991910457611084,67.4591064453125,-0.274658203125,-1.15966796875
17.3499999,0.3471592366695404,-11.264719009399414,-4.02465295791626,45.5474853515625,-4.6234130859375,9.185791015625
17.3699999,0.7733271718025208,-10.38604736328125,-2.9089550971984863,-47.7447509765625,-8.697509765625,19.134521484375
17.3899999,0.8906430602073669,-9.739612579345703,-2.099714994430542,-221.61865234375,-14.0838623046875,11.199951171875
17.409999900000003,0.7086837291717529,-9.313444137573242,-1.7501614093780518,-187.652587890625,-31.7840576171875,27.5726318359375
17.429999900000002,0.4189853072166443,-9.004592895507812,-2.0685901641845703,-127.838134765625,-21.2860107421875,35.9954833984375
17.4499999,0.08140286058187485,-8.746018409729004,-2.7676970958709717,-78.1402587890625,1.6326904296875,15.1214599609375
17.4699999,-0.22026655077934265,-8.616731643676758,-3.5745432376861572,-41.3970947265625,9.3841552734375,1.3275146484375
17.4899999,-0.4189853072166443,-8.53293514251709,-4.242525577545166,-20.7672119140625,0.457763671875,-0.91552734375
17.5099999,-0.5171475410461426,-8.56645393371582,-4.750096321105957,19.6685791015625,-2.3345947265625,-4.5318603515625
17.5299999,-0.4908113479614258,-8.62630844116211,-4.924872875213623,82.9620361328125,15.7012939453125,-20.69091796875
17.5499999,-0.45489832758903503,-8.734047889709473,-4.903325080871582,91.6290283203125,15.655517578125,-17.3797607421875
17.5699999,-0.3016694188117981,-8.89445972442627,-4.608838081359863,88.7908935546875,12.847900390625,-24.139404296875
17.589999900000002,-0.1604115068912506,-9.081207275390625,-4.101267337799072,64.4073486328125,21.5606689453125,-5.0506591796875
17.609999900000002,-0.023942016065120697,-9.265560150146484,-3.6367924213409424,6.2408447265625,2.899169921875,8.636474609375
17.6299999,0.09816227108240128,-9.373299598693848,-3.268085241317749,-13.824462890625,-12.5274658203125,-6.3323974609375
17.6499999,0.13168109953403473,-9.490615844726562,-3.0597896575927734,15.9912109375,1.7852783203125,3.84521484375
17.6699999,0.14365209639072418,-9.428366661071777,-2.9233202934265137,1.46484375,10.8642578125,14.2669677734375
17.6899999,0.1173158809542656,-9.531316757202148,-2.9233202934265137,-79.1473388671875,-0.823974609375,13.24462890625
17.7099999,0.07422025501728058,-9.38048267364502,-2.937685489654541,-146.759033203125,-21.514892578125,15.4876708984375
17.7299999,-0.021547814831137657,-9.337387084960938,-3.2178070545196533,-147.918701171875,-33.0657958984375,20.6756591796875
17.749999900000002,-0.11971008777618408,-9.093177795410156,-3.691859006881714,-112.823486328125,-22.1710205078125,12.054443359375
17.769999900000002,-0.27054479718208313,-8.868123054504395,-4.307168960571289,-65.521240234375,-7.4005126953125,9.002685546875
17.7899999,-0.38546648621559143,-8.611943244934082,-4.853046894073486,-30.3955078125,7.8125,3.2501220703125
17.8099999,-0.4644751250743866,-8.461109161376953,-5.25527286529541,-14.34326171875,5.462646484375,-2.716064453125
17.8299999,-0.49320554733276367,-8.336610794067383,-5.43723201751709,-12.481689453125,-6.0577392578125,-0.48828125
17.8499999,-0.47644615173339844,-8.305485725402832,-5.48272180557251,-10.1318359375,-2.655029296875,1.3427734375
17.8699999,-0.45250412821769714,-8.303091049194336,-5.442020416259766,-6.9580078125,-0.1678466796875,1.007080078125
17.8899999,-0.42616790533065796,-8.324639320373535,-5.360617637634277,-3.5247802734375,4.9591064453125,0.6256103515625
17.909999900000003,-0.40701428055763245,-8.355764389038086,-5.293580055236816,-4.9591064453125,-1.2054443359375,-1.953125
17.929999900000002,-0.3926490843296051,-8.379706382751465,-5.233725070953369,-8.2550048828125,-3.265380859375,0.5340576171875
17.9499999,-0.3878606855869293,-8.38688850402832,-5.20978307723999,-13.2293701171875,-1.6326904296875,3.448486328125
17.9699999,-0.3878606855869293,-8.382100105285645,-5.216965675354004,-15.228271484375,1.007080078125,2.0599365234375
17.9899999,-0.40222588181495667,-8.377311706542969,-5.2672438621521,-13.1683349609375,-0.8544921875,-0.30517578125
18.0099999,-0.4189853072166443,-8.360552787780762,-5.329493045806885,-9.246826171875,-3.631591796875,-2.3651123046875
18.0299999,-0.42616790533065796,-8.458714485168457,-5.451597213745117,-3.4332275390625,-0.54931640625,-2.44140625
18.0499999,-0.4357447028160095,-8.406042098999023,-5.501875400543213,-10.6658935546875,-2.044677734375,2.5634765625
18.0699999,-0.4405331015586853,-8.35097599029541,-5.504269599914551,-10.9100341796875,0.701904296875,4.9896240234375
18.089999900000002,-0.4405331015586853,-8.271966934204102,-5.485116004943848,-6.9427490234375,-0.152587890625,-1.9073486328125
18.109999900000002,-0.45010992884635925,-8.099584579467773,-5.408501625061035,-19.8516845703125,-5.157470703125,-0.42724609375
18.1299999,-0.45489832758903503,-8.054094314575195,-5.410895824432373,-24.23095703125,-5.462646484375,4.7454833984375
18.1499999,-0.4596867263317108,-8.054094314575195,-5.473145008087158,-17.7459716796875,-3.8299560546875,1.312255859375
18.1699999,-0.47405192255973816,-8.042123794555664,-5.5545477867126465,-14.16015625,-4.2724609375,-1.5716552734375
18.1899999,-0.4884171485900879,-8.04691219329834,-5.6455278396606445,-10.7421875,-2.8228759765625,0.7476806640625
18.2099999,-0.5027823448181152,-8.042123794555664,-5.726930618286133,-7.9345703125,-1.3275146484375,1.6326904296875
18.2299999,-0.5147533416748047,-8.032546997070312,-5.779603004455566,-6.77490234375,-0.8697509765625,0.5340576171875
18.249999900000002,-0.5267243981361389,-8.022970199584961,-5.808333396911621,-7.843017578125,-1.556396484375,0.1373291015625
18.269999900000002,-0.5315127968788147,-8.010998725891113,-5.8203043937683105,-9.3231201171875,-2.62451171875,0.030517578125
18.2899999,-0.5363011956214905,-7.994239330291748,-5.825092792510986,-10.040283203125,-2.2735595703125,1.068115234375
18.3099999,-0.5410895943641663,-7.975085735321045,-5.834669589996338,-8.941650390625,-0.8697509765625,1.739501953125
18.3299999,-0.5434837937355042,-7.951143741607666,-5.849034786224365,-8.2550048828125,0.518798828125,-0.244140625
18.3499999,-0.5506663918495178,-7.934384346008301,-5.872976779937744,-7.171630859375,-1.2054443359375,-0.1373291015625
18.3699999,-0.5506663918495178,-7.910442352294922,-5.892130374908447,-6.317138671875,-1.4801025390625,1.2664794921875
18.3899999,-0.5530605912208557,-7.8960771560668945,-5.9088897705078125,-7.6446533203125,-1.0223388671875,1.4495849609375
18.409999900000003,-0.5602431893348694,-7.881711959838867,-5.92325496673584,-10.6353759765625,0.5035400390625,1.251220703125
18.429999900000002,-0.5650315880775452,-7.869740962982178,-5.940014362335205,-15.5029296875,1.0528564453125,-0.396728515625
18.4499999,-0.569819986820221,-7.848193168640137,-5.96874475479126,-17.27294921875,-0.3662109375,-0.48828125
18.4699999,-0.5770025849342346,-7.819462776184082,-6.01423454284668,-11.993408203125,-2.593994140625,1.5411376953125
18.4899999,-0.5793967843055725,-7.783549785614014,-6.066906929016113,-3.9520263671875,0.1220703125,0.2899169921875
18.5099999,-0.5817909836769104,-7.750030994415283,-6.110002517700195,1.0528564453125,3.875732421875,-1.0986328125
18.5299999,-0.5841852426528931,-7.73087739944458,-6.133944988250732,0.54931640625,3.326416015625,-0.0152587890625
18.5499999,-0.5770025849342346,-7.723694801330566,-6.1315507888793945,-3.0059814453125,0.701904296875,0.640869140625
18.5699999,-0.569819986820221,-7.723694801330566,-6.121973514556885,-6.3934326171875,-1.0223388671875,0.79345703125
18.589999900000002,-0.5626373887062073,-7.723694801330566,-6.114790916442871,-6.256103515625,-1.2664794921875,1.434326171875
18.609999900000002,-0.5626373887062073,-7.7213006019592285,-6.117185115814209,-5.8441162109375,-0.885009765625,1.4495849609375
18.6299999,-0.569819986820221,-7.716512203216553,-6.124367713928223,-8.11767578125,0.244140625,0.9002685546875
18.6499999,-0.5793967843055725,-7.706935405731201,-6.13633918762207,-12.9547119140625,1.312255859375,-0.2899169921875
18.6699999,-0.5841852426528931,-7.687781810760498,-6.157886981964111,-18.5546875,0.6256103515625,-1.129150390625
18.6899999,-0.5889736413955688,-7.659051418304443,-6.196194171905518,-17.7459716796875,-2.86865234375,1.2054443359375
18.7099999,-0.5913678407669067,-7.613561630249023,-6.248866558074951,-10.8642578125,-2.3193359375,2.01416015625
18.7299999,-0.5913678407669067,-7.572859764099121,-6.303933143615723,-5.157470703125,-0.0762939453125,0.2899169921875
18.749999900000002,-0.5961562395095825,-7.539340972900391,-6.347028732299805,-4.4097900390625,0.1983642578125,0.3509521484375
18.769999900000002,-0.5985504388809204,-7.5201873779296875,-6.3733649253845215,-6.6375732421875,-1.2054443359375,0.9613037109375
18.7899999,-0.6033388376235962,-7.50582218170166,-6.385335922241211,-8.30078125,-1.46484375,0.5035400390625
18.8099999,-0.6105214357376099,-7.496245384216309,-6.399701118469238,-6.8206787109375,-1.3885498046875,-0.244140625
18.8299999,-0.6177040338516235,-7.484274387359619,-6.414066314697266,-3.204345703125,-0.5645751953125,-0.2288818359375
18.8499999,-0.6200982332229614,-7.4770917892456055,-6.428431510925293,-1.800537109375,-0.152587890625,0.7781982421875
18.8699999,-0.6224924325942993,-7.465120792388916,-6.430825710296631,-5.55419921875,-1.0833740234375,0.9918212890625
18.8899999,-0.6248866319656372,-7.462726593017578,-6.433219909667969,-10.009765625,-1.2359619140625,1.5411376953125
18.909999900000003,-0.6272808313369751,-7.448361396789551,-6.435614109039307,-13.7176513671875,0.579833984375,1.068115234375
18.929999900000002,-0.6344634294509888,-7.4316020011901855,-6.457161903381348,-14.6331787109375,-0.3662109375,0.6103515625
18.9499999,-0.6416460275650024,-7.4100542068481445,-6.493074893951416,-11.4898681640625,0.0457763671875,0.3814697265625
18.9699999,-0.6416460275650024,-7.371747016906738,-6.531382083892822,-9.185791015625,3.2501220703125,-1.1749267578125
18.9899999,-0.6440402865409851,-7.347805023193359,-6.574477672576904,-7.9193115234375,0.06103515625,-0.091552734375
19.0099999,-0.6440402865409851,-7.316680431365967,-6.600813865661621,-8.056640625,0.5035400390625,0.213623046875
19.0299999,-0.6416460275650024,-7.297526836395264,-6.619967937469482,-10.528564453125,3.8604736328125,-2.8533935546875
19.0499999,-0.6272808313369751,-7.2783732414245605,-6.631938934326172,-16.29638671875,1.6326904296875,-2.8076171875
19.0699999,-0.6200982332229614,-7.252037048339844,-6.648698329925537,-20.7977294921875,-5.2642822265625,2.4566650390625
19.089999900000002,-0.6105214357376099,-7.218518257141113,-6.675034523010254,-20.3857421875,-4.2266845703125,4.1961669921875
19.109999900000002,-0.6153098344802856,-7.175422668457031,-6.72531270980835,-18.00537109375,-2.0294189453125,1.6326904296875
19.1299999,-0.6320692300796509,-7.127538681030273,-6.785167694091797,-15.625,-1.8463134765625,1.5869140625
19.1499999,-0.6512228846549988,-7.079654216766357,-6.842628479003906,-12.75634765625,-2.0751953125,1.89208984375
19.1699999,-0.6703764796257019,-7.041347026824951,-6.892906665802002,-10.5133056640625,-1.6937255859375,1.2054443359375
19.1899999,-0.6847416758537292,-7.005434036254883,-6.926425457000732,-10.772705078125,-3.0059814453125,0.2899169921875
19.2099999,-0.6943184733390808,-6.97430944442749,-6.947973251342773,-13.3056640625,-3.5858154296875,0.9918212890625
19.2299999,-0.7038952708244324,-6.950367450714111,-6.959944248199463,-17.5323486328125,-3.143310546875,3.631591796875
19.249999900000002,-0.7134721279144287,-6.916848659515381,-6.971915245056152,-23.4375,-3.509521484375,4.9285888671875
19.269999900000002,-0.727837324142456,-6.8809356689453125,-6.998251438140869,-28.167724609375,-5.7373046875,3.0364990234375
19.2899999,-0.7350199222564697,-6.835445880889893,-7.048529624938965,-29.266357421875,-5.6915283203125,-0.396728515625
19.3099999,-0.751779317855835,-6.768408298492432,-7.096413612365723,-29.1290283203125,0.6561279296875,-1.708984375
19.3299999,-0.7613561153411865,-6.689399719238281,-7.16584587097168,-28.1982421875,-2.2735595703125,3.0517578125
19.3499999,-0.7757213711738586,-6.603208065032959,-7.223306655883789,-28.5186767578125,-3.2501220703125,3.875732421875
19.3699999,-0.7924807667732239,-6.449979305267334,-7.249642848968506,-34.332275390625,-6.2408447265625,5.7830810546875
19.3899999,-0.8212111592292786,-6.45476770401001,-7.38132381439209,-31.2957763671875,-5.157470703125,3.3111572265625
19.409999900000003,-0.8379706144332886,-6.361393928527832,-7.469909191131592,-47.3175048828125,0.823974609375,1.3885498046875
19.429999900000002,-0.7493851184844971,-6.157886981964111,-7.702147006988525,-63.2476806640625,-3.84521484375,-0.762939453125
19.4499999,-0.7230489253997803,-6.301538944244385,-8.281543731689453,74.8138427734375,-48.553466796875,-4.2572021484375
19.4699999,-0.7134721279144287,-6.763619899749756,-8.087613105773926,272.735595703125,88.9129638671875,184.783935546875
19.4899999,-1.1659762859344482,-7.967903137207031,-7.920019149780273,499.9847412109375,156.0211181640625,277.5726318359375
19.5099999,-1.7166426181793213,-10.283096313476562,-6.1267619132995605,499.9847412109375,96.8780517578125,234.92431640625
19.5299999,-2.5929205417633057,-13.306973457336426,-3.7876269817352295,499.9847412109375,6.89697265625,156.2957763671875
19.5499999,-3.361459255218506,-16.15128517150879,-1.0558429956436157,499.9847412109375,-41.8701171875,40.95458984375
19.5699999,-4.046200752258301,-18.078617095947266,1.290474772453308,455.6121826171875,-155.8685302734375,-69.091796875
19.589999900000002,-4.568136692047119,-18.27733612060547,2.762908697128296,156.5093994140625,-144.4549560546875,-136.260986328125
19.609999900000002,-4.738125324249268,-17.144878387451172,3.2776620388031006,178.7261962890625,-67.5506591796875,-89.78271484375
19.6299999,-4.599261283874512,-15.073893547058105,3.227383852005005,157.6080322265625,-23.1170654296875,-75.9735107421875
19.6499999,-4.086902141571045,-12.947842597961426,3.1914708614349365,15.594482421875,3.11279296875,-107.4371337890625
19.6699999,-3.3207578659057617,-11.240777015686035,3.3901896476745605,-53.22265625,23.0560302734375,-80.99365234375
19.6899999,-2.5522189140319824,-10.005369186401367,3.9911341667175293,-17.5018310546875,43.670654296875,-47.18017578125
19.7099999,-1.941697597503662,-9.263166427612305,4.771644115447998,2.9754638671875,53.03955078125,-61.46240234375
19.7299999,-1.5682021379470825,-8.937555313110352,5.363011837005615,3.662109375,46.9512939453125,-75.927734375
19.749999900000002,-1.3311761617660522,-8.882488250732422,5.6455278396606445,-2.0904541015625,42.41943359375,-60.11962890625
19.769999900000002,-1.259350061416626,-8.801085472106934,5.609614372253418,-36.4837646484375,44.158935546875,-53.741455078125
19.7899999,-1.2210428714752197,-8.60236644744873,5.307945251464844,-17.852783203125,45.196533203125,-72.3114013671875
19.8099999,-1.2210428714752197,-8.135497093200684,4.920084476470947,13.8702392578125,47.4090576171875,-78.7200927734375
19.8299999,-1.2306196689605713,-7.292738437652588,4.343081951141357,-0.8544921875,45.928955078125,-61.2945556640625
19.8499999,-1.2401964664459229,-6.512228488922119,4.077325344085693,-210.9222412109375,36.834716796875,-30.2886962890625
19.8699999,-1.1875240802764893,-5.942408561706543,3.5960910320281982,-158.477783203125,40.0543212890625,17.303466796875
19.8899999,-1.0989385843276978,-5.999869346618652,3.248931646347046,-67.352294921875,38.1011962890625,33.111572265625
19.909999900000003,-0.9193734526634216,-6.593631267547607,2.7246015071868896,-90.4541015625,35.8734130859375,52.2308349609375
19.929999900000002,-0.6416460275650024,-7.592013359069824,2.1954829692840576,-65.826416015625,61.981201171875,53.131103515625
19.9499999,-0.4165911078453064,-8.647856712341309,1.9033904075622559,-66.6656494140625,86.822509765625,32.470703125
19.9699999,-0.33279404044151306,-9.394847869873047,2.032677173614502,-50.811767578125,88.470458984375,-5.8746337890625
19.9899999,-0.36152446269989014,-9.677363395690918,2.5234885215759277,-14.2822265625,62.469482421875,-8.514404296875
20.0099999,-0.33279404044151306,-9.586383819580078,3.0119056701660156,17.39501953125,11.505126953125,17.4560546875
20.0299999,-0.19632454216480255,-9.445125579833984,3.0765492916107178,38.543701171875,-25.8331298828125,39.6270751953125
20.0499999,0.2585737705230713,-9.548076629638672,2.4205379486083984,51.69677734375,-31.3873291015625,40.3594970703125
20.0699999,0.7493851184844971,-9.78989028930664,1.1779472827911377,63.0645751953125,5.6610107421875,9.5367431640625
