# Time (seconds),Accel_X,Accel_Y,Accel_Z,Gyro_X,Gyro_Y,Gyro_Z
0.0099999,-2.056619167327881,9.01895809173584,-1.216254472732544,33.9508056640625,27.9083251953125,29.4036865234375
0.029999900000000003,-2.7293899059295654,8.913613319396973,-0.9002198576927185,89.630126953125,61.8133544921875,41.2445068359375
0.0499999,-3.0142998695373535,9.172186851501465,-0.8212111592292786,125.3814697265625,83.1451416015625,89.202880859375
0.0699999,-2.9712042808532715,9.282320022583008,-1.0342950820922852,110.7330322265625,21.8353271484375,54.26025390625
0.08999990000000001,-2.5043349266052246,9.765948295593262,-1.5658079385757446,46.295166015625,-30.4718017578125,-1.6326904296875
0.10999990000000001,-1.9393033981323242,10.02452278137207,-2.2697031497955322,-1.8310546875,-23.193359375,-28.7322998046875
0.1299999,-1.460463047027588,9.974244117736816,-2.7030537128448486,-33.660888671875,-18.9666748046875,-8.4075927734375
0.14999990000000002,-1.290474772453308,9.708487510681152,-2.8107926845550537,-40.008544921875,-24.5513916015625,20.8282470703125
0.1699999,-1.4173674583435059,9.423578262329102,-2.6647465229034424,20.172119140625,-11.1236572265625,26.2451171875
0.1899999,-1.6831238269805908,9.277531623840332,-2.3702597618103027,42.816162109375,13.885498046875,39.4287109375
0.20999990000000002,-1.8076223134994507,9.320627212524414,-2.1811177730560303,21.1639404296875,14.9688720703125,35.888671875
0.2299999,-1.8076223134994507,9.528923034667969,-2.1475989818573,35.0189208984375,-16.357421875,-2.471923828125
0.2499999,-1.5634137392044067,9.770736694335938,-2.341529369354248,55.755615234375,-31.5399169921875,-37.59765625
0.2699999,-1.278503656387329,9.945513725280762,-2.7533318996429443,19.4549560546875,-23.7884521484375,-32.40966796875
0.28999990000000003,-1.2880805730819702,9.955090522766113,-3.2297780513763428,5.0506591796875,-19.927978515625,-27.7099609375
0.3099999,-1.5442601442337036,9.950302124023438,-3.751713991165161,8.3160400390625,-11.65771484375,-14.1143798828125
0.3299999,-1.965639591217041,9.828198432922363,-4.194641590118408,4.8370361328125,7.080078125,11.0015869140625
0.34999990000000003,-2.4660277366638184,9.701305389404297,-4.5154643058776855,-5.615234375,23.345947265625,34.9884033203125
0.3699999,-2.8395233154296875,9.524134635925293,-4.668693542480469,-9.4757080078125,26.3671875,30.76171875
0.3899999,-3.064578056335449,9.217676162719727,-4.596867084503174,17.7459716796875,17.7459716796875,4.6234130859375
0.40999990000000003,-3.1531636714935303,8.93037223815918,-4.41969633102417,52.1240234375,27.2369384765625,-10.6964111328125
0.4299999,-2.9664158821105957,8.561665534973145,-4.168305397033691,39.093017578125,31.1279296875,-9.8114013671875
0.4499999,-2.7246015071868896,8.243236541748047,-3.9815573692321777,12.4053955078125,21.5911865234375,-13.18359375
0.4699999,-2.5043349266052246,8.066065788269043,-3.931279182434082,-1.678466796875,19.8822021484375,-9.8114013671875
0.4899999,-2.293645143508911,7.989450931549072,-4.02465295791626,1.6021728515625,32.318115234375,11.41357421875
0.5099999,-2.231395959854126,8.130708694458008,-4.235342979431152,17.303466796875,55.328369140625,15.289306640625
0.5299999,-2.185906171798706,8.288725852966309,-4.474762916564941,37.29248046875,70.1446533203125,12.9241943359375
0.5499999,-2.205059766769409,8.362946510314941,-4.6471452713012695,51.4984130859375,76.751708984375,2.9449462890625
0.5699999,-2.319981336593628,8.29830265045166,-4.721365928649902,65.0482177734375,85.6475830078125,-8.1634521484375
0.5899998999999999,-2.2888567447662354,8.042123794555664,-4.766855716705322,58.7921142578125,102.081298828125,12.1612548828125
0.6099998999999999,-2.1332337856292725,7.620744228363037,-4.742913722991943,14.4500732421875,110.931396484375,18.0206298828125
0.6299999,-1.7980455160140991,7.2137298583984375,-4.692635536193848,-59.4329833984375,83.06884765625,3.875732421875
0.6499999,-1.5610195398330688,6.904877662658691,-4.565742492675781,-102.813720703125,48.2177734375,-15.2435302734375
0.6699999,-1.4963760375976562,6.8593878746032715,-4.383783340454102,-68.1915283203125,48.3856201171875,-27.801513671875
0.6899999,-1.6041151285171509,7.053318023681641,-4.223371982574463,-14.4805908203125,64.6514892578125,-32.623291015625
0.7099999,-1.7286136150360107,7.390900611877441,-4.120420932769775,-13.0767822265625,68.42041015625,-47.119140625
0.7299998999999999,-1.7812861204147339,7.706935405731201,-4.062960147857666,-9.002685546875,71.5484619140625,-54.26025390625
0.7499998999999999,-1.8555063009262085,7.989450931549072,-4.060565948486328,12.786865234375,72.6165771484375,-63.079833984375
0.7699999,-2.0183119773864746,8.212111473083496,-4.060565948486328,21.91162109375,63.507080078125,-72.0062255859375
0.7899999,-2.252943754196167,8.322244644165039,-4.0964789390563965,25.20751953125,59.8907470703125,-77.392578125
0.8099999,-2.499546527862549,8.35336971282959,-4.194641590118408,32.2723388671875,63.7969970703125,-90.75927734375
0.8299999,-2.715024709701538,8.219294548034668,-4.314351558685303,18.7835693359375,69.732666015625,-92.4224853515625
0.8499998999999999,-2.8850131034851074,8.054094314575195,-4.469974517822266,-13.12255859375,86.8377685546875,-70.770263671875
0.8699998999999999,-3.0334534645080566,7.888894557952881,-4.618414878845215,-17.7764892578125,112.335205078125,-49.7589111328125
0.8899999,-3.19865345954895,7.771578788757324,-4.728548526763916,-14.4195556640625,126.190185546875,-46.9512939453125
0.9099999,-3.3063924312591553,7.711723804473877,-4.862623691558838,-26.0162353515625,127.9449462890625,-57.3883056640625
0.9299999,-3.4141316413879395,7.726089000701904,-5.011064052581787,-8.4686279296875,115.05126953125,-65.887451171875
0.9499999,-3.44765043258667,7.711723804473877,-5.190629482269287,4.364013671875,104.9652099609375,-74.3255615234375
0.9699998999999999,-3.4189200401306152,7.690176010131836,-5.372588634490967,1.0223388671875,101.043701171875,-77.423095703125
0.9899998999999999,-3.313575267791748,7.553706169128418,-5.501875400543213,-5.18798828125,92.1630859375,-82.5042724609375
1.0099999,-3.117250680923462,7.4555439949035645,-5.612008571624756,-13.031005859375,78.7506103515625,-97.3968505859375
1.0299999,-2.9281086921691895,7.4555439949035645,-5.7556610107421875,-31.1737060546875,79.071044921875,-104.8431396484375
1.0499999,-2.6862943172454834,7.5417351722717285,-5.884947776794434,-32.4554443359375,103.1341552734375,-91.6290283203125
1.0699999,-2.535459518432617,7.63989782333374,-5.975927352905273,-21.3623046875,119.2474365234375,-75.7904052734375
1.0899999,-2.516305923461914,7.6997528076171875,-5.992686748504639,-4.486083984375,96.893310546875,-67.230224609375
1.1099999,-2.6168625354766846,7.795520782470703,-5.985504150390625,-0.1068115234375,63.140869140625,-56.09130859375
1.1299999,-2.7964274883270264,7.939172744750977,-6.016628742218018,-0.18310546875,61.1724853515625,-43.0450439453125
1.1499999,-2.9520506858825684,8.161833763122559,-6.035782337188721,-10.25390625,70.831298828125,-51.849365234375
1.1699998999999999,-3.0573954582214355,8.276755332946777,-6.011840343475342,-28.5491943359375,69.0460205078125,-73.5015869140625
1.1899998999999999,-3.160346269607544,8.29590892791748,-5.947196960449219,-38.055419921875,72.4029541015625,-71.533203125
1.2099999,-3.2752678394317627,8.283937454223633,-5.851428985595703,-42.4041748046875,65.12451171875,-52.7191162109375
1.2299999,-3.3279404640197754,8.283937454223633,-5.853823184967041,-30.548095703125,51.7425537109375,-34.97314453125
1.2499999,-3.2968156337738037,8.29590892791748,-5.880159378051758,-30.029296875,62.5,-24.7344970703125
1.2699999,-3.177105665206909,8.214506149291992,-5.846640586853027,-48.4161376953125,78.1097412109375,-14.7247314453125
1.2899999,-3.0406360626220703,8.056488990783691,-5.738901615142822,-45.5780029296875,70.73974609375,-12.3443603515625
1.3099999,-2.9305028915405273,7.888894557952881,-5.547365188598633,-22.2015380859375,57.0831298828125,-18.2037353515625
1.3299999,-2.8874073028564453,7.771578788757324,-5.324704647064209,2.38037109375,58.135986328125,-11.5203857421875
1.3499999,-2.8778305053710938,7.769184589385986,-5.116408824920654,-4.180908203125,63.995361328125,4.7454833984375
1.3699999,-2.8443117141723633,7.797914981842041,-4.9368438720703125,-22.2930908203125,48.797607421875,0.6103515625
1.3899999,-2.8155810832977295,7.833827972412109,-4.821922302246094,-13.0615234375,31.31103515625,-10.80322265625
1.4099999,-2.7054479122161865,7.826645374298096,-4.778826713562012,-15.7470703125,31.219482421875,-1.64794921875
1.4299998999999999,-2.5905263423919678,7.845798969268799,-4.876988887786865,-24.871826171875,39.5965576171875,2.7618408203125
1.4499999,-2.5115175247192383,7.85537576675415,-4.963180065155029,-32.77587890625,37.506103515625,-1.2359619140625
1.4699999,-2.5115175247192383,7.943961143493652,-5.073313236236572,-13.9923095703125,30.1361083984375,-8.8348388671875
1.4899999,-2.561795711517334,7.99184513092041,-5.094861030578613,-11.016845703125,21.8048095703125,-17.5018310546875
1.5099999,-2.5306711196899414,8.039729118347168,-5.0469770431518555,-13.61083984375,26.7486572265625,-18.6004638671875
1.5299999,-2.4181437492370605,7.931990146636963,-4.960785865783691,2.899169921875,35.1715087890625,-21.3470458984375
1.5499999,-2.319981336593628,7.762001991271973,-4.807557106018066,10.9710693359375,37.4603271484375,-12.7410888671875
1.5699999,-2.403778553009033,7.668628215789795,-4.6950297355651855,12.237548828125,33.538818359375,1.0528564453125
1.5899999,-2.52109432220459,7.534552574157715,-4.570530891418457,2.9144287109375,10.772705078125,-10.345458984375
1.6099999,-2.650381326675415,7.493851184844971,-4.4723687171936035,-26.4129638671875,-10.101318359375,-10.6964111328125
1.6299999,-2.734178304672241,7.592013359069824,-4.484339714050293,-9.09423828125,-12.3138427734375,-5.279541015625
1.6499999,-2.6815059185028076,7.608773231506348,-4.467580318450928,11.383056640625,-12.7716064453125,-18.6767578125
1.6699999,-2.7054479122161865,7.735665798187256,-4.438849925994873,-1.6632080078125,-6.3323974609375,-11.90185546875
1.6899998999999999,-2.8131868839263916,7.848193168640137,-4.335899353027344,-11.383056640625,-6.3934326171875,1.678466796875
1.7099999,-2.935291290283203,7.982268333435059,-4.163516521453857,-4.8370361328125,-13.73291015625,2.105712890625
1.7299999,-3.043030261993408,8.152256965637207,-4.017470359802246,-8.1634521484375,-18.035888671875,7.87353515625
1.7499999,-3.1220390796661377,8.377311706542969,-3.885789394378662,-14.2059326171875,-21.087646484375,20.416259765625
1.7699999,-3.136404275894165,8.549694061279297,-3.773261785507202,-12.6953125,-31.4483642578125,27.4810791015625
1.7899999,-3.1747114658355713,8.686163902282715,-3.6559460163116455,-4.486083984375,-44.2047119140625,21.54541015625
1.8099999,-3.246537446975708,8.815450668334961,-3.5625722408294678,2.0599365234375,-55.755615234375,9.124755859375
1.8299999,-3.2369606494903564,9.004592895507812,-3.5482068061828613,-8.3465576171875,-66.1163330078125,-1.89208984375
1.8499999,-3.2082302570343018,9.186552047729492,-3.5865142345428467,-4.94384765625,-72.7996826171875,-2.13623046875
1.8699999,-3.0621838569641113,9.334992408752441,-3.627215623855591,8.0108642578125,-59.1583251953125,-11.53564453125
1.8899999,-2.959233283996582,9.440337181091309,-3.627215623855591,8.6669921875,-42.3431396484375,-18.2647705078125
1.9099999,-2.9688100814819336,9.409213066101074,-3.552995204925537,11.3983154296875,-41.9464111328125,-14.95361328125
1.9299998999999999,-3.0573954582214355,9.306262016296387,-3.4548330307006836,15.4266357421875,-50.872802734375,-8.4991455078125
1.9499999,-3.1483752727508545,9.0859956741333,-3.332728862762451,12.87841796875,-52.9327392578125,-0.30517578125
1.9699999,-3.0621838569641113,8.722076416015625,-3.2130186557769775,19.71435546875,-42.78564453125,22.308349609375
1.9899999,-2.8395233154296875,8.33182144165039,-3.0861260890960693,31.646728515625,-24.688720703125,27.2369384765625
2.0099999,-2.5737667083740234,8.01339340209961,-3.0406360626220703,23.37646484375,-9.9334716796875,5.4931640625
2.0299999,-2.3918075561523438,7.872135162353516,-3.0621838569641113,3.3721923828125,-13.3514404296875,-0.7171630859375
2.0499999,-2.3511061668395996,7.975085735321045,-3.1651346683502197,7.7972412109375,-14.46533203125,4.2266845703125
2.0699999,-2.4875755310058594,8.17380428314209,-3.2800562381744385,20.6756591796875,-14.6026611328125,4.7454833984375
2.0899999,-2.7269957065582275,8.346187591552734,-3.354276657104492,14.129638671875,-21.6217041015625,11.7340087890625
2.1099999,-2.8586769104003906,8.520963668823242,-3.4141316413879395,-7.9345703125,-39.1082763671875,38.0859375
2.1299999,-2.875436305999756,8.753201484680176,-3.531447410583496,-20.843505859375,-53.2379150390625,60.302734375
2.1499999,-2.652775526046753,8.995016098022461,-3.5960910320281982,-23.895263671875,-60.3485107421875,69.6868896484375
2.1699999,-2.188300371170044,9.272743225097656,-3.6966474056243896,11.1846923828125,58.59375,47.698974609375
2.1899999,-1.5753847360610962,9.315838813781738,-3.4308910369873047,7.659912109375,160.186767578125,32.1502685546875
2.2099999,-1.0582371950149536,9.184157371520996,-3.2130186557769775,-46.417236328125,-30.1055908203125,31.6619873046875
2.2299999,-0.6272808313369751,9.028534889221191,-2.8443117141723633,-43.2586669921875,-19.866943359375,11.65771484375
2.2499999,-0.507570743560791,8.956708908081055,-2.9305028915405273,-36.1785888671875,-13.7481689453125,10.6048583984375
2.2699999,-0.48602294921875,9.030928611755371,-2.9233202934265137,-98.907470703125,-3.4332275390625,9.307861328125
2.2899999,-0.7493851184844971,9.275136947631836,-3.0382418632507324,-153.62548828125,-27.0233154296875,35.5987548828125
2.3099999,-0.9433154463768005,9.514557838439941,-2.741360902786255,-93.414306640625,-24.7039794921875,14.5721435546875
2.3299999,-1.259350061416626,9.804255485534668,-2.315192937850952,-50.4608154296875,-33.233642578125,11.993408203125
2.3499999,-1.434126853942871,9.897629737854004,-1.6184803247451782,-33.9202880859375,-35.0494384765625,46.844482421875
2.3699999,-1.522712230682373,9.80904483795166,-0.9385270476341248,26.9927978515625,-34.1949462890625,40.802001953125
2.3899999,-1.5945383310317993,9.569623947143555,-0.6105214357376099,110.7940673828125,-53.7872314453125,10.589599609375
2.4099999,-1.6352397203445435,9.373299598693848,-0.6057330369949341,111.8621826171875,-56.5032958984375,13.6871337890625
2.4299999,-1.7812861204147339,9.23443603515625,-1.0462661981582642,50.445556640625,-39.215087890625,45.379638671875
2.4499999,-1.9488801956176758,9.153033256530762,-1.8698714971542358,38.787841796875,-37.5823974609375,53.375244140625
2.4699999,-2.0183119773864746,9.078812599182129,-2.537853717803955,4.425048828125,-29.7393798828125,46.6766357421875
2.4899999,-1.9967641830444336,8.863334655761719,-2.9472622871398926,-26.9775390625,-16.05224609375,60.699462890625
2.5099999,-1.889025092124939,8.786720275878906,-3.1747114658355713,-11.6424560546875,-11.9476318359375,63.4918212890625
2.5299999,-1.699883222579956,8.710105895996094,-3.2154128551483154,14.312744140625,-12.2222900390625,44.1436767578125
2.5499999,-1.5179238319396973,8.738836288452148,-3.2848446369171143,32.196044921875,-8.514404296875,8.5296630859375
2.5699999,-1.3479355573654175,8.585607528686523,-3.3686418533325195,1.312255859375,-15.533447265625,9.4757080078125
2.5899999,-1.1755530834197998,8.508993148803711,-3.450044631958008,-29.388427734375,-13.00048828125,15.0299072265625
2.6099999,-1.0606313943862915,8.437167167663574,-3.4572272300720215,-28.2135009765625,-11.810302734375,9.4146728515625
2.6299999,-1.015141487121582,8.504204750061035,-3.5051112174987793,-11.9171142578125,-16.1590576171875,12.5732421875
2.6499999,-1.036689281463623,8.767566680908203,-3.555389642715454,5.3558349609375,-5.8135986328125,0.2288818359375
2.6699999,-1.1468225717544556,8.98543930053711,-3.670311212539673,13.2598876953125,6.256103515625,-13.6871337890625
2.6899999,-1.3024457693099976,9.150638580322266,-3.8115692138671875,2.838134765625,16.632080078125,-16.54052734375
2.7099999,-1.4077905416488647,9.346963882446289,-3.8163576126098633,-40.1458740234375,22.3541259765625,-5.706787109375
2.7299999,-1.5083470344543457,9.490615844726562,-3.7924153804779053,-57.281494140625,22.613525390625,10.040283203125
2.7499999,-1.556231141090393,9.658209800720215,-3.7253777980804443,-37.994384765625,19.59228515625,15.0299072265625
2.7699999,-1.556231141090393,9.780313491821289,-3.646369218826294,-19.927978515625,21.97265625,5.3253173828125
2.7899999,-1.4676456451416016,9.821015357971191,-3.4141316413879395,-4.6234130859375,29.7698974609375,-7.1563720703125
2.8099999,-1.3407529592514038,9.715670585632324,-3.19865345954895,12.4359130859375,13.9617919921875,-4.8828125
2.8299999,-1.1779472827911377,9.588777542114258,-3.0358476638793945,17.9290771484375,1.89208984375,-5.92041015625
2.8499999,-1.0558429956436157,9.32541561126709,-2.9712042808532715,-17.63916015625,9.8876953125,0.762939453125
2.8699999,-1.0055646896362305,9.100360870361328,-3.1100680828094482,-41.6412353515625,18.646240234375,2.25830078125
2.8899999,-0.9768342971801758,8.949525833129883,-3.136404275894165,-38.2080078125,24.261474609375,-6.3629150390625
2.9099999,-0.9217676520347595,8.951920509338379,-2.8802247047424316,-34.1796875,13.7786865234375,0.6866455078125
2.9299999,-0.871489405632019,9.155426979064941,-2.4636335372924805,-3.143310546875,-13.031005859375,2.9754638671875
2.9499999,-0.8547300100326538,9.354146003723145,-2.0207061767578125,24.871826171875,-27.5421142578125,2.0751953125
2.9699999,-0.9193734526634216,9.519346237182617,-1.886630892753601,31.67724609375,-27.7862548828125,-1.40380859375
2.9899999,-1.0438719987869263,9.636661529541016,-2.123656988143921,11.3983154296875,-16.754150390625,-2.410888671875
3.0099999,-1.161187767982483,9.667786598205566,-2.434903144836426,-30.3497314453125,-4.1656494140625,8.575439453125
3.0299999,-1.2090718746185303,9.691728591918945,-2.738966703414917,-17.7001953125,-8.819580078125,11.016845703125
3.0499999,-1.170764684677124,9.6989107131958,-2.8347349166870117,9.4757080078125,-17.39501953125,6.072998046875
3.0699999,-1.0845733880996704,9.59596061706543,-2.8443117141723633,15.6097412109375,-19.1497802734375,7.5531005859375
3.0899999,-0.9696516990661621,9.421183586120605,-2.8634653091430664,2.471923828125,-12.3138427734375,6.7138671875
3.1099999,-0.8643068075180054,9.301473617553711,-2.8874073028564453,-5.767822265625,-4.638671875,-0.4119873046875
3.1299999,-0.7852981686592102,9.23682975769043,-2.9328970909118652,10.0555419921875,-7.537841796875,-1.4190673828125
3.1499999,-0.7206547260284424,9.318233489990234,-2.9089550971984863,21.8505859375,-12.3291015625,3.90625
3.1699999,-0.6775590777397156,9.41639518737793,-2.8874073028564453,19.1650390625,-12.39013671875,8.2550048828125
3.1899999,-0.6560112833976746,9.437943458557129,-2.8874073028564453,11.932373046875,-12.603759765625,10.4522705078125
3.2099999,-0.629675030708313,9.435548782348633,-2.918531894683838,-1.2664794921875,-13.214111328125,10.772705078125
3.2299999,-0.6105214357376099,9.397241592407227,-2.9520506858825684,-1.9989013671875,-13.24462890625,11.749267578125
3.2499999,-0.5889736413955688,9.394847869873047,-2.980781078338623,-8.636474609375,-13.5498046875,15.07568359375
3.2699999,-0.5889736413955688,9.433155059814453,-2.9927520751953125,-18.4173583984375,-15.3350830078125,17.6544189453125
3.2899999,-0.5913678407669067,9.47146224975586,-2.937685489654541,-15.9149169921875,-18.3868408203125,20.6451416015625
3.3099999,-0.5889736413955688,9.466673851013184,-2.892195701599121,-5.4779052734375,-21.514892578125,20.5230712890625
3.3299999000000002,-0.5554547905921936,9.495404243469238,-2.782062292098999,-8.48388671875,-19.71435546875,18.61572265625
3.3499999,-0.5147533416748047,9.50737476348877,-2.693476915359497,-12.39013671875,-20.4010009765625,21.2860107421875
3.3699999,-0.45010992884635925,9.567230224609375,-2.612074136734009,-7.7056884765625,-22.7203369140625,23.8494873046875
3.3899999,-0.38067805767059326,9.610325813293457,-2.5785553455352783,-4.5623779296875,-22.3541259765625,25.360107421875
3.4099999,-0.28969839215278625,9.586383819580078,-2.5713725090026855,-6.6375732421875,-18.24951171875,26.3519287109375
3.4299999,-0.19153612852096558,9.423578262329102,-2.607285737991333,-12.87841796875,-16.265869140625,27.4200439453125
3.4499999,-0.10055647045373917,9.138668060302734,-2.6216509342193604,-14.4805908203125,-16.7694091796875,21.54541015625
3.4699999,-0.0454898327589035,8.746018409729004,-2.5737667083740234,-15.31982421875,-19.4091796875,12.603759765625
3.4899999,-0.06464344263076782,8.523358345031738,-2.626439332962036,-4.8980712890625,-26.7181396484375,-1.52587890625
3.5099999,-0.16519992053508759,8.453926086425781,-2.7317841053009033,0.2899169921875,-27.008056640625,-4.5928955078125
3.5299999,-0.3256114423274994,8.678980827331543,-2.985569477081299,1.4801025390625,-17.9595947265625,-4.2877197265625
3.5499999,-0.4836287498474121,8.99740982055664,-3.19865345954895,-2.655029296875,-6.195068359375,-3.5400390625
3.5699999,-0.5961562395095825,9.287108421325684,-3.308786630630493,-11.016845703125,-0.9765625,-1.5106201171875
3.5899999,-0.6177040338516235,9.44752025604248,-3.136404275894165,-19.9127197265625,0.396728515625,-0.8697509765625
3.6099999,-0.5746083855628967,9.473855972290039,-2.7461493015289307,-21.759033203125,-0.213623046875,1.40380859375
3.6299999,-0.5051765441894531,9.452308654785156,-2.183511972427368,-14.190673828125,-5.4168701171875,1.4190673828125
3.6499999,-0.4668693244457245,9.351752281188965,-1.6519991159439087,-12.176513671875,-13.7786865234375,2.6702880859375
3.6699999,-0.48602294921875,9.224859237670898,-1.2856862545013428,-13.0767822265625,-16.998291015625,0.06103515625
3.6899999,-0.5386953949928284,9.042900085449219,-1.161187767982483,-20.9503173828125,-11.810302734375,-2.349853515625
3.7099999,-0.5841852426528931,8.923190116882324,-1.194706678390503,-31.8756103515625,-5.950927734375,-5.7830810546875
3.7299999,-0.5913678407669067,8.789113998413086,-1.256955862045288,-32.9437255859375,-6.4697265625,-4.669189453125
3.7499999,-0.5339069962501526,8.779537200927734,-1.2617442607879639,-32.89794921875,-11.0931396484375,-7.049560546875
3.7699999,-0.4381389021873474,8.753201484680176,-1.1755530834197998,-31.8450927734375,-10.9100341796875,-10.43701171875
3.7899999,-0.2968810200691223,8.83939266204834,-1.0031704902648926,-30.1971435546875,-6.4239501953125,-14.7552490234375
3.8099999,-0.15083470940589905,8.944737434387207,-0.7230489253997803,-24.96337890625,-7.8125,-15.899658203125
3.8299999000000002,-0.033518824726343155,9.083600997924805,-0.4620809257030487,-16.265869140625,-17.2576904296875,-14.617919921875
3.8499999,0.011971008032560349,9.232041358947754,-0.23942017555236816,-11.322021484375,-22.7813720703125,-15.7928466796875
3.8699999,-0.035913024097681046,9.327810287475586,-0.19632454216480255,-9.8876953125,-20.2484130859375,-14.923095703125
3.8899999,-0.18914192914962769,9.344569206237793,-0.3423708379268646,-6.4239501953125,-20.477294921875,-13.0157470703125
3.9099999,-0.3758896589279175,9.47146224975586,-0.5123591423034668,-14.5416259765625,-19.8974609375,-15.7928466796875
3.9299999,-0.5817909836769104,9.706093788146973,-0.6272808313369751,-21.5301513671875,-22.003173828125,-18.9056396484375
3.9499999,-0.7852981686592102,10.11550235748291,-0.7781155705451965,-0.457763671875,-30.76171875,-15.960693359375
3.9699999,-0.9481038451194763,10.57040023803711,-0.933738648891449,13.824462890625,-25.1312255859375,-12.0086669921875
3.9899999,-1.0462661981582642,10.81460952758789,-1.0965443849563599,1.983642578125,-8.514404296875,-1.556396484375
4.0099999,-1.0462661981582642,10.6925048828125,-1.1683704853057861,-14.2669677734375,-3.3721923828125,4.7454833984375
4.029999900000001,-0.9217676520347595,10.287884712219238,-1.0079588890075684,-16.4031982421875,-8.60595703125,-0.67138671875
4.0499999,-0.7422025203704834,9.780313491821289,-0.7422025203704834,-0.8087158203125,-18.85986328125,-7.26318359375
4.069999900000001,-0.5482721924781799,9.39245319366455,-0.5147533416748047,14.2059326171875,-21.1639404296875,-10.19287109375
4.0899999000000005,-0.38546648621559143,9.23682975769043,-0.4213795065879822,6.28662109375,-13.8092041015625,-9.857177734375
4.1099999,-0.2322375625371933,9.275136947631836,-0.2585737705230713,-13.9923095703125,-6.0882568359375,-5.37109375
4.1299999000000005,-0.15562310814857483,9.437943458557129,-0.11252748221158981,-11.6729736328125,-20.416259765625,-2.3040771484375
4.1499999,-0.20111294090747833,9.691728591918945,-0.019153613597154617,-3.5858154296875,-36.468505859375,0.6256103515625
4.1699999000000005,-0.40222588181495667,9.971850395202637,-0.13168109953403473,1.556396484375,-20.355224609375,-6.5765380859375
4.1899999,-0.6943184733390808,10.251971244812012,-0.45250412821769714,20.111083984375,6.866455078125,-22.5372314453125
4.209999900000001,-0.9552865028381348,10.414777755737305,-0.8667010068893433,22.39990234375,5.9051513671875,-14.16015625
4.2299999,-1.05105459690094,10.426748275756836,-1.1420341730117798,-2.25830078125,-3.173828125,2.105712890625
4.249999900000001,-0.9696516990661621,10.216058731079102,-1.2042834758758545,-31.1126708984375,-4.69970703125,14.83154296875
4.2699999,-0.7948749661445618,9.835380554199219,-1.2018892765045166,-21.1639404296875,-2.74658203125,11.260986328125
4.289999900000001,-0.6009446382522583,9.476250648498535,-1.1875240802764893,9.8419189453125,-2.1820068359375,-6.8817138671875
4.3099999,-0.45489832758903503,9.210494041442871,-1.1563993692398071,21.759033203125,0.8697509765625,-11.4288330078125
4.329999900000001,-0.35673606395721436,9.162610054016113,-1.0558429956436157,4.6234130859375,7.38525390625,-1.6326904296875
4.3499999,-0.3495534360408783,9.30386734008789,-0.9744400978088379,4.3487548828125,5.4779052734375,6.28662109375
4.369999900000001,-0.4165911078453064,9.581595420837402,-0.6991068720817566,6.378173828125,3.41796875,10.9100341796875
4.3899999,-0.524330198764801,9.904812812805176,-0.4429273009300232,7.568359375,-1.5716552734375,9.1094970703125
4.409999900000001,-0.6751648783683777,10.1753568649292,-0.3998316824436188,13.4124755859375,-16.11328125,19.3634033203125
4.4299999,-0.7565677165985107,10.323798179626465,-0.38546648621559143,-6.0882568359375,-7.354736328125,28.2745361328125
4.449999900000001,-0.7350199222564697,10.290278434753418,-0.5578489899635315,-2.0599365234375,3.90625,22.9644775390625
4.4699999,-0.6153098344802856,10.113107681274414,-0.6224924325942993,-0.0152587890625,4.5013427734375,19.6685791015625
4.489999900000001,-0.43335050344467163,9.837775230407715,-0.629675030708313,9.7198486328125,0.213623046875,17.2271728515625
4.5099999,-0.2561795711517334,9.57201862335205,-0.6009446382522583,10.7879638671875,0.6256103515625,12.9547119140625
4.529999900000001,-0.1604115068912506,9.313444137573242,-0.6512228846549988,2.777099609375,10.650634765625,8.3160400390625
4.5499999,-0.11252748221158981,9.248801231384277,-0.7158663272857666,7.7972412109375,22.8118896484375,-5.5389404296875
4.569999900000001,-0.09816227108240128,9.277531623840332,-0.6392518281936646,0.579833984375,22.8424072265625,-0.9307861328125
4.5899999000000005,-0.10534487664699554,9.423578262329102,-0.5267243981361389,9.94873046875,7.415771484375,8.819580078125
4.609999900000001,-0.10295066982507706,9.591172218322754,-0.3878606855869293,32.7301025390625,0.274658203125,4.9285888671875
4.6299999000000005,-0.12449848651885986,9.72285270690918,-0.363918662071228,25.1312255859375,2.7618408203125,6.3629150390625
4.6499999,-0.1628057211637497,9.813833236694336,-0.4620809257030487,12.6190185546875,1.9989013671875,13.36669921875
4.6699999000000005,-0.17238251864910126,9.888052940368652,-0.6057330369949341,22.369384765625,-2.105712890625,15.5181884765625
4.6899999,-0.15801730751991272,9.904812812805176,-0.6919242739677429,34.088134765625,-6.65283203125,16.387939453125
4.709999900000001,-0.1173158809542656,9.895236015319824,-0.7972691655158997,53.6346435546875,-11.8255615234375,12.5732421875
4.7299999,-0.06464344263076782,9.794678688049316,-0.9888052940368652,84.4268798828125,-12.542724609375,6.8511962890625
4.749999900000001,-0.031124621629714966,9.62947940826416,-1.3862427473068237,94.3603515625,-7.720947265625,6.7138671875
4.7699999,-0.011971008032560349,9.385271072387695,-1.8842366933822632,57.8765869140625,2.4871826171875,15.0299072265625
4.789999900000001,0,9.035717010498047,-2.4181437492370605,18.9666748046875,7.38525390625,23.8037109375
4.8099999,0.026336219161748886,8.65982723236084,-2.8586769104003906,1.8157958984375,6.4697265625,19.073486328125
4.829999900000001,0.090979665517807,8.329427719116211,-3.045424461364746,-5.6610107421875,7.99560546875,12.4969482421875
4.8499999,0.1628057211637497,8.106766700744629,-3.1268274784088135,3.0670166015625,3.6773681640625,6.9580078125
4.869999900000001,0.23702596127986908,8.02536392211914,-3.093308687210083,11.505126953125,1.4495849609375,0.5035400390625
4.8899999,0.2777273952960968,8.066065788269043,-3.0406360626220703,4.4403076171875,3.204345703125,-0.3204345703125
4.909999900000001,0.26575639843940735,8.164227485656738,-2.9951462745666504,2.0751953125,5.8135986328125,-1.068115234375
4.9299999,0.24660277366638184,8.303091049194336,-2.956839084625244,-3.5858154296875,6.53076171875,6.9732666015625
4.949999900000001,0.181959331035614,8.482656478881836,-2.959233283996582,-0.8087158203125,5.7220458984375,-1.068115234375
4.9699999,0.13407529890537262,8.705317497253418,-2.9520506858825684,13.85498046875,13.671875,-16.9677734375
4.989999900000001,0.10295066982507706,8.990227699279785,-2.913743495941162,15.44189453125,16.448974609375,-17.3797607421875
5.0099999,0.08858546614646912,9.30386734008789,-2.8419175148010254,13.1683349609375,12.847900390625,-17.1356201171875
5.029999900000001,0.07661445438861847,9.548076629638672,-2.786850690841675,4.0435791015625,3.8299560546875,-7.6141357421875
5.0499999,0.06464344263076782,9.780313491821289,-2.7940332889556885,-4.5166015625,1.52587890625,-6.8359375
5.069999900000001,0.0071826050989329815,9.876082420349121,-2.942473888397217,7.9345703125,8.7432861328125,-15.3961181640625
5.0899999000000005,-0.043095629662275314,9.897629737854004,-3.136404275894165,7.0037841796875,16.0980224609375,-12.4664306640625
5.109999900000001,-0.06464344263076782,9.840168952941895,-3.2369606494903564,-3.1890869140625,22.0489501953125,-11.8865966796875
5.1299999000000005,-0.0454898327589035,9.653421401977539,-3.2417490482330322,-7.38525390625,20.751953125,-13.8702392578125
5.1499999,-0.019153613597154617,9.476250648498535,-3.1196448802948,-20.99609375,17.425537109375,-14.2974853515625
5.1699999000000005,-0.011971008032560349,9.339780807495117,-2.940079689025879,-17.669677734375,18.4326171875,-12.7410888671875
5.1899999,-0.08619125932455063,9.370905876159668,-2.7964274883270264,-5.7830810546875,14.801025390625,-9.6893310546875
5.209999900000001,-0.21787235140800476,9.478644371032715,-2.652775526046753,-5.645751953125,10.650634765625,-2.6702880859375
5.2299999,-0.3926490843296051,9.607931137084961,-2.583343744277954,0.091552734375,6.866455078125,1.251220703125
5.249999900000001,-0.5626373887062073,9.679757118225098,-2.5450363159179688,1.4801025390625,7.9345703125,1.068115234375
5.2699999,-0.6823474764823914,9.59596061706543,-2.492363929748535,-9.5672607421875,10.833740234375,3.0975341796875
5.289999900000001,-0.7613561153411865,9.440337181091309,-2.477998733520508,-13.916015625,6.2713623046875,0.2593994140625
5.3099999,-0.7996633648872375,9.215282440185547,-2.4013843536376953,-16.1895751953125,5.5999755859375,-3.2501220703125
5.329999900000001,-0.8379706144332886,9.062053680419922,-2.360682964324951,-13.824462890625,5.37109375,-6.561279296875
5.3499999,-0.9050082564353943,8.987833023071289,-2.341529369354248,-1.922607421875,6.8359375,-6.9732666015625
5.369999900000001,-0.9385270476341248,9.071630477905273,-2.2625205516815186,1.6021728515625,13.885498046875,-8.8958740234375
5.3899999,-0.9600749015808105,9.217676162719727,-2.166752576828003,-9.4451904296875,15.7318115234375,-5.18798828125
5.409999900000001,-0.9385270476341248,9.387664794921875,-2.054224967956543,-15.167236328125,12.63427734375,1.8768310546875
5.4299999,-0.8858546018600464,9.528923034667969,-1.9608511924743652,-15.7470703125,14.5111083984375,6.2408447265625
5.449999900000001,-0.8140285611152649,9.560047149658203,-1.9584569931030273,-13.9617919921875,15.4876708984375,5.950927734375
5.4699999,-0.7182605266571045,9.528923034667969,-1.9560627937316895,-30.0750732421875,19.134521484375,3.631591796875
5.489999900000001,-0.6153098344802856,9.442731857299805,-1.9273324012756348,-39.337158203125,17.486572265625,2.4871826171875
5.5099999,-0.5147533416748047,9.378087997436523,-1.8483237028121948,-22.15576171875,9.7808837890625,0.67138671875
5.529999900000001,-0.42377370595932007,9.397241592407227,-1.678335428237915,-8.36181640625,6.2713623046875,-0.6561279296875
5.5499999,-0.33997663855552673,9.519346237182617,-1.5275006294250488,4.486083984375,0.701904296875,-0.1983642578125
5.569999900000001,-0.2777273952960968,9.696516990661621,-1.4293384552001953,11.3525390625,-3.936767578125,3.875732421875
5.5899999000000005,-0.22744916379451752,9.823410034179688,-1.455674648284912,17.1966552734375,1.1749267578125,0.946044921875
5.609999900000001,-0.1867477297782898,9.90241813659668,-1.5298948287963867,8.7127685546875,8.23974609375,-15.9454345703125
5.6299999000000005,-0.12689268589019775,9.895236015319824,-1.50355863571167,-8.6212158203125,6.195068359375,-15.0146484375
5.6499999,-0.12210428714752197,9.81143856048584,-1.53707754611969,6.591796875,-11.962890625,-11.7034912109375
5.6699999000000005,-0.10773907601833344,9.775525093078613,-1.558625340461731,25.5126953125,-14.70947265625,-19.2108154296875
5.6899999,-0.14844051003456116,9.682151794433594,-1.7166426181793213,1.007080078125,-4.4708251953125,-2.0904541015625
5.709999900000001,-0.22505496442317963,9.545681953430176,-2.0614075660705566,-7.843017578125,2.960205078125,11.29150390625
5.7299999,-0.2513911724090576,9.425971984863281,-2.319981336593628,-2.4566650390625,16.66259765625,-4.8828125
5.749999900000001,-0.2561795711517334,9.258378028869629,-2.3942017555236816,16.7083740234375,25.0244140625,-21.820068359375
5.7699999,-0.24899697303771973,9.215282440185547,-2.410961151123047,36.8499755859375,17.1356201171875,-26.6265869140625
5.789999900000001,-0.2585737705230713,9.279925346374512,-2.4899697303771973,30.7464599609375,1.922607421875,-15.7012939453125
5.8099999,-0.2968810200691223,9.409213066101074,-2.535459518432617,-9.82666015625,9.033203125,8.087158203125
5.829999900000001,-0.35434186458587646,9.509769439697266,-2.671929121017456,-17.822265625,13.519287109375,10.345458984375
5.8499999,-0.4213795065879822,9.500192642211914,-2.736572504043579,-12.9241943359375,2.9754638671875,8.72802734375
5.869999900000001,-0.45250412821769714,9.363722801208496,-2.5785553455352783,-20.7061767578125,3.7384033203125,4.9285888671875
5.8899999,-0.45010992884635925,9.349357604980469,-2.3104045391082764,-27.03857421875,2.5787353515625,-4.486083984375
5.909999900000001,-0.44532153010368347,9.313444137573242,-2.03507137298584,-23.3154296875,-10.4827880859375,1.983642578125
5.9299999,-0.4189853072166443,9.315838813781738,-1.6974890232086182,-12.3443603515625,-12.8173828125,2.8533935546875
5.949999900000001,-0.3974374830722809,9.406818389892578,-1.4867992401123047,-2.01416015625,-9.82666015625,-14.892578125
5.9699999,-0.4429273009300232,9.296685218811035,-1.4077905416488647,8.9569091796875,-14.129638671875,-14.4500732421875
5.989999900000001,-0.5099649429321289,9.193734169006348,-1.4197616577148438,18.98193359375,-14.068603515625,-20.4925537109375
6.0099999,-0.6129156351089478,9.157821655273438,-1.534683346748352,37.7197265625,-7.9193115234375,-41.0308837890625
6.029999900000001,-0.7254431247711182,9.117119789123535,-1.6831238269805908,26.4434814453125,-4.913330078125,-39.97802734375
6.0499999,-0.8379706144332886,9.165003776550293,-1.824381709098816,6.2408447265625,-5.0201416015625,-28.74755859375
6.069999900000001,-0.9385270476341248,9.241618156433105,-1.9728221893310547,6.6070556640625,-7.2174072265625,-23.01025390625
6.0899999000000005,-1.05105459690094,9.272743225097656,-2.075772762298584,-2.685546875,-7.049560546875,-18.463134765625
6.109999900000001,-1.1492167711257935,9.289502143859863,-2.164358377456665,-5.2947998046875,-2.2430419921875,-15.2435302734375
6.1299999000000005,-1.2330138683319092,9.275136947631836,-2.1571757793426514,0.6561279296875,-2.899169921875,-12.0849609375
6.149999900000001,-1.2832920551300049,9.244012832641602,-2.190694570541382,21.9573974609375,-8.36181640625,-17.0135498046875
6.1699999000000005,-1.3048399686813354,9.253589630126953,-2.188300371170044,13.9617919921875,-4.0130615234375,-22.1099853515625
6.1899999,-1.2856862545013428,9.279925346374512,-2.1332337856292725,-40.6494140625,0.3509521484375,-6.1492919921875
6.209999900000001,-1.2521674633026123,9.239224433898926,-1.9919757843017578,-56.5032958984375,-5.462646484375,8.7127685546875
6.2299999,-1.2210428714752197,9.282320022583008,-1.8052281141281128,-31.1126708984375,-18.1884765625,-0.06103515625
6.249999900000001,-1.213860273361206,9.222464561462402,-1.6376339197158813,-5.462646484375,-19.04296875,-9.5977783203125
6.2699999,-1.3024457693099976,9.229647636413574,-1.6160861253738403,-4.638671875,-6.805419921875,-15.5487060546875
6.289999900000001,-1.4053963422775269,9.315838813781738,-1.7262194156646729,9.6588134765625,8.30078125,-33.9508056640625
6.3099999,-1.5131354331970215,9.457097053527832,-1.7741034030914307,19.6685791015625,17.1966552734375,-45.196533203125
6.329999900000001,-1.577778935432434,9.612719535827637,-1.7932571172714233,0.1373291015625,0.152587890625,-27.34375
6.3499999,-1.577778935432434,9.725247383117676,-1.7357962131500244,-12.87841796875,-11.4288330078125,-9.8724365234375
6.369999900000001,-1.5490485429763794,9.744400978088379,-1.6927006244659424,-4.6234130859375,-8.270263671875,-9.521484375
6.3899999,-1.522712230682373,9.68933391571045,-1.7118542194366455,6.5765380859375,-8.544921875,-5.950927734375
6.409999900000001,-1.5298948287963867,9.653421401977539,-1.7501614093780518,8.5296630859375,-11.7340087890625,0.5035400390625
6.4299999,-1.5634137392044067,9.605537414550781,-1.8052281141281128,6.6680908203125,-14.6026611328125,7.537841796875
6.449999900000001,-1.623268723487854,9.567230224609375,-1.889025092124939,8.7432861328125,-14.2059326171875,7.38525390625
6.4699999,-1.699883222579956,9.488221168518066,-2.032677173614502,11.383056640625,-10.406494140625,3.0364990234375
6.489999900000001,-1.7381904125213623,9.39245319366455,-2.164358377456665,19.5159912109375,-1.46484375,-6.04248046875
6.5099999,-1.7693150043487549,9.30386734008789,-2.27209734916687,13.3514404296875,-0.518798828125,-3.7078857421875
6.529999900000001,-1.7956513166427612,9.289502143859863,-2.279279947280884,5.37109375,-6.5460205078125,0.79345703125
6.5499999,-1.8483237028121948,9.308655738830566,-2.3343467712402344,22.76611328125,-6.134033203125,-2.960205078125
6.569999900000001,-1.8746598958969116,9.390059471130371,-2.346317768096924,27.89306640625,5.9967041015625,-14.678955078125
6.5899999000000005,-1.8938134908676147,9.41400146484375,-2.3726539611816406,-3.3111572265625,8.11767578125,-6.53076171875
6.609999900000001,-1.8483237028121948,9.423578262329102,-2.3247697353363037,-6.195068359375,-0.91552734375,2.1209716796875
6.6299999000000005,-1.7884687185287476,9.402029991149902,-2.2242133617401123,6.866455078125,-9.33837890625,2.5787353515625
6.649999900000001,-1.7573440074920654,9.349357604980469,-2.1356279850006104,9.735107421875,-11.444091796875,1.64794921875
6.6699999000000005,-1.7693150043487549,9.349357604980469,-2.164358377456665,4.119873046875,-5.2947998046875,-4.3182373046875
6.6899999,-1.7884687185287476,9.342175483703613,-2.2864625453948975,-3.23486328125,1.9073486328125,-7.4310302734375
6.709999900000001,-1.8267759084701538,9.373299598693848,-2.4013843536376953,-19.83642578125,0.1068115234375,2.6702880859375
6.7299999,-1.8291701078414917,9.387664794921875,-2.4205379486083984,-15.4876708984375,0.1373291015625,4.058837890625
6.749999900000001,-1.8531121015548706,9.344569206237793,-2.3558945655822754,-1.4495849609375,0.06103515625,-1.1749267578125
6.7699999,-1.8842366933822632,9.32541561126709,-2.2457611560821533,-11.1541748046875,-1.15966796875,-4.150390625
6.789999900000001,-1.8938134908676147,9.136273384094238,-2.140416383743286,-19.9432373046875,0.579833984375,-10.8795166015625
6.8099999,-1.8986018896102905,8.939949035644531,-2.1787235736846924,-12.603759765625,-5.6304931640625,-17.608642578125
6.829999900000001,-1.9105730056762695,8.755595207214355,-2.255337953567505,3.9215087890625,-2.960205078125,-19.5159912109375
6.8499999,-1.9033904075622559,8.59997272491455,-2.2649147510528564,4.5928955078125,7.6904296875,-19.53125
6.869999900000001,-1.9129672050476074,8.643068313598633,-2.2146365642547607,-12.6190185546875,-3.326416015625,-13.7481689453125
6.8899999,-1.922544002532959,8.755595207214355,-2.0470423698425293,-27.7557373046875,-17.2576904296875,-4.3792724609375
6.909999900000001,-1.9273324012756348,8.832210540771484,-1.941697597503662,-20.9197998046875,-19.683837890625,0.06103515625
6.9299999,-1.9393033981323242,8.980650901794434,-1.9153614044189453,4.21142578125,-9.9029541015625,-10.19287109375
6.949999900000001,-2.0015525817871094,9.105149269104004,-1.9273324012756348,-9.368896484375,-8.9263916015625,-4.1351318359375
6.9699999,-2.0925323963165283,9.299078941345215,-2.0231003761291504,-15.7012939453125,-18.8446044921875,7.293701171875
6.989999900000001,-2.22660756111145,9.550470352172852,-2.1068975925445557,9.9029541015625,-12.8326416015625,2.38037109375
7.0099999,-2.3343467712402344,9.694122314453125,-2.188300371170044,13.702392578125,5.31005859375,-4.8065185546875
7.029999900000001,-2.3918075561523438,9.770736694335938,-2.2194249629974365,16.571044921875,13.6871337890625,-10.345458984375
7.0499999,-2.363077163696289,9.708487510681152,-2.1523873805999756,8.758544921875,3.9520263671875,-3.082275390625
7.069999900000001,-2.2816741466522217,9.62947940826416,-1.9752163887023926,0.152587890625,-4.3487548828125,3.662109375
7.0899999000000005,-2.2026655673980713,9.548076629638672,-1.7812861204147339,1.5869140625,-4.7607421875,6.4544677734375
7.109999900000001,-2.1787235736846924,9.543288230895996,-1.5969325304031372,6.6986083984375,-4.364013671875,5.7373046875
7.1299999000000005,-2.2002713680267334,9.567230224609375,-1.4484920501708984,9.429931640625,-8.392333984375,5.0506591796875
7.149999900000001,-2.2433669567108154,9.607931137084961,-1.4221558570861816,10.986328125,-16.326904296875,7.14111328125
7.1699999000000005,-2.2816741466522217,9.569623947143555,-1.5155296325683594,7.3089599609375,-15.167236328125,11.16943359375
7.1899999,-2.319981336593628,9.490615844726562,-1.7932571172714233,-1.5411376953125,-10.498046875,12.87841796875
7.209999900000001,-2.382230758666992,9.411606788635254,-2.1308395862579346,-0.7781982421875,-4.4403076171875,9.8724365234375
7.2299999,-2.4420857429504395,9.363722801208496,-2.3965959548950195,0.9613037109375,-0.335693359375,6.6070556640625
7.249999900000001,-2.5306711196899414,9.409213066101074,-2.6024973392486572,-11.1083984375,-6.4544677734375,10.5133056640625
7.2699999,-2.557007312774658,9.495404243469238,-2.6623523235321045,-21.240234375,-7.598876953125,13.2598876953125
7.289999900000001,-2.537853717803955,9.600749015808105,-2.540247917175293,-26.2451171875,-2.3956298828125,14.9383544921875
7.3099999,-2.4684219360351562,9.641449928283691,-2.33913516998291,-14.068603515625,-3.41796875,13.5040283203125
7.329999900000001,-2.382230758666992,9.646238327026367,-2.0877439975738525,-9.0484619140625,-5.4931640625,8.1939697265625
7.3499999,-2.3319525718688965,9.624691009521484,-1.8363527059555054,-32.958984375,-5.8135986328125,9.979248046875
7.369999900000001,-2.3343467712402344,9.603142738342285,-1.659181833267212,-47.91259765625,-6.256103515625,15.44189453125
7.3899999,-2.387019157409668,9.59835433959961,-1.4628572463989258,-42.4346923828125,-6.6680908203125,16.8304443359375
7.409999900000001,-2.4396915435791016,9.576807022094727,-1.292868971824646,-20.4010009765625,-7.293701171875,13.6871337890625
7.4299999,-2.499546527862549,9.581595420837402,-1.094150185585022,-6.4544677734375,-5.31005859375,11.8255615234375
7.449999900000001,-2.5115175247192383,9.636661529541016,-0.8355764150619507,0.6256103515625,-2.38037109375,12.0849609375
7.4699999,-2.4660277366638184,9.703699111938477,-0.727837324142456,4.5623779296875,-12.8173828125,18.280029296875
7.489999900000001,-2.367865562438965,9.856928825378418,-0.6847416758537292,-17.8680419921875,-19.5159912109375,28.2440185546875
7.5099999,-2.2242133617401123,10.11550235748291,-0.6416460275650024,-57.3577880859375,-12.5885009765625,35.94970703125
7.529999900000001,-2.097320795059204,10.486603736877441,-0.5027823448181152,-54.3365478515625,-8.2855224609375,43.4417724609375
7.5499999,-1.9752163887023926,10.991780281066895,-0.31603461503982544,-18.37158203125,-18.8751220703125,45.166015625
7.569999900000001,-1.8746598958969116,11.544840812683105,-0.07182604819536209,-1.129150390625,-26.7486572265625,55.5877685546875
7.5899999000000005,-1.7357962131500244,11.920730590820312,0.09576806426048279,-13.2293701171875,-22.6287841796875,73.7152099609375
7.609999900000001,-1.5155296325683594,11.896788597106934,0.05506663769483566,-13.1072998046875,-22.125244140625,80.2154541015625
7.6299999000000005,-1.2330138683319092,11.513715744018555,-0.009576806798577309,-7.01904296875,-24.23095703125,64.1632080078125
7.649999900000001,-0.9050082564353943,10.90798282623291,-0.05506663769483566,-17.2119140625,-26.2298583984375,49.0875244140625
7.6699999000000005,-0.6057330369949341,10.27591323852539,-0.06703764945268631,-34.72900390625,-33.0810546875,53.7872314453125
7.6899999,-0.33997663855552673,9.794678688049316,-0.1843535304069519,-25.2838134765625,-40.679931640625,62.042236328125
7.709999900000001,-0.15562310814857483,9.457097053527832,-0.31364041566848755,-31.0821533203125,-38.2080078125,69.122314453125
7.7299999,0.019153613597154617,9.272743225097656,-0.3471592366695404,-36.6973876953125,-27.3284912109375,63.5833740234375
7.749999900000001,0.17477671802043915,9.188945770263672,-0.2561795711517334,-19.10400390625,-31.25,62.4847412109375
7.7699999,0.3711012601852417,9.193734169006348,0.028730420395731926,-19.195556640625,-48.8128662109375,72.4639892578125
7.789999900000001,0.608127236366272,9.253589630126953,0.27054479718208313,-27.7099609375,-60.72998046875,80.2154541015625
7.8099999,0.811634361743927,9.361329078674316,0.5602431893348694,-36.3616943359375,-51.513671875,81.329345703125
7.829999900000001,1.0654197931289673,9.289502143859863,0.5554547905921936,-11.5509033203125,-45.867919921875,70.8770751953125
7.8499999,1.3192051649093628,9.224859237670898,0.3447650372982025,27.2064208984375,-30.975341796875,53.619384765625
7.869999900000001,1.5658079385757446,9.215282440185547,0.272938996553421,-20.3857421875,-31.463623046875,46.142578125
7.8899999,1.8770540952682495,9.107542991638184,0.07182604819536209,-47.8363037109375,-47.515869140625,59.295654296875
7.909999900000001,2.1763293743133545,9.02135181427002,-0.13168109953403473,2.7618408203125,-53.22265625,61.0198974609375
7.9299999,2.4803929328918457,8.853757858276367,-0.4118026793003082,2.044677734375,-48.9654541015625,54.2449951171875
7.949999900000001,2.760514497756958,8.56884765625,-0.8140285611152649,-32.4859619140625,-37.0635986328125,52.4444580078125
7.9699999,3.0166940689086914,8.245630264282227,-1.278503656387329,-39.1387939453125,-28.7933349609375,53.436279296875
7.989999900000001,3.2537200450897217,7.915230751037598,-1.4676456451416016,-17.9443359375,-24.9786376953125,46.5545654296875
8.0099999,3.464409828186035,7.750030994415283,-1.290474772453308,-13.18359375,-28.3050537109375,32.89794921875
8.0299999,3.6176388263702393,7.587224960327148,-1.0319008827209473,-11.3067626953125,-42.9229736328125,27.16064453125
8.049999900000001,3.73016619682312,7.637503623962402,-0.768538773059845,14.6026611328125,-34.881591796875,8.3465576171875
8.069999900000001,3.7924153804779053,7.738059997558594,-0.6751648783683777,29.35791015625,-17.1356201171875,-5.2947998046875
8.0899999,3.8139634132385254,7.903259754180908,-0.6512228846549988,14.6331787109375,-17.27294921875,1.434326171875
8.1099999,3.8283286094665527,7.99184513092041,-0.6727706789970398,0.9918212890625,-29.815673828125,9.3994140625
8.129999900000001,3.804386615753174,8.058882713317871,-0.6368576288223267,-3.3416748046875,-35.82763671875,9.1094970703125
8.149999900000001,3.7158010005950928,8.04691219329834,-0.727837324142456,-4.180908203125,-30.33447265625,5.0201416015625
8.1699999,3.620033025741577,8.066065788269043,-0.8834604024887085,9.4146728515625,-15.7623291015625,-1.922607421875
8.1899999,3.529053211212158,8.106766700744629,-1.0103530883789062,5.767822265625,-9.3536376953125,-1.983642578125
8.2099999,3.5027170181274414,8.125920295715332,-1.091755986213684,-2.716064453125,-17.578125,0.30517578125
8.229999900000001,3.5194764137268066,8.161833763122559,-1.0319008827209473,-12.3291015625,-23.223876953125,-3.2806396484375
8.2499999,3.5434184074401855,8.212111473083496,-0.9457096457481384,-14.4195556640625,-21.697998046875,-7.5225830078125
8.2699999,3.552995204925537,8.243236541748047,-0.9648633003234863,5.4931640625,-18.5546875,-8.514404296875
8.2899999,3.5458126068115234,8.29830265045166,-1.0438719987869263,21.1334228515625,-12.3138427734375,-9.2620849609375
8.309999900000001,3.533841609954834,8.35336971282959,-1.1635819673538208,15.594482421875,-6.622314453125,-10.986328125
8.3299999,3.5386300086975098,8.339004516601562,-1.3503297567367554,-3.8909912109375,-7.4310302734375,-5.79833984375
8.3499999,3.5386300086975098,8.327033042907715,-1.3910311460494995,-28.594970703125,-4.21142578125,-2.7008056640625
8.3699999,3.5386300086975098,8.379706382751465,-1.2856862545013428,-19.34814453125,2.777099609375,-10.9100341796875
8.389999900000001,3.5434184074401855,8.425195693969727,-1.0558429956436157,4.302978515625,0.9765625,-15.5181884765625
8.4099999,3.5386300086975098,8.5903959274292,-0.7996633648872375,6.378173828125,-7.0648193359375,-14.739990234375
8.4299999,3.550601005554199,8.746018409729004,-0.6105214357376099,-6.77490234375,-8.48388671875,-12.0086669921875
8.4499999,3.557783842086792,9.01895809173584,-0.49799394607543945,-14.0533447265625,-5.950927734375,-12.02392578125
8.469999900000001,3.5721490383148193,9.229647636413574,-0.4836287498474121,-12.3443603515625,-7.9345703125,-8.23974609375
8.4899999,3.5960910320281982,9.411606788635254,-0.4596867263317108,-8.4381103515625,-8.0413818359375,-7.049560546875
8.5099999,3.5913026332855225,9.490615844726562,-0.42616790533065796,-6.4697265625,-4.6234130859375,-9.246826171875
8.5299999,3.5697548389434814,9.445125579833984,-0.4812345504760742,5.0048828125,-4.82177734375,-12.542724609375
8.549999900000001,3.5003228187561035,9.320627212524414,-0.5674257874488831,3.4942626953125,-7.293701171875,-11.474609375
8.569999900000001,3.4165258407592773,9.188945770263672,-0.6943184733390808,-5.3558349609375,-7.293701171875,-10.711669921875
8.5899999,3.3255462646484375,9.028534889221191,-0.8571242094039917,-6.317138671875,-5.7830810546875,-10.589599609375
8.6099999,3.251325845718384,8.944737434387207,-0.9959878921508789,-1.220703125,-0.0762939453125,-15.1519775390625
8.629999900000001,3.184288263320923,8.892065048217773,-1.0414776802062988,-0.6256103515625,7.0037841796875,-17.1051025390625
8.649999900000001,3.134010076522827,8.829815864562988,-1.0438719987869263,-0.4119873046875,8.8043212890625,-14.678955078125
8.6699999,3.1076738834381104,8.7268648147583,-0.9433154463768005,-11.016845703125,8.1024169921875,-13.214111328125
8.6899999,3.095702886581421,8.518569946289062,-0.8259995579719543,-16.7236328125,7.415771484375,-14.0380859375
8.709999900000001,3.1004912853240967,8.255207061767578,-0.727837324142456,-7.99560546875,9.521484375,-19.256591796875
8.729999900000001,3.090914487838745,8.106766700744629,-0.5889736413955688,0.8697509765625,14.9993896484375,-27.130126953125
8.7499999,3.0789434909820557,8.08282470703125,-0.4620809257030487,0.3814697265625,13.580322265625,-27.5726318359375
8.7699999,3.0550012588500977,8.221688270568848,-0.3734954595565796,1.9073486328125,5.6915283203125,-24.0325927734375
8.7899999,3.026270866394043,8.482656478881836,-0.24899697303771973,-2.38037109375,5.2947998046875,-24.688720703125
8.809999900000001,2.980781078338623,8.75080680847168,-0.14604631066322327,-3.997802734375,4.3792724609375,-23.5137939453125
8.8299999,2.894589900970459,9.05247688293457,-0.05985504388809204,3.60107421875,-0.457763671875,-24.7955322265625
8.8499999,2.762908697128296,9.32541561126709,0.021547814831137657,10.9405517578125,-4.1046142578125,-24.5208740234375
8.8699999,2.5929205417633057,9.591172218322754,0.031124621629714966,8.60595703125,-4.364013671875,-23.1781005859375
8.889999900000001,2.3918075561523438,9.816226959228516,0,-1.2969970703125,-3.4637451171875,-20.3704833984375
8.9099999,2.1811177730560303,10.017339706420898,-0.016759412363171577,-1.9989013671875,-1.9073486328125,-17.578125
8.9299999,1.9752163887023926,10.194510459899902,0.009576806798577309,17.2119140625,-1.4801025390625,-17.2882080078125
8.9499999,1.8076223134994507,10.271124839782715,0.031124621629714966,23.3917236328125,-5.218505859375,-13.702392578125
8.969999900000001,1.6903064250946045,10.287884712219238,-0.019153613597154617,10.4217529296875,-8.148193359375,-10.589599609375
8.9899999,1.6400281190872192,10.192116737365723,-0.09816227108240128,1.190185546875,-3.143310546875,-10.101318359375
9.0099999,1.6543933153152466,10.055646896362305,-0.16759411990642548,6.927490234375,1.2054443359375,-10.8795166015625
9.0299999,1.6879122257232666,9.914389610290527,-0.22026655077934265,10.4522705078125,-2.38037109375,-9.2926025390625
9.049999900000001,1.7094600200653076,9.828198432922363,-0.19393034279346466,6.8511962890625,-2.4261474609375,-8.8043212890625
9.069999900000001,1.699883222579956,9.806650161743164,-0.22026655077934265,4.5013427734375,-0.3509521484375,-8.056640625
9.0899999,1.6663644313812256,9.832986831665039,-0.19632454216480255,-1.3885498046875,3.7841796875,-6.0577392578125
9.1099999,1.6304513216018677,9.914389610290527,-0.12449848651885986,-5.6610107421875,5.035400390625,-4.486083984375
9.129999900000001,1.625662922859192,9.943120002746582,-0.038307227194309235,0.7476806640625,3.0670166015625,-3.7841796875
9.149999900000001,1.6160861253738403,9.928754806518555,0.0933738648891449,-0.3204345703125,4.852294921875,-2.4261474609375
9.1699999,1.5897499322891235,9.911994934082031,0.2346317619085312,2.74658203125,11.3983154296875,-4.4097900390625
9.1899999,1.501164436340332,9.86889934539795,0.4357447028160095,1.953125,10.406494140625,-1.251220703125
9.209999900000001,1.41257905960083,9.828198432922363,0.6631938815116882,-9.429931640625,0.0762939453125,5.462646484375
9.229999900000001,1.4077905416488647,9.730035781860352,0.9672574996948242,-10.55908203125,-4.7607421875,5.9814453125
9.2499999,1.525106430053711,9.533711433410645,1.1540051698684692,-8.7890625,-10.68115234375,4.2877197265625
9.2699999,1.7477672100067139,9.265560150146484,1.1109095811843872,6.9122314453125,-18.12744140625,-0.030517578125
9.2899999,2.097320795059204,8.87051773071289,0.42856210470199585,31.9366455078125,-9.8724365234375,-9.8876953125
9.309999900000001,2.1380221843719482,8.848969459533691,-0.18914192914962769,23.0865478515625,-11.993408203125,-6.927490234375
9.3299999,2.1308395862579346,8.966285705566406,-0.6799532771110535,-6.011962890625,-7.781982421875,-2.5787353515625
9.3499999,2.0877439975738525,9.181763648986816,-0.9840168952941895,-14.4195556640625,-2.3040771484375,-5.2337646484375
9.3699999,2.0039467811584473,9.435548782348633,-1.1180921792984009,8.453369140625,-2.8076171875,-9.82666015625
9.389999900000001,1.8626888990402222,9.730035781860352,-1.048660397529602,17.242431640625,2.3956298828125,-9.58251953125
9.4099999,1.6687586307525635,10.022128105163574,-0.9145850539207458,4.058837890625,6.9427490234375,-3.4332275390625
9.4299999,1.5107412338256836,10.211270332336426,-0.7589619159698486,-11.260986328125,4.150390625,3.7689208984375
9.4499999,1.4508862495422363,10.211270332336426,-0.5051765441894531,-19.1497802734375,1.1138916015625,7.6904296875
9.469999900000001,1.4748282432556152,10.041281700134277,-0.2059013396501541,-11.810302734375,0.5950927734375,4.94384765625
9.4899999,1.5107412338256836,9.78989028930664,0.019153613597154617,0.8087158203125,-1.190185546875,1.190185546875
9.5099999,1.5131354331970215,9.543288230895996,0.12689268589019775,11.016845703125,0.79345703125,-0.48828125
9.5299999,1.4508862495422363,9.454702377319336,0.22266076505184174,-0.67138671875,4.974365234375,0.1068115234375
9.549999900000001,1.403002142906189,9.41400146484375,0.28730419278144836,-16.29638671875,-0.8697509765625,5.2947998046875
9.569999900000001,1.4269442558288574,9.354146003723145,0.35434186458587646,-11.2762451171875,-9.7503662109375,6.988525390625
9.5899999,1.5059528350830078,9.248801231384277,0.33758243918418884,-3.2958984375,-11.962890625,1.6326904296875
9.6099999,1.5897499322891235,9.074024200439453,0.2106897532939911,-3.4027099609375,-7.232666015625,-2.9144287109375
9.629999900000001,1.5873557329177856,8.956708908081055,0.004788403399288654,-3.5858154296875,-2.4261474609375,-6.3323974609375
9.649999900000001,1.501164436340332,8.944737434387207,-0.22266076505184174,0.4730224609375,-4.791259765625,-9.2010498046875
9.6699999,1.3551181554794312,9.07641887664795,-0.37828385829925537,-9.3536376953125,-7.7972412109375,-9.6588134765625
9.6899999,1.235408067703247,9.251194953918457,-0.5841852426528931,-13.4735107421875,-7.293701171875,-9.5672607421875
9.709999900000001,1.1827356815338135,9.425971984863281,-0.7709329724311829,-2.0751953125,-0.1220703125,-11.505126953125
9.729999900000001,1.192312479019165,9.495404243469238,-0.8930372595787048,-9.2315673828125,4.913330078125,-9.124755859375
9.7499999,1.2737152576446533,9.452308654785156,-0.9026140570640564,-15.1824951171875,3.6773681640625,-7.2174072265625
9.7699999,1.4053963422775269,9.32541561126709,-0.6943184733390808,-13.8092041015625,2.960205078125,-9.4757080078125
9.7899999,1.5729905366897583,9.248801231384277,-0.31603461503982544,-11.8560791015625,0.885009765625,-13.1988525390625
9.809999900000001,1.7286136150360107,9.308655738830566,0.0694318488240242,-1.3275146484375,-5.43212890625,-13.73291015625
9.8299999,1.7884687185287476,9.524134635925293,0.3519476354122162,5.706787109375,-7.62939453125,-9.8724365234375
9.8499999,1.7262194156646729,9.775525093078613,0.4405331015586853,6.378173828125,-3.7384033203125,-5.2490234375
9.8699999,1.53707754611969,9.974244117736816,0.44771572947502136,1.2054443359375,0.8544921875,-3.3721923828125
9.889999900000001,1.2713210582733154,10.010157585144043,0.31842881441116333,1.6021728515625,-5.279541015625,-1.9073486328125
9.9099999,1.0199298858642578,9.919178009033203,0.31842881441116333,7.4310302734375,-3.8909912109375,-2.655029296875
9.9299999,0.8068459630012512,9.775525093078613,0.26336219906806946,11.962890625,-1.1138916015625,-5.7830810546875
9.9499999,0.6775590777397156,9.651026725769043,0.2298433631658554,10.162353515625,-1.861572265625,-6.9122314453125
9.969999900000001,0.6536170840263367,9.552865028381348,0.17956513166427612,5.706787109375,-1.556396484375,-6.3629150390625
9.9899999,0.7206547260284424,9.485827445983887,0.038307227194309235,10.406494140625,-3.082275390625,-5.767822265625
10.0099999,0.849941611289978,9.457097053527832,-0.16759411990642548,10.101318359375,1.068115234375,-8.3770751953125
10.0299999,0.9840168952941895,9.478644371032715,-0.3447650372982025,7.8582763671875,9.857177734375,-9.7503662109375
10.049999900000001,1.0654197931289673,9.62947940826416,-0.3902548849582672,10.6353759765625,12.2528076171875,-8.5601806640625
10.069999900000001,1.070208191871643,9.80904483795166,-0.3687070608139038,20.9503173828125,5.7373046875,-3.7078857421875
10.0899999,0.9911994934082031,10.007762908935547,-0.2322375625371933,22.76611328125,4.608154296875,-0.579833984375
10.1099999,0.8810662031173706,10.120290756225586,-0.10295066982507706,10.1470947265625,8.9874267578125,1.2359619140625
10.129999900000001,0.7805097699165344,10.11789608001709,-0.002394201699644327,7.9345703125,8.270263671875,3.23486328125
10.149999900000001,0.7350199222564697,10.091560363769531,0.07182604819536209,13.3056640625,5.157470703125,3.997802734375
10.1699999,0.7829039692878723,9.964667320251465,0.07661445438861847,11.6729736328125,4.241943359375,7.3394775390625
10.1899999,0.9145850539207458,9.81143856048584,0.031124621629714966,4.302978515625,9.979248046875,7.5531005859375
10.209999900000001,1.0749965906143188,9.622296333312988,-0.038307227194309235,1.2969970703125,13.61083984375,4.6844482421875
10.229999900000001,1.1994950771331787,9.476250648498535,-0.038307227194309235,2.3040771484375,10.498046875,3.0517578125
10.2499999,1.259350061416626,9.375694274902344,0.040701430290937424,7.049560546875,6.3323974609375,5.2032470703125
10.2699999,1.2306196689605713,9.370905876159668,0.15801730751991272,11.3983154296875,5.2947998046875,6.0882568359375
10.2899999,1.1994950771331787,9.318233489990234,0.19153612852096558,17.7154541015625,2.74658203125,7.5531005859375
10.309999900000001,1.1971008777618408,9.193734169006348,0.0933738648891449,15.655517578125,0.18310546875,8.7890625
10.3299999,1.2832920551300049,8.990227699279785,-0.13168109953403473,9.674072265625,1.190185546875,4.7760009765625
10.3499999,1.414973258972168,8.777143478393555,-0.4429273009300232,4.7607421875,4.6234130859375,0.1373291015625
10.3699999,1.5442601442337036,8.695740699768066,-0.7182605266571045,6.439208984375,9.1705322265625,-3.2501220703125
10.389999900000001,1.6184803247451782,8.80587387084961,-0.8236053586006165,8.1634521484375,11.5203857421875,-2.8839111328125
10.4099999,1.6089035272598267,9.078812599182129,-0.7637503147125244,3.3721923828125,7.32421875,0.91552734375
10.4299999,1.5466543436050415,9.409213066101074,-0.6248866319656372,4.7454833984375,2.4261474609375,2.0599365234375
10.4499999,1.4867992401123047,9.643844604492188,-0.5363011956214905,12.63427734375,3.1280517578125,-0.5035400390625
10.469999900000001,1.434126853942871,9.782708168029785,-0.6847416758537292,14.0228271484375,2.7008056640625,-4.7607421875
10.4899999,1.400607943534851,9.832986831665039,-1.0630255937576294,12.8021240234375,5.43212890625,-6.5460205078125
10.5099999,1.3694833517074585,9.864110946655273,-1.5753847360610962,6.53076171875,13.0157470703125,-4.8980712890625
10.5299999,1.357512354850769,9.835380554199219,-2.0039467811584473,-4.5623779296875,21.2554931640625,-1.7242431640625
10.549999900000001,1.3718775510787964,9.813833236694336,-2.1499931812286377,-13.6566162109375,24.6734619140625,-2.4871826171875
10.569999900000001,1.4101848602294922,9.739612579345703,-1.968033790588379,-9.09423828125,23.284912109375,-4.2724609375
10.5899999,1.4484920501708984,9.68694019317627,-1.556231141090393,2.9754638671875,19.59228515625,-5.2490234375
10.6099999,1.4460978507995605,9.655815124511719,-1.1516109704971313,8.2855224609375,15.625,-4.33349609375
10.629999900000001,1.4053963422775269,9.62947940826416,-0.8930372595787048,1.3580322265625,13.702392578125,-1.8157958984375
10.649999900000001,1.37906014919281,9.53849983215332,-0.8164227604866028,-4.2572021484375,14.3890380859375,0.640869140625
10.6699999,1.3982137441635132,9.404424667358398,-0.8523358106613159,-2.4871826171875,14.556884765625,-0.1983642578125
10.6899999,1.5107412338256836,9.224859237670898,-0.8595184087753296,4.425048828125,14.801025390625,-1.983642578125
10.709999900000001,1.678335428237915,9.059659004211426,-0.8044517636299133,6.9732666015625,10.25390625,-3.1890869140625
10.729999900000001,1.843535304069519,9.004592895507812,-0.730231523513794,11.1846923828125,3.5858154296875,-5.4931640625
10.7499999,1.9393033981323242,9.078812599182129,-0.6751648783683777,10.8184814453125,0.244140625,-5.5389404296875
10.7699999,1.9081788063049316,9.339780807495117,-0.706289529800415,14.2059326171875,0.7781982421875,-5.2490234375
10.7899999,1.7549498081207275,9.727641105651855,-0.8140285611152649,21.209716796875,2.6092529296875,-3.6468505859375
10.809999900000001,1.5131354331970215,10.158597946166992,-0.9050082564353943,19.1192626953125,3.4942626953125,0.335693359375
10.8299999,1.2641384601593018,10.486603736877441,-0.9600749015808105,4.241943359375,-2.0904541015625,8.1634521484375
10.8499999,1.0989385843276978,10.587160110473633,-0.9911994934082031,-4.852294921875,-9.46044921875,14.7552490234375
10.8699999,1.0893617868423462,10.412383079528809,-1.0079588890075684,-1.8157958984375,-9.8876953125,14.5416259765625
10.889999900000001,1.256955862045288,10.014945983886719,-1.0893617868423462,5.1422119140625,-7.7667236328125,11.41357421875
10.9099999,1.5418659448623657,9.521739959716797,-1.1971008777618408,9.979248046875,-6.683349609375,9.490966796875
10.9299999,1.8531121015548706,9.107542991638184,-1.3335703611373901,6.134033203125,-8.6669921875,8.9111328125
10.9499999,2.1045033931732178,8.827422142028809,-1.4173674583435059,2.4261474609375,-9.0179443359375,9.613037109375
10.969999900000001,2.229001760482788,8.734047889709473,-1.4700398445129395,3.2501220703125,-7.9803466796875,7.7056884765625
10.9899999,2.2242133617401123,8.793902397155762,-1.455674648284912,5.8441162109375,-6.8206787109375,4.3487548828125
11.0099999,2.1092917919158936,9.011775016784668,-1.436521053314209,6.988525390625,-7.080078125,2.7008056640625
11.0299999,1.9345149993896484,9.289502143859863,-1.479616641998291,1.9378662109375,-8.514404296875,6.256103515625
11.049999900000001,1.7573440074920654,9.617507934570312,-1.5083470344543457,-8.36181640625,-4.6234130859375,8.4381103515625
11.069999900000001,1.6136919260025024,9.873687744140625,-1.558625340461731,-12.481689453125,-0.3204345703125,8.636474609375
11.0899999,1.5155296325683594,10.04846477508545,-1.5322890281677246,-14.0380859375,0.67138671875,8.6669921875
11.1099999,1.4772224426269531,10.079588890075684,-1.37906014919281,-15.19775390625,2.5177001953125,10.4217529296875
11.129999900000001,1.5131354331970215,9.928754806518555,-1.1252747774124146,-18.24951171875,2.288818359375,12.1612548828125
11.149999900000001,1.647210717201233,9.651026725769043,-0.7852981686592102,-23.681640625,-3.0975341796875,9.9334716796875
11.1699999,1.8842366933822632,9.255983352661133,-0.44771572947502136,-21.8658447265625,-9.3231201171875,6.103515625
11.1899999,2.142810583114624,8.951920509338379,-0.1388636976480484,-18.7835693359375,-13.7176513671875,3.8909912109375
11.209999900000001,2.3319525718688965,8.822632789611816,-0.05985504388809204,-9.2010498046875,-20.233154296875,3.2501220703125
11.229999900000001,2.38462495803833,8.932766914367676,-0.22505496442317963,-3.47900390625,-20.2484130859375,5.279541015625
11.2499999,2.3104045391082764,9.227252960205078,-0.5195417404174805,-8.3770751953125,-10.986328125,8.7738037109375
11.2699999,2.1954829692840576,9.548076629638672,-0.8188169598579407,-4.4708251953125,-4.5928955078125,11.5814208984375
11.2899999,2.0805611610412598,9.718064308166504,-1.0223240852355957,3.7994384765625,-11.4593505859375,9.4757080078125
11.309999900000001,1.9800047874450684,9.883264541625977,-1.170764684677124,-0.7171630859375,-20.8740234375,1.40380859375
11.3299999,1.9081788063049316,9.84256362915039,-1.3503297567367554,-10.19287109375,-18.1732177734375,3.5247802734375
11.3499999,1.8555063009262085,9.835380554199219,-1.5945383310317993,-2.2430419921875,-8.8043212890625,5.0201416015625
11.3699999,1.824381709098816,9.782708168029785,-1.8315643072128296,0.335693359375,-7.537841796875,5.2032470703125
11.389999900000001,1.8411411046981812,9.651026725769043,-1.9584569931030273,-1.373291015625,-11.4288330078125,7.568359375
11.4099999,1.8555063009262085,9.528923034667969,-2.008735179901123,-20.233154296875,-15.625,9.0179443359375
11.4299999,1.889025092124939,9.35893440246582,-2.0398597717285156,-18.310546875,-12.20703125,7.8125
11.4499999,1.941697597503662,9.114726066589355,-2.0398597717285156,3.3416748046875,-2.0599365234375,4.180908203125
11.469999900000001,2.054224967956543,8.841787338256836,-2.03507137298584,11.444091796875,0.9307861328125,-2.1514892578125
11.4899999,2.2194249629974365,8.497021675109863,-2.011129379272461,-0.8392333984375,-2.8076171875,-4.69970703125
11.5099999,2.3965959548950195,8.370129585266113,-1.8842366933822632,-6.7138671875,-2.3040771484375,-8.6669921875
11.5299999,2.540247917175293,8.480262756347656,-1.6687586307525635,0.579833984375,-2.5634765625,-7.8887939453125
11.549999900000001,2.583343744277954,8.947132110595703,-1.4389152526855469,-2.3651123046875,-10.8642578125,-0.4119873046875
11.569999900000001,2.5043349266052246,9.68694019317627,-1.139639973640442,-9.307861328125,-10.8489990234375,6.4239501953125
11.5899999,2.31758713722229,10.527304649353027,-0.8355764150619507,-4.4708251953125,-5.9661865234375,10.9100341796875
11.6099999,2.073378562927246,11.355698585510254,-0.5554547905921936,-2.7313232421875,-13.092041015625,21.3623046875
11.629999900000001,1.8602946996688843,11.956643104553223,-0.3064578175544739,-17.9901123046875,-20.8740234375,35.5224609375
11.649999900000001,1.742978811264038,12.200851440429688,-0.0933738648891449,-41.9464111328125,-22.2930908203125,50.933837890625
11.6699999,1.7812861204147339,11.96861457824707,0.031124621629714966,-49.7894287109375,-19.6075439453125,58.2122802734375
11.6899999,1.9632453918457031,11.243170738220215,0.07422025501728058,-44.6014404296875,-19.8211669921875,57.6629638671875
11.709999900000001,2.252943754196167,10.20887565612793,0.2346317619085312,-57.8460693359375,-19.7296142578125,55.7708740234375
11.729999900000001,2.6168625354766846,9.071630477905273,0.5554547905921936,-28.2745361328125,-29.3731689453125,50.506591796875
11.7499999,2.9305028915405273,8.20732307434082,0.7493851184844971,27.16064453125,-60.394287109375,50.537109375
11.7699999,3.1483752727508545,7.682993412017822,0.8044517636299133,15.7012939453125,-69.0460205078125,48.40087890625
11.7899999,3.2417490482330322,7.644686222076416,0.45489832758903503,31.982421875,-47.79052734375,32.2265625
11.809999900000001,3.294421434402466,7.99184513092041,-0.10055647045373917,52.1087646484375,-24.10888671875,18.7530517578125
11.8299999,3.332728862762451,8.506598472595215,-0.7230489253997803,-14.0533447265625,-32.379150390625,36.1175537109375
11.8499999,3.4572272300720215,9.074024200439453,-1.237802267074585,-55.8013916015625,-40.6951904296875,49.041748046875
11.8699999,3.6391866207122803,9.57441234588623,-1.501164436340332,-63.65966796875,-31.79931640625,49.5452880859375
11.889999900000001,3.804386615753174,9.931148529052734,-1.6328455209732056,-80.718994140625,-29.0985107421875,54.8248291015625
11.9099999,3.974374771118164,10.137049674987793,-1.5705963373184204,-65.73486328125,-30.57861328125,61.0504150390625
11.9299999,4.098873138427734,10.15141487121582,-1.3766659498214722,-35.003662109375,-31.097412109375,70.4193115234375
11.9499999,4.156333923339844,9.914389610290527,-1.1276689767837524,-19.7601318359375,-30.5328369140625,73.79150390625
11.969999900000001,4.211400985717773,9.610325813293457,-0.7613561153411865,-33.5845947265625,-33.3099365234375,63.41552734375
11.9899999,4.218583583831787,9.150638580322266,-0.4118026793003082,-15.8843994140625,-49.285888671875,66.8182373046875
12.0099999,4.252102375030518,8.755595207214355,-0.1843535304069519,7.5225830078125,-56.976318359375,72.0672607421875
12.0299999,4.347870349884033,8.307879447937012,-0.002394201699644327,-26.3519287109375,-52.7801513671875,73.6846923828125
12.049999900000001,4.527435302734375,7.982268333435059,0.090979665517807,-44.43359375,-54.6112060546875,68.7408447265625
12.069999900000001,4.793191909790039,7.558494567871094,-0.014365210197865963,-17.7459716796875,-69.7784423828125,64.02587890625
12.0899999,5.114014625549316,7.316680431365967,-0.023942016065120697,-11.5203857421875,-70.2972412109375,58.16650390625
12.1099999,5.480327606201172,7.067683219909668,-0.13168109953403473,-15.68603515625,-72.662353515625,55.450439453125
12.129999900000001,5.8442463874816895,6.742072105407715,-0.47644615173339844,14.2822265625,-84.41162109375,55.2825927734375
12.149999900000001,6.196194171905518,6.445190906524658,-0.7661445140838623,1.03759765625,-83.892822265625,54.1839599609375
12.1699999,6.426037311553955,6.1315507888793945,-1.2689268589019775,-30.975341796875,-89.2333984375,58.04443359375
12.1899999,6.538564682006836,5.834669589996338,-1.9584569931030273,-8.209228515625,-82.33642578125,52.5665283203125
12.209999900000001,6.540958881378174,5.659893035888672,-2.516305923461914,-1.2969970703125,-59.0972900390625,43.51806640625
12.229999900000001,6.45476770401001,5.559336185455322,-3.138798475265503,-40.985107421875,-62.56103515625,46.3104248046875
12.2499999,6.378153324127197,5.451597213745117,-3.689464807510376,-32.3486328125,-64.1326904296875,46.0205078125
12.2699999,6.275202751159668,5.408501625061035,-4.062960147857666,-21.1029052734375,-47.210693359375,40.58837890625
12.289999900000002,6.208165168762207,5.322310447692871,-4.41969633102417,4.7607421875,-33.5845947265625,26.0009765625
12.309999900000001,6.114790916442871,5.197812080383301,-4.733336925506592,28.594970703125,-28.50341796875,18.707275390625
12.3299999,6.107608318328857,5.073313236236572,-5.066130638122559,53.6651611328125,-24.322509765625,12.20703125
12.3499999,6.090848922729492,4.970362663269043,-5.621585369110107,15.960693359375,-21.9268798828125,15.4571533203125
12.3699999,6.112396717071533,4.793191909790039,-6.232107162475586,-43.1365966796875,-19.6075439453125,24.749755859375
12.389999900000001,6.150704383850098,4.4508209228515625,-6.92881965637207,-21.942138671875,-19.0887451171875,15.93017578125
12.4099999,6.210559368133545,3.97916316986084,-7.63989782333374,30.8074951171875,-33.99658203125,-3.9825439453125
12.4299999,6.2632317543029785,3.2561142444610596,-8.537723541259766,84.4268798828125,-60.4095458984375,-14.3280029296875
12.4499999,6.531382083892822,1.8698714971542358,-10.45547866821289,99.54833984375,-103.4698486328125,1.89208984375
12.469999900000001,6.7923502922058105,-1.434126853942871,-14.717158317565918,80.718994140625,-148.6663818359375,27.435302734375
12.4899999,6.957550048828125,-8.35336971282959,-22.73055076599121,85.8917236328125,-108.9935302734375,-42.022705078125
12.5099999,5.590460777282715,-19.24938201904297,-34.44777297973633,41.5191650390625,55.7098388671875,-235.504150390625
12.5299999,-1.2665326595306396,-30.4925537109375,-48.281471252441406,195.61767578125,358.9935302734375,-500
12.549999900000001,-14.985308647155762,-37.414188385009766,-53.28056335449219,153.2745361328125,499.9847412109375,-500
12.569999900000001,-33.80133819580078,-34.08385467529297,-43.66066360473633,-444.64111328125,499.9847412109375,-500
12.5899999,-53.881507873535156,-17.808073043823242,-18.806453704833984,-500,499.9847412109375,-500
12.6099999,-65.0528564453125,4.156333923339844,12.559982299804688,-500,296.1883544921875,-382.537841796875
12.629999900000001,-65.46226501464844,30.174123764038086,27.81583595275879,378.387451171875,-125.9307861328125,-199.0509033203125
12.649999900000001,-55.310848236083984,42.65031051635742,38.745365142822266,34.0118408203125,276.0162353515625,147.39990234375
12.6699999,-38.3622932434082,45.283931732177734,29.680917739868164,-218.6737060546875,206.0089111328125,213.6077880859375
12.6899999,-21.662736892700195,34.20356369018555,22.84307861328125,-96.19140625,18.9208984375,123.5809326171875
12.709999900000001,-7.95832633972168,18.363527297973633,17.06826400756836,-32.623291015625,58.9752197265625,24.35302734375
12.729999900000001,0.9145850539207458,4.577713489532471,12.102689743041992,-49.713134765625,84.77783203125,-10.7879638671875
12.7499999,4.888959884643555,-3.028665065765381,8.56645393371582,-21.2554931640625,69.000244140625,-5.8441162109375
12.7699999,5.097255229949951,-4.520252704620361,6.97430944442749,47.027587890625,48.370361328125,0.79345703125
12.789999900000002,3.177105665206909,-1.9776105880737305,6.141127586364746,-35.9649658203125,17.9443359375,16.387939453125
12.809999900000001,0.629675030708313,2.1547815799713135,5.518634796142578,-95.21484375,35.4156494140625,18.73779296875
12.8299999,-1.6663644313812256,6.076483726501465,4.793191909790039,-59.8602294921875,61.6607666015625,10.284423828125
12.8499999,-3.2321722507476807,8.949525833129883,4.199429988861084,-1.6021728515625,55.1910400390625,17.822265625
12.8699999,-3.9217023849487305,10.462661743164062,4.20421838760376,-12.6190185546875,38.4063720703125,30.9295654296875
12.889999900000001,-3.9600095748901367,10.704475402832031,4.491522312164307,-33.87451171875,17.88330078125,32.745361328125
12.9099999,-3.5434184074401855,10.08437728881836,4.910507678985596,-21.3165283203125,9.765625,17.822265625
12.9299999,-2.9448680877685547,9.035717010498047,5.080495834350586,-23.4527587890625,7.4005126953125,9.796142578125
12.9499999,-2.3295583724975586,8.176198959350586,5.027823448181152,-36.1175537109375,5.31005859375,10.25390625
12.969999900000001,-1.8483237028121948,7.716512203216553,4.537012100219727,-24.261474609375,7.50732421875,15.3656005859375
12.9899999,-1.5490485429763794,7.661445617675781,4.206612586975098,-9.2010498046875,18.73779296875,18.7835693359375
13.0099999,-1.3670891523361206,7.793126583099365,4.477157115936279,-23.0255126953125,14.6026611328125,14.4195556640625
13.0299999,-1.2641384601593018,7.929595947265625,4.865017890930176,-24.8565673828125,-24.627685546875,10.009765625
13.049999900000001,-1.2090718746185303,7.960720539093018,5.456385612487793,-21.2554931640625,-33.4320068359375,4.7607421875
13.069999900000001,-1.1204863786697388,7.91283655166626,5.652710437774658,-13.5498046875,-12.0391845703125,-5.0811767578125
13.0899999,-1.0654197931289673,7.850587368011475,5.236119270324707,35.369873046875,-1.617431640625,-6.6375732421875
13.1099999,-1.0319008827209473,7.833827972412109,4.745307922363281,61.5081787109375,-0.2288818359375,-9.4146728515625
13.129999900000001,-1.036689281463623,8.039729118347168,4.367023944854736,11.7034912109375,-12.847900390625,-8.8653564453125
13.149999900000001,-1.0893617868423462,8.279149055480957,4.20421838760376,-20.843505859375,-22.003173828125,-6.2713623046875
13.1699999,-1.0965443849563599,8.59997272491455,4.034229755401611,13.7786865234375,-18.2952880859375,-7.598876953125
13.1899999,-1.0630255937576294,8.71489429473877,3.780444383621216,18.3563232421875,-4.8675537109375,-6.6070556640625
13.209999900000001,-0.9864110946655273,8.741230010986328,3.713406801223755,-47.4853515625,3.2806396484375,-3.72314453125
13.229999900000001,-0.9241618514060974,8.655038833618164,3.624821424484253,-61.187744140625,-10.040283203125,-0.2899169921875
13.2499999,-0.912190854549408,8.552088737487793,3.794809579849243,-29.4342041015625,-15.93017578125,2.4261474609375
13.2699999,-0.9672574996948242,8.434772491455078,3.998316764831543,-1.495361328125,0.30517578125,-6.8511962890625
13.289999900000002,-1.0534487962722778,8.317456245422363,4.079719543457031,12.1612548828125,15.9759521484375,-10.6201171875
13.309999900000001,-1.1540051698684692,8.24084186553955,4.07014274597168,22.03369140625,18.6004638671875,-6.8511962890625
13.3299999,-1.2449848651885986,8.180987358093262,4.20421838760376,12.4359130859375,22.39990234375,-4.058837890625
13.3499999,-1.357512354850769,8.068459510803223,4.357447147369385,-22.186279296875,14.373779296875,3.875732421875
13.3699999,-1.4484920501708984,7.9415669441223145,4.398148536682129,11.1541748046875,6.8817138671875,-2.5177001953125
13.389999900000001,-1.5442601442337036,7.802703380584717,4.027047157287598,119.0338134765625,26.275634765625,-22.76611328125
13.4099999,-1.5945383310317993,7.927201747894287,3.6607344150543213,107.2998046875,46.0357666015625,-13.763427734375
13.4299999,-1.6304513216018677,8.274360656738281,3.4572272300720215,15.80810546875,32.4859619140625,11.993408203125
13.4499999,-1.5873557329177856,8.62630844116211,3.667917013168335,-13.946533203125,-2.8839111328125,25.3143310546875
13.469999900000001,-1.5610195398330688,8.999804496765137,4.0964789390563965,-33.355712890625,-11.566162109375,6.9732666015625
13.4899999,-1.556231141090393,9.100360870361328,4.371812343597412,-53.4210205078125,14.7552490234375,-11.6424560546875
13.5099999,-1.53707754611969,9.191340446472168,4.369418144226074,-23.406982421875,29.876708984375,-9.7808837890625
13.5299999,-1.6160861253738403,9.301473617553711,4.163516521453857,12.054443359375,13.031005859375,12.603759765625
13.549999900000001,-1.6424223184585571,9.495404243469238,4.098873138427734,1.9683837890625,-7.4310302734375,29.72412109375
13.569999900000001,-1.6543933153152466,9.5408935546875,4.163516521453857,-18.4173583984375,-19.04296875,43.3807373046875
13.5899999,-1.6424223184585571,9.610325813293457,4.146757125854492,27.1453857421875,-31.0821533203125,38.3453369140625
13.6099999,-1.5418659448623657,9.543288230895996,3.883395195007324,98.3734130859375,-21.54541015625,18.310546875
13.629999900000001,-1.4173674583435059,9.342175483703613,3.450044631958008,82.8399658203125,-7.5836181640625,5.6304931640625
13.649999900000001,-1.2473790645599365,9.172186851501465,2.9544448852539062,0.3814697265625,-27.2216796875,-0.6561279296875
13.6699999,-1.0438719987869263,8.944737434387207,2.434903144836426,-57.12890625,-32.2113037109375,10.009765625
13.6899999,-0.8858546018600464,8.705317497253418,2.0853497982025146,-164.947509765625,-9.09423828125,42.2821044921875
13.709999900000001,-0.7805097699165344,8.643068313598633,2.1787235736846924,-139.4500732421875,-6.683349609375,40.6341552734375
13.729999900000001,-0.6703764796257019,8.609549522399902,2.655169725418091,-1.2359619140625,-21.697998046875,25.3448486328125
13.7499999,-0.6440402865409851,8.597578048706055,3.7229835987091064,13.61083984375,-11.5203857421875,6.744384765625
13.7699999,-0.5722141861915588,8.674192428588867,4.845864295959473,40.924072265625,-13.2598876953125,-8.9263916015625
13.789999900000002,-0.5554547905921936,8.69334602355957,5.51624059677124,87.3260498046875,-19.8974609375,-8.575439453125
13.809999900000001,-0.5913678407669067,8.705317497253418,5.477933406829834,106.5826416015625,19.012451171875,-18.98193359375
13.8299999,-0.706289529800415,8.731653213500977,4.709394931793213,27.313232421875,3.021240234375,3.60107421875
13.8499999,-0.8140285611152649,8.81784439086914,3.931279182434082,-38.2080078125,16.5863037109375,16.05224609375
13.8699999,-0.9241618514060974,8.918401718139648,3.466804027557373,-56.0150146484375,21.91162109375,26.4739990234375
13.889999900000001,-0.9768342971801758,9.028534889221191,3.469198226928711,-31.8756103515625,2.2735595703125,32.5469970703125
13.9099999,-0.9576807022094727,9.047688484191895,3.7660791873931885,2.105712890625,-10.07080078125,41.5496826171875
13.9299999,-0.8595184087753296,8.89445972442627,4.132391929626465,15.19775390625,-16.0064697265625,54.779052734375
13.9499999,-0.6919242739677429,8.729259490966797,4.261679172515869,28.2440185546875,-25.787353515625,73.394775390625
13.969999900000001,-0.5051765441894531,8.528146743774414,4.144362926483154,5.5389404296875,-30.8990478515625,83.0841064453125
13.9899999,-0.23702596127986908,8.461109161376953,3.8115692138671875,-13.214111328125,-13.3819580078125,57.2357177734375
14.0099999,-0.0933738648891449,8.559270858764648,3.428496837615967,93.048095703125,84.5489501953125,-39.7491455078125
14.0299999,0,8.446743965148926,3.4404678344726562,188.4307861328125,147.15576171875,-70.00732421875
14.049999900000001,-0.09816227108240128,8.518569946289062,3.2178070545196533,64.7430419921875,15.80810546875,-12.3443603515625
14.069999900000001,-0.23942017555236816,8.655038833618164,3.155557870864868,62.1795654296875,-12.2222900390625,-36.895751953125
14.0899999,-0.36152446269989014,8.908824920654297,2.564189910888672,130.4931640625,18.341064453125,-44.189453125
14.1099999,-0.48602294921875,9.363722801208496,2.054224967956543,16.632080078125,29.9072265625,-8.4991455078125
14.129999900000001,-0.49320554733276367,9.780313491821289,1.7717092037200928,-54.840087890625,16.693115234375,5.462646484375
14.149999900000001,-0.5578489899635315,10.089165687561035,1.7693150043487549,-15.7012939453125,-1.52587890625,-7.2784423828125
14.1699999,-0.6536170840263367,10.108319282531738,2.011129379272461,-3.2806396484375,14.129638671875,-9.2315673828125
14.1899999,-0.6488286852836609,10.103530883789062,2.322375535964966,-24.5513916015625,23.681640625,-13.641357421875
14.209999900000001,-0.7829039692878723,9.86650562286377,2.6455929279327393,3.173828125,2.6092529296875,-36.1785888671875
14.229999900000001,-0.8020575642585754,9.763554573059082,2.75812029838562,54.534912109375,-35.736083984375,-19.4091796875
14.2499999,-0.8643068075180054,9.718064308166504,2.7916390895843506,25.87890625,-36.80419921875,17.7459716796875
14.2699999,-0.9026140570640564,9.792284965515137,2.5785553455352783,0.3509521484375,-29.388427734375,21.4080810546875
14.289999900000002,-0.8259995579719543,9.883264541625977,2.2194249629974365,55.4046630859375,-47.5311279296875,-3.5400390625
14.309999900000001,-0.6799532771110535,9.876082420349121,2.0207061767578125,71.990966796875,-44.769287109375,-7.415771484375
14.3299999,-0.5267243981361389,9.895236015319824,1.965639591217041,4.8370361328125,-46.905517578125,4.486083984375
14.3499999,-0.43335050344467163,10.005369186401367,1.8315643072128296,-24.261474609375,-55.206298828125,13.4735107421875
14.3699999,-0.3663128614425659,10.165780067443848,1.6831238269805908,-19.3634033203125,-56.2744140625,21.148681640625
14.389999900000001,-0.3734954595565796,10.220847129821777,1.4077905416488647,-22.979736328125,-56.640625,33.9813232421875
14.4099999,-0.2825157940387726,9.983820915222168,1.0630255937576294,-9.6588134765625,-36.4532470703125,17.242431640625
14.4299999,-0.15801730751991272,9.5408935546875,0.8667010068893433,-1.8768310546875,-9.33837890625,-8.4228515625
14.4499999,-0.026336219161748886,9.165003776550293,1.2330138683319092,17.9290771484375,-12.7105712890625,-34.4696044921875
14.469999900000001,0.09816227108240128,9.172186851501465,1.625662922859192,58.258056640625,-50.6439208984375,-43.5638427734375
14.4899999,0.1843535304069519,8.89445972442627,2.2361843585968018,17.51708984375,-22.5067138671875,1.5869140625
14.5099999,0.28730419278144836,9.002198219299316,2.22660756111145,-1.89208984375,-39.0167236328125,-5.5084228515625
14.5299999,0.3974374830722809,9.038111686706543,1.867477297782898,19.2108154296875,-37.7349853515625,3.1280517578125
14.549999900000001,0.47884035110473633,9.184157371520996,1.4532804489135742,-13.336181640625,-41.3055419921875,30.364990234375
14.569999900000001,0.5171475410461426,9.634267807006836,1.2641384601593018,-6.134033203125,-35.308837890625,29.3731689453125
14.5899999,0.5027823448181152,10.031704902648926,1.292868971824646,52.7191162109375,-32.0892333984375,4.4097900390625
14.6099999,0.5027823448181152,10.125079154968262,1.3670891523361206,53.77197265625,-42.3126220703125,4.8065185546875
14.629999900000001,0.47884035110473633,10.235212326049805,1.3862427473068237,56.121826171875,-8.819580078125,13.00048828125
14.649999900000001,0.5027823448181152,10.527304649353027,1.1994950771331787,119.9798583984375,7.9345703125,-0.79345703125
14.6699999,0.4572925269603729,10.682928085327148,0.8164227604866028,100.28076171875,-7.4005126953125,27.28271484375
14.6899999,0.4429273009300232,10.721235275268555,0.1364694982767105,23.0255126953125,4.0740966796875,44.647216796875
14.709999900000001,0.43335050344467163,10.51054573059082,-0.5578489899635315,-17.4407958984375,61.5386962890625,9.002685546875
14.729999900000001,0.4141969084739685,10.27591323852539,-0.8643068075180054,-64.5294189453125,57.8460693359375,4.5013427734375
14.7499999,0.43335050344467163,10.201693534851074,-0.2561795711517334,-64.697265625,28.2135009765625,9.6282958984375
14.7699999,0.40462008118629456,10.321403503417969,0.6129156351089478,-48.4771728515625,-23.62060546875,32.379150390625
14.789999900000002,0.4189853072166443,10.390835762023926,1.53707754611969,-2.2125244140625,-35.8123779296875,33.782958984375
14.809999900000001,0.47165772318840027,10.326191902160645,1.9704279899597168,2.5177001953125,-13.4735107421875,23.651123046875
14.8299999,0.5530605912208557,10.225635528564453,2.0015525817871094,7.7362060546875,-3.3416748046875,17.1966552734375
14.8499999,0.6919242739677429,10.034099578857422,1.9249382019042969,40.9393310546875,-32.77587890625,24.505615234375
14.8699999,0.8259995579719543,9.955090522766113,1.7836803197860718,34.698486328125,-62.2100830078125,27.89306640625
14.889999900000001,0.9624691009521484,9.914389610290527,1.5658079385757446,18.3868408203125,-51.3458251953125,15.7470703125
14.9099999,1.1516109704971313,9.897629737854004,1.256955862045288,1.2664794921875,-29.7088623046875,13.24462890625
14.9299999,1.314416766166687,10.20648193359375,1.1540051698684692,-15.7470703125,-38.8946533203125,17.486572265625
14.9499999,1.403002142906189,10.498574256896973,1.2330138683319092,16.1285400390625,-62.1490478515625,31.25
14.969999900000001,1.4269442558288574,10.771512985229492,1.2018892765045166,44.647216796875,-68.603515625,31.341552734375
14.9899999,1.4413094520568848,10.919954299926758,1.0271124839782715,33.50830078125,-44.708251953125,22.1710205078125
15.0099999,1.4772224426269531,10.960655212402344,0.7422025203704834,22.308349609375,-30.2276611328125,18.0511474609375
15.0299999,1.5394717454910278,10.845733642578125,0.3495534360408783,73.9898681640625,-44.5556640625,24.5819091796875
15.049999900000001,1.647210717201233,10.6709566116333,-0.06703764945268631,143.4173583984375,-51.1016845703125,35.6903076171875
15.069999900000001,1.7908629179000854,10.283096313476562,-0.6488286852836609,114.990234375,-45.5780029296875,47.2869873046875
15.0899999,2.013523578643799,9.734824180603027,-1.4963760375976562,29.998779296875,-36.43798828125,52.42919921875
15.1099999,2.279279947280884,9.368511199951172,-2.205059766769409,-64.1326904296875,-44.9066162109375,53.5888671875
15.129999900000001,2.5306711196899414,9.126696586608887,-2.671929121017456,-59.234619140625,-55.35888671875,58.5784912109375
15.149999900000001,2.7293899059295654,9.100360870361328,-2.8155810832977295,-23.9105224609375,-58.7615966796875,56.7626953125
15.1699999,2.8347349166870117,9.126696586608887,-2.80361008644104,-43.8690185546875,-52.459716796875,46.5087890625
15.1899999,2.9089550971984863,9.215282440185547,-2.786850690841675,-45.2117919921875,-33.69140625,26.8096923828125
15.209999900000001,2.96162748336792,9.528923034667969,-2.427720546722412,-64.8040771484375,-25.08544921875,22.186279296875
15.229999900000001,2.9161376953125,9.856928825378418,-2.0853497982025146,-61.4471435546875,-51.4678955078125,50.10986328125
15.2499999,2.937685489654541,10.050858497619629,-1.6496049165725708,7.6904296875,-58.2122802734375,60.5316162109375
15.2699999,2.9089550971984863,10.017339706420898,-1.335964560508728,-4.1656494140625,-40.7867431640625,39.9017333984375
15.289999900000002,2.9472622871398926,9.883264541625977,-1.3718775510787964,-56.7474365234375,-41.93115234375,14.373779296875
15.309999900000001,3.050212860107422,9.433155059814453,-1.680729627609253,-119.6136474609375,-60.3485107421875,22.186279296875
15.3299999,3.136404275894165,9.272743225097656,-1.7501614093780518,-151.06201171875,-50.933837890625,20.660400390625
15.3499999,3.287238836288452,9.188945770263672,-1.824381709098816,-227.4322509765625,-51.483154296875,23.9410400390625
15.3699999,3.5745432376861572,8.741230010986328,-1.558625340461731,-390.4876708984375,-104.8736572265625,55.1605224609375
15.389999900000001,3.861847400665283,8.339004516601562,-1.1683704853057861,-367.49267578125,-107.0556640625,41.44287109375
15.4099999,4.2090067863464355,7.91283655166626,-0.3687070608139038,-157.53173828125,-44.49462890625,5.1422119140625
15.4299999,4.3191399574279785,7.321468830108643,0.7541735172271729,117.919921875,-31.982421875,17.9595947265625
15.4499999,4.632780075073242,6.97430944442749,1.2425906658172607,413.299560546875,-56.5032958984375,43.1671142578125
15.469999900000001,4.649539470672607,6.916848659515381,1.5849615335464478,171.9512939453125,-52.7496337890625,55.48095703125
15.4899999,4.874594688415527,6.823474884033203,0.9672574996948242,36.9110107421875,-26.0467529296875,57.8460693359375
15.5099999,5.12119722366333,6.833051681518555,-0.09576806426048279,87.7838134765625,-3.387451171875,49.072265625
15.5299999,5.240907669067383,6.955155849456787,-0.9241618514060974,-18.12744140625,-8.0413818359375,41.4581298828125
15.549999900000001,5.458779811859131,6.900089263916016,-1.316810965538025,-168.9605712890625,-20.56884765625,44.1131591796875
15.569999900000001,5.583278179168701,6.914454460144043,-1.1755530834197998,-232.97119140625,-28.0914306640625,46.905517578125
15.5899999,5.717353820800781,6.921637058258057,-0.5195417404174805,-203.0487060546875,-37.4908447265625,45.9747314453125
15.6099999,5.762843608856201,6.897695064544678,0.6129156351089478,-95.3521728515625,-35.6292724609375,50.1556396484375
15.629999900000001,5.7772088050842285,6.9240312576293945,1.7357962131500244,3.3721923828125,-46.8597412109375,56.6253662109375
15.649999900000001,5.829881191253662,7.046135425567627,2.537853717803955,20.6756591796875,-58.8226318359375,47.0428466796875
15.6699999,5.9519853591918945,7.129932880401611,2.9305028915405273,-15.6707763671875,-46.9970703125,41.5191650390625
15.6899999,6.121973514556885,7.333439826965332,2.801215887069702,-25.6500244140625,-36.56005859375,43.1060791015625
15.709999900000001,6.382941722869873,7.38132381439209,2.3582887649536133,2.777099609375,-33.2183837890625,50.445556640625
15.729999900000001,6.562506675720215,7.364564418792725,1.8602946996688843,-19.012451171875,-36.224365234375,52.6275634765625
15.7499999,6.624756336212158,7.182605266571045,1.4844050407409668,-40.2374267578125,-33.4625244140625,46.5545654296875
15.7699999,6.675034523010254,6.813898086547852,1.1899182796478271,-4.5013427734375,-32.5164794921875,42.66357421875
15.789999900000002,6.651092529296875,6.4595561027526855,1.0438719987869263,-2.86865234375,-39.4744873046875,42.29736328125
15.809999900000001,6.701370716094971,6.054935932159424,0.8978256583213806,-16.815185546875,-41.1834716796875,43.45703125
15.8299999,6.8043212890625,5.738901615142822,0.7350199222564697,-9.1094970703125,-33.69140625,42.6025390625
15.8499999,6.919242858886719,5.544970989227295,0.6248866319656372,-18.524169921875,-33.4625244140625,41.6717529296875
15.869999900000002,7.0126166343688965,5.4252610206604,0.608127236366272,1.6326904296875,-39.703369140625,43.0145263671875
15.889999900000001,7.089231014251709,5.370194435119629,0.5913678407669067,42.8924560546875,-46.69189453125,49.407958984375
15.9099999,7.146692276000977,5.329493045806885,0.5841852426528931,21.881103515625,-52.276611328125,54.0008544921875
15.9299999,7.2113356590271,5.173870086669922,0.40701428055763245,-6.7291259765625,-57.6629638671875,54.13818359375
15.9499999,7.343016624450684,4.908113479614258,0.12689268589019775,14.3585205078125,-58.1207275390625,52.5665283203125
15.969999900000001,7.445967197418213,4.592078685760498,-0.21547815203666687,26.031494140625,-57.4951171875,50.7354736328125
15.9899999,7.527369976043701,4.225766181945801,-0.6153098344802856,16.3726806640625,-65.2618408203125,52.9632568359375
16.0099999,7.5848307609558105,3.8522706031799316,-1.0223240852355957,22.1405029296875,-72.0062255859375,56.6864013671875
16.0299999,7.682993412017822,3.450044631958008,-1.4724340438842773,24.0478515625,-89.691162109375,66.1468505859375
16.0499999,7.675810813903809,2.920926094055176,-2.205059766769409,55.0079345703125,-110.0921630859375,79.16259765625
16.0699999,7.795520782470703,2.3726539611816406,-3.251325845718384,124.7711181640625,-84.8236083984375,65.4144287109375
16.089999900000002,7.891288757324219,1.6543933153152466,-4.381389141082764,141.5863037109375,-40.4052734375,41.7022705078125
16.109999900000002,8.063671112060547,0.9097966551780701,-5.403713226318359,114.349365234375,-41.93115234375,32.379150390625
16.1299999,8.307879447937012,0.05267243832349777,-5.971138954162598,93.8568115234375,-62.1490478515625,25.6500244140625
16.1499999,8.506598472595215,-0.9193734526634216,-6.224924564361572,39.5355224609375,-96.74072265625,20.7672119140625
16.1699999,8.468291282653809,-1.9608511924743652,-6.478709697723389,0.244140625,-124.32861328125,11.2762451171875
16.1899999,8.101978302001953,-3.292027235031128,-7.0317702293396,29.0374755859375,-129.9896240234375,-9.857177734375
16.2099999,7.189787864685059,-5.20978307723999,-8.609549522399902,82.9925537109375,-149.1851806640625,-20.8587646484375
16.2299999,5.837063789367676,-8.966285705566406,-12.164938926696777,116.1651611328125,-139.1754150390625,-32.6385498046875
16.249999900000002,4.458003520965576,-15.907075881958008,-18.564640045166016,149.5361328125,-44.464111328125,-132.2021484375
16.269999900000002,1.5921441316604614,-26.151865005493164,-27.600357055664062,286.0565185546875,126.5716552734375,-396.54541015625
16.2899999,-5.767632007598877,-37.646427154541016,-38.1444206237793,482.0709228515625,318.878173828125,-500
16.3099999,-19.215862274169922,-43.37096405029297,-47.25436019897461,394.4244384765625,459.6099853515625,-500
16.3299999,-37.16758728027344,-36.46847915649414,-46.80424880981445,-146.54541015625,499.9847412109375,-500
16.3499999,-56.6132926940918,-15.533580780029297,-32.73831558227539,-473.297119140625,499.9847412109375,-500
16.3699999,-67.39677429199219,12.81855583190918,-9.107542991638184,-457.3211669921875,173.88916015625,-353.57666015625
16.3899999,-64.4088134765625,33.15251159667969,8.125920295715332,499.9847412109375,-144.4854736328125,138.3056640625
16.4099999,-51.068321228027344,42.216957092285156,18.744205474853516,499.9847412109375,101.6693115234375,45.7763671875
16.429999900000002,-31.340099334716797,37.48841094970703,17.061080932617188,-500,250.6561279296875,-93.3837890625
16.4499999,-13.261483192443848,26.388891220092773,10.11789608001709,-365.814208984375,93.7957763671875,19.04296875
16.4699999,-1.7980455160140991,16.70913314819336,6.840234279632568,109.4207763671875,27.64892578125,61.4471435546875
16.4899999,3.620033025741577,10.11550235748291,5.011064052581787,-76.0650634765625,49.774169921875,-20.01953125
16.5099999,5.070919036865234,6.224924564361572,2.655169725418091,-178.619384765625,75.98876953125,-55.48095703125
16.5299999,3.711012601852417,5.384559631347656,1.1444283723831177,-110.2142333984375,53.6956787109375,-19.683837890625
16.5499999,1.216254472732544,6.531382083892822,0.7852981686592102,-65.1702880859375,-5.9967041015625,33.477783203125
16.5699999,-1.036689281463623,8.11634349822998,1.015141487121582,-73.5015869140625,-24.6429443359375,32.0281982421875
16.589999900000002,-2.360682964324951,9.32541561126709,0.6153098344802856,0.335693359375,18.0816650390625,-4.364013671875
16.609999900000002,-2.715024709701538,9.938331604003906,-0.3734954595565796,20.32470703125,47.30224609375,-1.312255859375
16.6299999,-2.43011474609375,10.409989356994629,-0.9361328482627869,-20.416259765625,52.79541015625,4.94384765625
16.6499999,-1.8267759084701538,10.704475402832031,-0.9624691009521484,-37.0635986328125,23.0255126953125,20.9197998046875
16.6699999,-1.3455413579940796,10.967838287353516,-0.4668693244457245,-23.529052734375,-5.2032470703125,27.52685546875
16.6899999,-0.8188169598579407,10.970232009887695,0.12689268589019775,7.3089599609375,15.533447265625,15.80810546875
16.7099999,-0.35434186458587646,10.66137981414795,0.2346317619085312,24.1851806640625,30.303955078125,19.1497802734375
16.7299999,0.1173158809542656,10.309432983398438,0.22026655077934265,23.406982421875,26.06201171875,20.1416015625
16.749999900000002,0.5674257874488831,9.746794700622559,0.27054479718208313,-11.0626220703125,3.11279296875,21.42333984375
16.769999900000002,0.8379706144332886,9.229647636413574,0.22266076505184174,-40.4815673828125,-21.8658447265625,13.1988525390625
16.7899999,0.993593692779541,8.925583839416504,-0.0071826050989329815,-0.2593994140625,-10.162353515625,-7.6904296875
16.8099999,1.0031704902648926,8.803479194641113,-0.3734954595565796,22.3388671875,12.481689453125,-2.9144287109375
16.8299999,0.9672574996948242,8.978256225585938,-0.8547300100326538,2.5482177734375,4.2572021484375,5.6304931640625
16.8499999,0.9409212470054626,9.263166427612305,-0.9648633003234863,-24.8870849609375,-7.0648193359375,6.500244140625
16.8699999,0.9481038451194763,9.516951560974121,-0.8619126081466675,-65.4296875,-16.3421630859375,4.08935546875
16.8899999,0.9840168952941895,9.615114212036133,-0.44532153010368347,-45.8831787109375,-13.4429931640625,6.8359375
16.9099999,1.0199298858642578,9.536105155944824,-0.0933738648891449,8.6669921875,-8.5906982421875,10.711669921875
16.929999900000002,1.0079588890075684,9.385271072387695,0.26336219906806946,12.451171875,-8.3160400390625,4.2572021484375
16.9499999,0.9624691009521484,9.153033256530762,0.4429273009300232,-17.08984375,-13.214111328125,-4.2572021484375
16.9699999,0.9050082564353943,9.090784072875977,0.3926490843296051,-23.1170654296875,-16.11328125,-5.55419921875
16.9899999,0.8930372595787048,9.10993766784668,0.2322375625371933,2.1514892578125,-7.720947265625,-0.5035400390625
17.0099999,0.9313444495201111,9.162610054016113,-0.0694318488240242,20.2178955078125,2.532958984375,6.317138671875
17.0299999,0.9888052940368652,9.193734169006348,-0.3208230137825012,4.4708251953125,6.134033203125,2.2430419921875
17.0499999,1.070208191871643,9.136273384094238,-0.48602294921875,-22.0794677734375,1.708984375,-5.4168701171875
17.0699999,1.1492167711257935,9.047688484191895,-0.48602294921875,-26.79443359375,-1.0986328125,-5.4931640625
17.089999900000002,1.1348515748977661,9.038111686706543,-0.45250412821769714,-21.8963623046875,-1.46484375,-5.615234375
17.109999900000002,1.139639973640442,9.057265281677246,-0.2322375625371933,-9.3841552734375,12.8173828125,-9.1400146484375
17.1299999,1.0342950820922852,9.057265281677246,0.0071826050989329815,10.4217529296875,17.425537109375,-11.322021484375
17.1499999,0.9313444495201111,9.148244857788086,0.33758243918418884,13.97705078125,3.8909912109375,-16.0064697265625
17.1699999,0.849941611289978,9.210494041442871,0.5961562395095825,-6.9732666015625,-12.847900390625,-16.632080078125
17.1899999,0.8092401623725891,9.308655738830566,0.6799532771110535,-2.7313232421875,-13.3514404296875,-15.3045654296875
17.2099999,0.7757213711738586,9.399636268615723,0.4620809257030487,27.03857421875,-7.3394775390625,-17.1051025390625
17.2299999,0.7565677165985107,9.457097053527832,0.031124621629714966,36.3922119140625,-0.823974609375,-19.1192626953125
17.249999900000002,0.7206547260284424,9.509769439697266,-0.4596867263317108,15.1519775390625,5.3863525390625,-22.0184326171875
17.269999900000002,0.6703764796257019,9.59835433959961,-0.8259995579719543,-16.05224609375,4.8370361328125,-21.4691162109375
17.2899999,0.6416460275650024,9.703699111938477,-0.9840168952941895,-9.2620849609375,2.777099609375,-17.7459716796875
17.3099999,0.5722141861915588,9.746794700622559,-0.8475474119186401,-2.50244140625,-3.1585693359375,-14.6026611328125
17.3299999,0.5147533416748047,9.782708168029785,-0.6009446382522583,-7.3699951171875,-10.9100341796875,-17.76123046875
17.3499999,0.43095630407333374,9.742006301879883,-0.43095630407333374,-6.8206787109375,-14.6942138671875,-19.8516845703125
17.3699999,0.3734954595565796,9.706093788146973,-0.40222588181495667,8.23974609375,-11.7340087890625,-16.815185546875
17.3899999,0.3471592366695404,9.66299819946289,-0.586579442024231,23.92578125,-5.950927734375,-12.26806640625
17.409999900000003,0.31364041566848755,9.679757118225098,-0.7326257228851318,7.171630859375,-3.265380859375,-11.90185546875
17.429999900000002,0.28730419278144836,9.737217903137207,-0.7829039692878723,-13.641357421875,-8.2855224609375,-10.4217529296875
17.4499999,0.26575639843940735,9.806650161743164,-0.7445967197418213,-7.8582763671875,-16.2811279296875,-3.875732421875
17.4699999,0.2106897532939911,9.928754806518555,-0.6368576288223267,5.8135986328125,-14.46533203125,-2.1209716796875
17.4899999,0.090979665517807,10.04846477508545,-0.6224924325942993,1.3885498046875,-11.5966796875,1.4190673828125
17.5099999,-0.038307227194309235,10.070012092590332,-0.689530074596405,10.0860595703125,-4.5166015625,6.5155029296875
17.5299999,-0.19393034279346466,10.103530883789062,-0.8403648138046265,16.8304443359375,-1.5106201171875,6.3629150390625
17.5499999,-0.33279404044151306,10.108319282531738,-0.8595184087753296,2.227783203125,1.0528564453125,6.805419921875
17.5699999,-0.45250412821769714,10.192116737365723,-0.7661445140838623,-3.1280517578125,-0.0152587890625,18.0511474609375
17.589999900000002,-0.5051765441894531,10.278307914733887,-0.5626373887062073,-0.762939453125,-10.8489990234375,35.0494384765625
17.609999900000002,-0.44532153010368347,10.333374977111816,-0.4692635238170624,19.073486328125,-16.3726806640625,42.144775390625
17.6299999,-0.2585737705230713,10.261548042297363,-0.49559974670410156,9.8114013671875,-5.401611328125,43.731689453125
17.6499999,0.002394201699644327,10.055646896362305,-0.5386953949928284,-43.121337890625,-0.8544921875,46.7987060546875
17.6699999,0.17477671802043915,9.804255485534668,-0.4405331015586853,-55.2215576171875,-17.9901123046875,48.9349365234375
17.6899999,0.2537853717803955,9.531316757202148,-0.23942017555236816,-6.439208984375,-37.4755859375,44.342041015625
17.7099999,0.3064578175544739,9.23443603515625,-0.2082955539226532,39.3829345703125,-29.3121337890625,46.0968017578125
17.7299999,0.3711012601852417,9.124302864074707,-0.5267243981361389,17.608642578125,-17.0745849609375,53.253173828125
17.749999900000002,0.44532153010368347,9.193734169006348,-0.8331822156906128,-37.7960205078125,10.55908203125,52.337646484375
17.769999900000002,0.4381389021873474,9.464279174804688,-0.9145850539207458,-58.2122802734375,3.448486328125,57.281494140625
17.7899999,0.3447650372982025,9.634267807006836,-0.7158663272857666,-30.5633544921875,-14.007568359375,64.9261474609375
17.8099999,0.2849099934101105,9.636661529541016,-0.2298433631658554,2.50244140625,1.983642578125,43.6553955078125
17.8299999,0.2968810200691223,9.48343276977539,0.42856210470199585,-16.571044921875,9.2926025390625,18.1884765625
17.8499999,0.3902548849582672,9.246406555175781,0.8523358106613159,13.092041015625,-18.402099609375,17.6544189453125
17.8699999,0.6009446382522583,8.995016098022461,0.8882488012313843,90.576171875,-30.4718017578125,22.7203369140625
17.8899999,0.8571242094039917,8.882488250732422,0.3758896589279175,45.4254150390625,-10.406494140625,14.892578125
17.909999900000003,1.161187767982483,8.860940933227539,-0.47644615173339844,-51.6357421875,26.2451171875,2.50244140625
17.929999900000002,1.400607943534851,9.378087997436523,-0.751779317855835,-103.759765625,27.6031494140625,0.732421875
17.9499999,1.5849615335464478,10.129867553710938,-0.19632454216480255,-84.2132568359375,-13.0767822265625,10.5438232421875
17.9699999,1.742978811264038,10.773907661437988,0.7254431247711182,-45.196533203125,-57.2967529296875,24.200439453125
17.9899999,2.011129379272461,11.183316230773926,1.5394717454910278,-21.3165283203125,-47.9736328125,4.69970703125
18.0099999,2.322375535964966,11.250353813171387,1.7932571172714233,-10.7421875,-18.49365234375,-8.9263916015625
18.0299999,2.5977089405059814,11.36048698425293,1.702277421951294,0.9002685546875,-16.876220703125,9.307861328125
18.0499999,2.762908697128296,11.693281173706055,1.482010841369629,-20.477294921875,-46.9818115234375,33.935546875
18.0699999,2.9065608978271484,12.076353073120117,0.9768342971801758,-44.708251953125,-57.1441650390625,44.7540283203125
18.089999900000002,3.1220390796661377,12.291831970214844,0.31603461503982544,-42.41943359375,-22.3541259765625,45.7305908203125
18.109999900000002,3.450044631958008,12.210428237915039,-0.10295066982507706,-98.5870361328125,-8.7127685546875,58.319091796875
18.1299999,3.7828385829925537,11.75553035736084,0.22505496442317963,-175.567626953125,-32.4859619140625,82.275390625
18.1499999,4.065354347229004,11.085153579711914,1.2449848651885986,-150.4058837890625,-62.7899169921875,85.235595703125
18.1699999,4.304774761199951,10.187328338623047,2.3535003662109375,-78.2318115234375,-80.322265625,77.4688720703125
18.1899999,4.541800498962402,9.119514465332031,3.337517261505127,-39.825439453125,-71.2890625,84.2132568359375
18.2099999,4.668693542480469,8.2312650680542,3.529053211212158,62.3626708984375,-68.878173828125,97.4884033203125
18.2299999,4.747702121734619,7.565677165985107,3.531447410583496,68.7255859375,-72.357177734375,98.541259765625
18.249999900000002,4.685452938079834,7.2352776527404785,3.1675288677215576,4.241943359375,-73.30322265625,76.416015625
18.269999900000002,4.60165548324585,7.254431247711182,2.497152328491211,29.1748046875,-65.5517578125,52.2003173828125
18.2899999,4.67827033996582,7.309497833251953,1.6208745241165161,49.5452880859375,-53.863525390625,37.78076171875
18.3099999,4.819528102874756,7.398083209991455,0.7182605266571045,-5.462646484375,-40.4510498046875,30.4107666015625
18.3299999,5.044582843780518,7.513004779815674,-0.05746084079146385,-61.859130859375,-50.1708984375,30.1666259765625
18.3499999,5.2696380615234375,7.599195957183838,-0.6009446382522583,-66.10107421875,-53.253173828125,40.2984619140625
18.3699999,5.4659624099731445,7.63989782333374,-0.9576807022094727,-64.0411376953125,-53.070068359375,51.971435546875
18.3899999,5.669469833374023,7.479485988616943,-1.1420341730117798,-53.64990234375,-46.2493896484375,43.39599609375
18.409999900000003,5.858611583709717,7.307103633880615,-1.194706678390503,-20.6756591796875,-42.1295166015625,26.06201171875
18.429999900000002,6.04775333404541,7.1921820640563965,-1.1994950771331787,-16.3421630859375,-52.978515625,32.5164794921875
18.4499999,6.2392897605896,7.15387487411499,-1.3287819623947144,-52.8717041015625,-53.1005859375,60.5010986328125
18.4699999,6.476315498352051,7.177816867828369,-1.4293384552001953,-67.0166015625,-26.8402099609375,60.72998046875
18.4899999,6.722918510437012,7.086836814880371,-1.50355863571167,-64.697265625,-18.829345703125,45.196533203125
18.5099999,6.971915245056152,6.89530086517334,-1.3694833517074585,-40.0390625,-28.7322998046875,39.215087890625
18.5299999,7.161057472229004,6.746860504150391,-1.0797849893569946,-21.7132568359375,-30.7464599609375,46.1273193359375
18.5499999,7.280767440795898,6.6630635261535645,-0.7374141216278076,-40.374755859375,-24.4293212890625,56.243896484375
18.5699999,7.359776020050049,6.540958881378174,-0.3758896589279175,-54.13818359375,-16.387939453125,54.7943115234375
18.589999900000002,7.429207801818848,6.335057735443115,-0.038307227194309235,-46.7987060546875,-25.3448486328125,48.9654541015625
18.609999900000002,7.47230339050293,6.01423454284668,0.3447650372982025,-40.771484375,-36.0260009765625,45.41015625
18.6299999,7.496245384216309,5.702988624572754,0.646434485912323,-52.8411865234375,-43.1060791015625,44.61669921875
18.6499999,7.51779317855835,5.442020416259766,0.7350199222564697,-53.4210205078125,-42.1600341796875,46.32568359375
18.6699999,7.553706169128418,5.367800235748291,0.6943184733390808,-50.6744384765625,-38.970947265625,43.4722900390625
18.6899999,7.613561630249023,5.442020416259766,0.6943184733390808,-39.215087890625,-43.5943603515625,45.2728271484375
18.7099999,7.714118003845215,5.5976433753967285,0.6584054827690125,-35.614013671875,-60.6689453125,58.4564208984375
18.7299999,7.814674377441406,5.640739440917969,0.545877993106842,-44.677734375,-63.812255859375,67.44384765625
18.749999900000002,7.955932140350342,5.604825973510742,0.304063618183136,-45.654296875,-50.6591796875,54.6875
18.769999900000002,8.101978302001953,5.5114521980285645,-0.033518824726343155,-26.9775390625,-45.7611083984375,46.142578125
18.7899999,8.283937454223633,5.43723201751709,-0.3711012601852417,-24.566650390625,-58.1207275390625,60.7147216796875
18.8099999,8.482656478881836,5.4228668212890625,-0.6224924325942993,-43.2281494140625,-61.0504150390625,75.1190185546875
18.8299999,8.71728801727295,5.461174011230469,-0.8164227604866028,-65.643310546875,-53.1005859375,73.7762451171875
18.8499999,8.89445972442627,5.415684223175049,-0.849941611289978,-96.832275390625,-55.3436279296875,73.1353759765625
18.8699999,9.014169692993164,5.178658485412598,-0.8906430602073669,-76.324462890625,-66.6961669921875,83.2366943359375
18.8899999,9.040505409240723,4.733336925506592,-0.8930372595787048,-27.374267578125,-66.0552978515625,87.554931640625
18.909999900000003,8.987833023071289,4.027047157287598,-1.0462661981582642,-10.5133056640625,-65.36865234375,87.7227783203125
18.929999900000002,8.89685344696045,3.1675288677215576,-1.4053963422775269,3.082275390625,-64.6820068359375,91.1712646484375
18.9499999,8.741230010986328,2.231395959854126,-1.8339585065841675,10.0860595703125,-61.9049072265625,94.7113037109375
18.9699999,8.564059257507324,1.2617442607879639,-2.341529369354248,21.5301513671875,-65.7958984375,92.8955078125
18.9899999,8.365341186523438,0.181959331035614,-2.87064790725708,23.3306884765625,-66.2078857421875,84.4879150390625
19.0099999,8.190564155578613,-0.9457096457481384,-3.4165258407592773,10.1470947265625,-60.8673095703125,68.756103515625
19.0299999,8.051700592041016,-2.0039467811584473,-3.9839515686035156,8.6517333984375,-61.0198974609375,51.666259765625
19.0499999,7.934384346008301,-2.868253707885742,-4.481945514678955,12.39013671875,-65.2618408203125,40.2679443359375
19.0699999,7.762001991271973,-3.399766445159912,-4.845864295959473,18.768310546875,-68.17626953125,28.656005859375
19.089999900000002,7.529764175415039,-3.687070608139038,-5.16429328918457,47.1038818359375,-65.521240234375,14.5721435546875
19.109999900000002,7.201758861541748,-3.818751811981201,-5.415684223175049,35.0799560546875,-65.887451171875,2.349853515625
19.1299999,6.835445880889893,-3.907337188720703,-5.643133640289307,21.4691162109375,-65.9027099609375,-12.1307373046875
19.1499999,6.543353080749512,-4.129997730255127,-5.954379558563232,50.689697265625,-59.8297119140625,-29.388427734375
19.1699999,6.296750545501709,-4.525041103363037,-6.078877925872803,71.8841552734375,-54.6112060546875,-58.65478515625
19.1899999,6.107608318328857,-4.642356872558594,-5.978321552276611,136.7950439453125,-67.0013427734375,-109.0850830078125
19.2099999,5.604825973510742,-4.72376012802124,-6.301538944244385,176.1627197265625,-131.0882568359375,-104.8431396484375
19.2299999,4.838681697845459,-5.140350818634033,-8.003816604614258,176.3916015625,-156.768798828125,-79.803466796875
19.249999900000002,3.993528366088867,-8.415618896484375,-11.578359603881836,78.1402587890625,-73.8677978515625,-59.9517822265625
19.269999900000002,2.8227639198303223,-16.225505828857422,-16.6420955657959,-25.421142578125,42.510986328125,-151.3214111328125
19.2899999,0.6320692300796509,-27.171794891357422,-22.534225463867188,-26.2451171875,89.447021484375,-445.1446533203125
19.3099999,-5.04218864440918,-37.16998291015625,-28.534095764160156,178.2989501953125,158.5845947265625,-500
19.3299999,-16.687585830688477,-37.67276382446289,-29.666553497314453,79.0557861328125,307.43408203125,-500
19.3499999,-31.122228622436523,-27.303476333618164,-27.444734573364258,-268.9208984375,339.141845703125,-500
19.3699999,-47.73798751831055,-8.937555313110352,-16.802507400512695,-465.3778076171875,453.4149169921875,-500
19.3899999,-58.27247619628906,15.473725318908691,2.846705913543701,-500,499.9847412109375,-500
19.409999900000003,-60.257266998291016,34.57227325439453,21.39698028564453,103.1341552734375,243.6370849609375,-295.41015625
19.429999900000002,-51.429847717285156,45.892059326171875,28.876466751098633,499.9847412109375,-94.451904296875,-38.360595703125
19.4499999,-37.67755126953125,49.373226165771484,31.186870574951172,-25.665283203125,126.800537109375,47.943115234375
19.4699999,-21.174320220947266,42.00148010253906,20.757728576660156,-500,106.75048828125,140.6707763671875
19.4899999,-8.161833763122559,29.676130294799805,11.077971458435059,13.7939453125,29.96826171875,122.5433349609375
19.5099999,-0.023942016065120697,16.187198638916016,5.5760955810546875,70.80078125,22.491455078125,52.093505859375
19.5299999,4.07014274597168,5.142745018005371,1.9608511924743652,-83.6181640625,49.4842529296875,-2.8228759765625
19.5499999,4.920084476470947,-0.6943184733390808,0.20350714027881622,-72.93701171875,59.4482421875,-17.852783203125
19.5699999,3.804386615753174,-1.4867992401123047,0.38067805767059326,-38.6199951171875,35.003662109375,0.396728515625
19.589999900000002,1.9632453918457031,0.9624691009521484,1.5179238319396973,28.228759765625,11.138916015625,27.40478515625
19.609999900000002,0.3064578175544739,4.496310710906982,2.671929121017456,19.6685791015625,2.3651123046875,31.707763671875
19.6299999,-0.811634361743927,7.548917770385742,2.985569477081299,-36.834716796875,2.3345947265625,23.681640625
19.6499999,-1.2425906658172607,9.672574996948242,2.535459518432617,-11.505126953125,10.8642578125,23.3306884765625
19.6699999,-1.2401964664459229,11.051634788513184,1.9297266006469727,50.750732421875,20.599365234375,28.8238525390625
19.6899999,-0.9840168952941895,11.623848915100098,1.4748282432556152,119.2779541015625,21.942138671875,36.5753173828125
19.7099999,-0.5889736413955688,11.520898818969727,1.1109095811843872,136.23046875,23.529052734375,30.1513671875
19.7299999,-0.1604115068912506,10.984597206115723,0.7996633648872375,69.1986083984375,18.096923828125,14.007568359375
19.749999900000002,0.2753331959247589,10.050858497619629,0.4165911078453064,58.929443359375,10.345458984375,19.9737548828125
19.769999900000002,0.6440402865409851,9.346963882446289,-0.06703764945268631,88.9892578125,9.735107421875,17.181396484375
19.7899999,0.8547300100326538,8.820239067077637,-0.47884035110473633,32.16552734375,3.3111572265625,7.354736328125
19.8099999,0.9840168952941895,8.458714485168457,-0.8571242094039917,-7.99560546875,10.0860595703125,1.6326904296875
19.8299999,0.9888052940368652,8.398859977722168,-1.2306196689605713,-37.2467041015625,1.434326171875,0.67138671875
19.8499999,0.9481038451194763,8.458714485168457,-1.37906014919281,-49.713134765625,1.556396484375,8.758544921875
19.8699999,0.8619126081466675,8.793902397155762,-1.292868971824646,-78.5675048828125,4.5928955078125,13.5345458984375
19.8899999,0.7589619159698486,9.155426979064941,-0.9193734526634216,-110.6719970703125,1.6326904296875,25.3143310546875
19.909999900000003,0.6727706789970398,9.514557838439941,-0.45010992884635925,-68.4661865234375,-5.340576171875,27.40478515625
19.929999900000002,0.689530074596405,9.641449928283691,0.009576806798577309,-9.7808837890625,0.030517578125,18.6004638671875
19.9499999,0.751779317855835,9.636661529541016,0.363918662071228,-10.7574462890625,9.521484375,7.6904296875
19.9699999,0.8954314589500427,9.493009567260742,0.5339069962501526,-16.7236328125,9.124755859375,0.1678466796875
19.9899999,1.0247182846069336,9.476250648498535,0.6871358752250671,-19.8822021484375,4.8370361328125,-1.251220703125
20.0099999,1.1252747774124146,9.48343276977539,0.7541735172271729,5.06591796875,0.0152587890625,5.1422119140625
20.0299999,1.1755530834197998,9.545681953430176,0.7182605266571045,34.820556640625,1.495361328125,7.7056884765625
20.0499999,1.1851298809051514,9.536105155944824,0.42856210470199585,44.2352294921875,9.9945068359375,5.828857421875
20.0699999,1.173158884048462,9.516951560974121,0.13168109953403473,14.3280029296875,20.81298828125,3.9215087890625
20.089999900000002,1.1563993692398071,9.490615844726562,-0.040701430290937424,-13.3209228515625,17.9595947265625,8.2244873046875
20.109999900000002,1.139639973640442,9.425971984863281,0.002394201699644327,10.2691650390625,7.32421875,13.427734375
20.1299999,1.1324573755264282,9.330204010009766,0.2082955539226532,33.721923828125,2.8228759765625,8.5601806640625
20.1499999,1.1420341730117798,9.11233139038086,0.2849099934101105,24.139404296875,-0.18310546875,4.302978515625
20.1699999,1.161187767982483,8.923190116882324,0.11971008777618408,12.1307373046875,0.885009765625,1.312255859375
20.1899999,1.2042834758758545,8.808267593383789,-0.22026655077934265,18.1121826171875,10.955810546875,-4.6844482421875
20.2099999,1.2258312702178955,8.810662269592285,-0.40462008118629456,-12.481689453125,13.24462890625,-7.049560546875
20.2299999,1.256955862045288,8.911218643188477,-0.35913026332855225,-41.015625,-1.953125,-5.2337646484375
