# Time (seconds),Accel_X,Accel_Y,Accel_Z,Gyro_X,Gyro_Y,Gyro_Z
0.0099999,6.847416877746582,-7.041347026824951,-1.2210428714752197,0.4119873046875,0.8697509765625,1.0223388671875
0.029999900000000003,6.847416877746582,-7.048529624938965,-1.2114660739898682,2.899169921875,0.9002685546875,1.8463134765625
0.0499999,6.840234279632568,-7.036558628082275,-1.1851298809051514,2.5177001953125,1.617431640625,1.5869140625
0.0699999,6.825869083404541,-7.029376029968262,-1.158793568611145,1.312255859375,1.2054443359375,1.2969970703125
0.08999990000000001,6.813898086547852,-7.029376029968262,-1.1492167711257935,1.6326904296875,-0.2899169921875,1.5869140625
0.10999990000000001,6.8043212890625,-7.036558628082275,-1.1444283723831177,1.5106201171875,0.7171630859375,1.190185546875
0.1299999,6.799532890319824,-7.050923824310303,-1.1348515748977661,-0.91552734375,2.593994140625,0.701904296875
0.14999990000000002,6.797138690948486,-7.0557122230529785,-1.1492167711257935,0.946044921875,0.396728515625,0.67138671875
0.1699999,6.797138690948486,-7.053318023681641,-1.1420341730117798,2.0599365234375,0.7476806640625,0.9002685546875
0.1899999,6.797138690948486,-7.048529624938965,-1.1420341730117798,1.6632080078125,2.0599365234375,1.190185546875
0.20999990000000002,6.7923502922058105,-7.0341644287109375,-1.1516109704971313,0.5950927734375,1.8463134765625,0.946044921875
0.2299999,6.789956092834473,-7.01979923248291,-1.1300631761550903,0.8697509765625,2.8076171875,0.6866455078125
0.2499999,6.780379295349121,-7.010222434997559,-1.113303780555725,3.3416748046875,1.617431640625,1.708984375
0.2699999,6.773196697235107,-7.022193431854248,-1.0869675874710083,3.570556640625,1.0528564453125,2.5482177734375
0.28999990000000003,6.761225700378418,-7.0557122230529785,-1.0582371950149536,1.8768310546875,2.44140625,1.2969970703125
0.3099999,6.754043102264404,-7.096413612365723,-1.0462661981582642,-1.8157958984375,0.9002685546875,-0.3662109375
0.3299999,6.754043102264404,-7.132327079772949,-1.0534487962722778,-1.708984375,-0.7171630859375,-0.762939453125
0.34999990000000003,6.751648902893066,-7.1251444816589355,-1.0630255937576294,-2.4871826171875,0.4730224609375,-0.6561279296875
0.3699999,6.75883150100708,-7.115567684173584,-1.0893617868423462,0.06103515625,1.4801025390625,0.396728515625
0.3899999,6.763619899749756,-7.084442615509033,-1.1228805780410767,1.52587890625,0.823974609375,0.274658203125
0.40999990000000003,6.768408298492432,-7.067683219909668,-1.1444283723831177,0.8544921875,1.3275146484375,-0.3662109375
0.4299999,6.7708024978637695,-7.060500621795654,-1.1635819673538208,1.068115234375,2.1514892578125,0.2288818359375
0.4499999,6.7708024978637695,-7.060500621795654,-1.1683704853057861,-0.7781982421875,1.7852783203125,0.4119873046875
0.4699999,6.7708024978637695,-7.060500621795654,-1.1540051698684692,-1.1444091796875,1.7242431640625,-0.1373291015625
0.4899999,6.773196697235107,-7.062894821166992,-1.1492167711257935,0.4425048828125,0.4730224609375,-0.030517578125
0.5099999,6.777985095977783,-7.058106422424316,-1.139639973640442,-1.007080078125,1.40380859375,-0.152587890625
0.5299999,6.787561893463135,-7.053318023681641,-1.1516109704971313,-1.5106201171875,2.105712890625,0.30517578125
0.5499999,6.794744491577148,-7.043741226196289,-1.161187767982483,-1.3427734375,1.8157958984375,0.1220703125
0.5699999,6.797138690948486,-7.053318023681641,-1.1635819673538208,0.18310546875,2.7618408203125,0.5645751953125
0.5899998999999999,6.794744491577148,-7.062894821166992,-1.1516109704971313,-0.5035400390625,2.9449462890625,0.0457763671875
0.6099998999999999,6.782773494720459,-7.079654216766357,-1.1420341730117798,-0.4425048828125,1.9073486328125,-0.274658203125
0.6299999,6.773196697235107,-7.091625213623047,-1.1180921792984009,-1.953125,2.4871826171875,-0.30517578125
0.6499999,6.761225700378418,-7.091625213623047,-1.091755986213684,-1.89208984375,3.0670166015625,-0.4425048828125
0.6699999,6.751648902893066,-7.089231014251709,-1.0606313943862915,-0.3509521484375,2.288818359375,0.0762939453125
0.6899999,6.744466304779053,-7.079654216766357,-1.0342950820922852,-0.701904296875,1.0528564453125,-0.152587890625
0.7099999,6.744466304779053,-7.082048416137695,-1.0223240852355957,-0.2288818359375,0.5645751953125,-0.0762939453125
0.7299998999999999,6.7492547035217285,-7.079654216766357,-1.0247182846069336,-1.5869140625,1.3275146484375,-0.6561279296875
0.7499998999999999,6.761225700378418,-7.084442615509033,-1.0462661981582642,-0.30517578125,1.3885498046875,-0.579833984375
0.7699999,6.775590896606445,-7.074865818023682,-1.070208191871643,0.579833984375,0.640869140625,-0.5645751953125
0.7899999,6.787561893463135,-7.058106422424316,-1.0797849893569946,-0.48828125,0.9307861328125,-0.42724609375
0.8099999,6.797138690948486,-7.048529624938965,-1.0965443849563599,1.52587890625,1.3427734375,0.518798828125
0.8299999,6.794744491577148,-7.041347026824951,-1.0965443849563599,0.640869140625,1.4801025390625,-0.0457763671875
0.8499998999999999,6.789956092834473,-7.043741226196289,-1.1013327836990356,0.2288818359375,0.8087158203125,-0.396728515625
0.8699998999999999,6.782773494720459,-7.048529624938965,-1.0989385843276978,-0.0457763671875,0.91552734375,-0.335693359375
0.8899999,6.773196697235107,-7.048529624938965,-1.0965443849563599,-1.4495849609375,1.129150390625,-0.3814697265625
0.9099999,6.766014099121094,-7.0341644287109375,-1.0965443849563599,-4.1351318359375,0.213623046875,-0.6866455078125
0.9299999,6.763619899749756,-7.026981830596924,-1.091755986213684,-5.1727294921875,0.2288818359375,0.6103515625
0.9499999,6.761225700378418,-7.026981830596924,-1.1037269830703735,-3.631591796875,0.091552734375,1.0223388671875
0.9699998999999999,6.763619899749756,-7.036558628082275,-1.115697979927063,-2.044677734375,0.823974609375,0.6256103515625
0.9899998999999999,6.7708024978637695,-7.062894821166992,-1.1252747774124146,-2.1514892578125,1.739501953125,0.244140625
1.0099999,6.775590896606445,-7.074865818023682,-1.137245774269104,-1.373291015625,0.8544921875,0.0152587890625
1.0299999,6.782773494720459,-7.084442615509033,-1.1276689767837524,-0.3814697265625,1.312255859375,0.3814697265625
1.0499999,6.782773494720459,-7.086836814880371,-1.1324573755264282,-0.9002685546875,0.518798828125,0.152587890625
1.0699999,6.777985095977783,-7.086836814880371,-1.137245774269104,-2.7618408203125,0.030517578125,-0.6103515625
1.0899999,6.768408298492432,-7.084442615509033,-1.139639973640442,-2.3193359375,1.4190673828125,-0.579833984375
1.1099999,6.756437301635742,-7.072471618652344,-1.1468225717544556,0.3662109375,1.373291015625,-0.2288818359375
1.1299999,6.746860504150391,-7.0557122230529785,-1.1444283723831177,-0.1068115234375,0.5035400390625,0.030517578125
1.1499999,6.742072105407715,-7.043741226196289,-1.1540051698684692,0.18310546875,0.2288818359375,0.6561279296875
1.1699998999999999,6.744466304779053,-7.043741226196289,-1.170764684677124,0.2288818359375,0.7476806640625,0.6256103515625
1.1899998999999999,6.7492547035217285,-7.053318023681641,-1.1803414821624756,0.7781982421875,2.685546875,-0.030517578125
1.2099999,6.75883150100708,-7.060500621795654,-1.1994950771331787,0.8392333984375,1.129150390625,-0.1220703125
1.2299999,6.763619899749756,-7.062894821166992,-1.192312479019165,0.0762939453125,0.9918212890625,0.1983642578125
1.2499999,6.7708024978637695,-7.062894821166992,-1.1803414821624756,-2.50244140625,1.6326904296875,0.48828125
1.2699999,6.768408298492432,-7.048529624938965,-1.1803414821624756,-1.8310546875,0.579833984375,-0.30517578125
1.2899999,6.7708024978637695,-7.060500621795654,-1.1635819673538208,2.9449462890625,2.3193359375,0.946044921875
1.3099999,6.768408298492432,-7.058106422424316,-1.170764684677124,2.349853515625,1.6632080078125,0.8087158203125
1.3299999,6.768408298492432,-7.067683219909668,-1.161187767982483,-0.54931640625,1.068115234375,-0.3662109375
1.3499999,6.763619899749756,-7.072471618652344,-1.1635819673538208,-1.6326904296875,1.373291015625,-0.42724609375
1.3699999,6.756437301635742,-7.062894821166992,-1.161187767982483,-0.1678466796875,1.220703125,-0.18310546875
1.3899999,6.746860504150391,-7.046135425567627,-1.1444283723831177,-1.8310546875,2.4566650390625,0.3509521484375
1.4099999,6.737283706665039,-7.0317702293396,-1.1492167711257935,0.2288818359375,0.54931640625,1.0986328125
1.4299998999999999,6.72531270980835,-7.026981830596924,-1.1180921792984009,0.7476806640625,2.105712890625,0.8392333984375
1.4499999,6.722918510437012,-7.050923824310303,-1.1228805780410767,1.708984375,1.40380859375,1.2969970703125
1.4699999,6.720524311065674,-7.079654216766357,-1.1204863786697388,0.06103515625,0.54931640625,0.3204345703125
1.4899999,6.730101108551025,-7.117961883544922,-1.1276689767837524,-2.38037109375,1.2359619140625,-0.1678466796875
1.5099999,6.742072105407715,-7.127538681030273,-1.1492167711257935,-1.4801025390625,0.1983642578125,-0.5950927734375
1.5299999,6.75883150100708,-7.117961883544922,-1.1779472827911377,-0.1373291015625,0.8697509765625,-0.1373291015625
1.5499999,6.773196697235107,-7.086836814880371,-1.2018892765045166,0.42724609375,2.1514892578125,0.4425048828125
1.5699999,6.782773494720459,-7.048529624938965,-1.213860273361206,-0.3662109375,2.8533935546875,0.3204345703125
1.5899999,6.782773494720459,-7.026981830596924,-1.216254472732544,-0.06103515625,1.6937255859375,0.9002685546875
1.6099999,6.768408298492432,-7.017405033111572,-1.1875240802764893,-1.64794921875,1.800537109375,0.5645751953125
1.6299999,6.7492547035217285,-7.0341644287109375,-1.1540051698684692,-1.190185546875,2.5177001953125,0.4119873046875
1.6499999,6.730101108551025,-7.050923824310303,-1.1252747774124146,1.64794921875,1.5411376953125,0.4119873046875
1.6699999,6.715735912322998,-7.070077419281006,-1.1061211824417114,2.2430419921875,1.3275146484375,0.518798828125
1.6899998999999999,6.710947513580322,-7.086836814880371,-1.0893617868423462,-0.4425048828125,2.4261474609375,0.9765625
1.7099999,6.710947513580322,-7.091625213623047,-1.0869675874710083,-1.9989013671875,1.3275146484375,0.335693359375
1.7299999,6.715735912322998,-7.101202011108398,-1.0989385843276978,0.0152587890625,-0.030517578125,0.335693359375
1.7499999,6.722918510437012,-7.096413612365723,-1.1061211824417114,-0.7781982421875,1.556396484375,0.244140625
1.7699999,6.737283706665039,-7.101202011108398,-1.1300631761550903,0.7476806640625,2.716064453125,0.9613037109375
1.7899999,6.744466304779053,-7.094019412994385,-1.1444283723831177,-0.5645751953125,1.3885498046875,0.2593994140625
1.8099999,6.751648902893066,-7.086836814880371,-1.1563993692398071,0.1068115234375,0.762939453125,0.0152587890625
1.8299999,6.7492547035217285,-7.084442615509033,-1.1516109704971313,0.1983642578125,1.739501953125,0.457763671875
1.8499999,6.744466304779053,-7.082048416137695,-1.1659762859344482,0.0762939453125,1.46484375,0.79345703125
1.8699999,6.739677906036377,-7.084442615509033,-1.173158884048462,-0.0152587890625,1.2664794921875,0.152587890625
1.8899999,6.732495307922363,-7.079654216766357,-1.1659762859344482,-1.8463134765625,2.7618408203125,-0.3204345703125
1.9099999,6.732495307922363,-7.079654216766357,-1.1827356815338135,0.79345703125,0.6103515625,0.946044921875
1.9299998999999999,6.72531270980835,-7.058106422424316,-1.1492167711257935,0,2.838134765625,0.579833984375
1.9499999,6.722918510437012,-7.050923824310303,-1.1540051698684692,1.2359619140625,2.0904541015625,1.1138916015625
1.9699999,6.715735912322998,-7.043741226196289,-1.1204863786697388,-1.0528564453125,1.6326904296875,0.701904296875
1.9899999,6.710947513580322,-7.048529624938965,-1.1085153818130493,-2.685546875,1.52587890625,0.9002685546875
2.0099999,6.708553314208984,-7.058106422424316,-1.0893617868423462,-2.349853515625,0.7171630859375,1.40380859375
2.0299999,6.715735912322998,-7.089231014251709,-1.094150185585022,-0.1373291015625,1.03759765625,1.7242431640625
2.0499999,6.72531270980835,-7.1251444816589355,-1.1037269830703735,-0.5340576171875,1.4495849609375,1.220703125
2.0699999,6.737283706665039,-7.163451671600342,-1.1228805780410767,-1.1444091796875,1.6021728515625,0.1373291015625
2.0899999,6.744466304779053,-7.173028469085693,-1.1348515748977661,-0.8544921875,1.617431640625,-0.2593994140625
2.1099999,6.746860504150391,-7.158663272857666,-1.1444283723831177,-0.2899169921875,1.068115234375,0.1220703125
2.1299999,6.744466304779053,-7.137115478515625,-1.1563993692398071,0.9002685546875,1.0528564453125,1.129150390625
2.1499999,6.732495307922363,-7.108384609222412,-1.1563993692398071,-1.251220703125,1.89208984375,0.42724609375
2.1699999,6.72531270980835,-7.105990409851074,-1.161187767982483,0.091552734375,1.800537109375,0.274658203125
2.1899999,6.71334171295166,-7.101202011108398,-1.1516109704971313,1.9683837890625,1.800537109375,0.396728515625
2.2099999,6.708553314208984,-7.108384609222412,-1.1348515748977661,1.3580322265625,1.8463134765625,0.7781982421875
2.2299999,6.703764915466309,-7.108384609222412,-1.1228805780410767,0.213623046875,1.1444091796875,0.48828125
2.2499999,6.703764915466309,-7.105990409851074,-1.1061211824417114,-0.8544921875,1.678466796875,0.1983642578125
2.2699999,6.710947513580322,-7.12035608291626,-1.1109095811843872,0.6561279296875,0.9765625,0.9307861328125
2.2899999,6.715735912322998,-7.129932880401611,-1.1085153818130493,-0.06103515625,1.220703125,0.3814697265625
2.3099999,6.722918510437012,-7.134721279144287,-1.1109095811843872,-0.6103515625,2.0294189453125,-0.701904296875
2.3299999,6.72531270980835,-7.132327079772949,-1.1204863786697388,0.213623046875,0.8392333984375,-0.152587890625
2.3499999,6.72531270980835,-7.127538681030273,-1.1228805780410767,0.9307861328125,1.40380859375,0.9307861328125
2.3699999,6.715735912322998,-7.117961883544922,-1.115697979927063,0.2899169921875,2.899169921875,0.6256103515625
2.3899999,6.7061591148376465,-7.1251444816589355,-1.115697979927063,-0.2288818359375,1.5716552734375,0.274658203125
2.4099999,6.696582317352295,-7.129932880401611,-1.1013327836990356,-0.6256103515625,0.5950927734375,-0.1983642578125
2.4299999,6.687005519866943,-7.129932880401611,-1.091755986213684,-1.1749267578125,1.4495849609375,-0.18310546875
2.4499999,6.682217121124268,-7.122750282287598,-1.0893617868423462,0.0762939453125,1.1444091796875,0.4119873046875
2.4699999,6.67982292175293,-7.103596210479736,-1.0893617868423462,-0.946044921875,1.1749267578125,0.4119873046875
2.4899999,6.682217121124268,-7.096413612365723,-1.0965443849563599,-0.2593994140625,1.2054443359375,0.823974609375
2.5099999,6.6846113204956055,-7.096413612365723,-1.094150185585022,-0.6256103515625,1.739501953125,1.28173828125
2.5299999,6.689399719238281,-7.103596210479736,-1.094150185585022,-0.8697509765625,0.54931640625,0.79345703125
2.5499999,6.698976516723633,-7.127538681030273,-1.094150185585022,0.2288818359375,0.18310546875,0.7781982421875
2.5699999,6.710947513580322,-7.146692276000977,-1.0989385843276978,-1.251220703125,0.1068115234375,0.30517578125
2.5899999,6.720524311065674,-7.158663272857666,-1.113303780555725,-1.678466796875,0.3814697265625,-0.18310546875
2.6099999,6.730101108551025,-7.163451671600342,-1.1348515748977661,0.213623046875,0.4730224609375,0.335693359375
2.6299999,6.732495307922363,-7.156269073486328,-1.161187767982483,1.1138916015625,0.48828125,0.2899169921875
2.6499999,6.7277069091796875,-7.1490864753723145,-1.1851298809051514,0.244140625,1.0986328125,0.1983642578125
2.6699999,6.715735912322998,-7.137115478515625,-1.1994950771331787,-0.54931640625,1.953125,-0.0762939453125
2.6899999,6.698976516723633,-7.12035608291626,-1.1899182796478271,-0.0457763671875,2.25830078125,0.030517578125
2.7099999,6.677428722381592,-7.115567684173584,-1.1755530834197998,1.3427734375,1.0986328125,0.946044921875
2.7299999,6.655880928039551,-7.096413612365723,-1.1300631761550903,-1.46484375,1.708984375,0.3509521484375
2.7499999,6.641515731811523,-7.110779285430908,-1.1061211824417114,-1.617431640625,1.007080078125,0.6256103515625
2.7699999,6.63433313369751,-7.117961883544922,-1.0797849893569946,-0.946044921875,1.1138916015625,0.885009765625
2.7899999,6.636727333068848,-7.134721279144287,-1.0678139925003052,0.2288818359375,1.434326171875,0.5035400390625
2.8099999,6.648698329925537,-7.146692276000977,-1.0654197931289673,1.28173828125,0.9307861328125,0.9002685546875
2.8299999,6.66785192489624,-7.15387487411499,-1.0749965906143188,0.762939453125,0.518798828125,0.8544921875
2.8499999,6.687005519866943,-7.168240070343018,-1.094150185585022,-1.52587890625,0.5035400390625,0.1983642578125
2.8699999,6.7061591148376465,-7.182605266571045,-1.1204863786697388,-1.9073486328125,0.91552734375,-0.213623046875
2.8899999,6.715735912322998,-7.194576263427734,-1.1444283723831177,0.9765625,1.0986328125,-0.457763671875
2.9099999,6.718130111694336,-7.194576263427734,-1.161187767982483,1.64794921875,1.5869140625,-0.6103515625
2.9299999,6.710947513580322,-7.189787864685059,-1.161187767982483,0.2899169921875,1.220703125,-0.396728515625
2.9499999,6.696582317352295,-7.173028469085693,-1.158793568611145,-1.7852783203125,0.9307861328125,-0.9002685546875
2.9699999,6.67982292175293,-7.156269073486328,-1.1540051698684692,-0.1678466796875,0.823974609375,-0.91552734375
2.9899999,6.66785192489624,-7.141903877258301,-1.1444283723831177,1.6021728515625,1.708984375,-0.152587890625
3.0099999,6.6630635261535645,-7.1251444816589355,-1.1516109704971313,1.1749267578125,0.8544921875,-0.244140625
3.0299999,6.6630635261535645,-7.12035608291626,-1.1540051698684692,0.06103515625,1.0986328125,-0.2899169921875
3.0499999,6.670246124267578,-7.132327079772949,-1.1635819673538208,-0.7781982421875,1.220703125,-0.1678466796875
3.0699999,6.675034523010254,-7.139509677886963,-1.1803414821624756,0.2288818359375,1.007080078125,-0.9613037109375
3.0899999,6.67982292175293,-7.144298076629639,-1.1779472827911377,-1.617431640625,1.9073486328125,-1.4190673828125
3.1099999,6.67982292175293,-7.127538681030273,-1.173158884048462,-0.6866455078125,1.5869140625,-0.579833984375
3.1299999,6.677428722381592,-7.0988078117370605,-1.1516109704971313,0.8544921875,1.312255859375,0.152587890625
3.1499999,6.677428722381592,-7.079654216766357,-1.1252747774124146,1.1444091796875,1.3275146484375,0.9918212890625
3.1699999,6.675034523010254,-7.082048416137695,-1.1013327836990356,-0.48828125,1.220703125,0.579833984375
3.1899999,6.67982292175293,-7.115567684173584,-1.0893617868423462,0.579833984375,1.2969970703125,0.5645751953125
3.2099999,6.6846113204956055,-7.146692276000977,-1.0749965906143188,-0.457763671875,1.678466796875,-0.244140625
3.2299999,6.691793918609619,-7.177816867828369,-1.0678139925003052,1.1138916015625,1.495361328125,-0.0457763671875
3.2499999,6.696582317352295,-7.1921820640563965,-1.072602391242981,0.8697509765625,0.244140625,0.4425048828125
3.2699999,6.701370716094971,-7.196970462799072,-1.0821791887283325,0.1220703125,0.8544921875,0.06103515625
3.2899999,6.7061591148376465,-7.180211067199707,-1.1013327836990356,-0.7781982421875,1.46484375,-1.03759765625
3.3099999,6.708553314208984,-7.156269073486328,-1.1180921792984009,1.7852783203125,1.434326171875,-0.3662109375
3.3299999000000002,6.7061591148376465,-7.1251444816589355,-1.1228805780410767,1.6021728515625,1.0528564453125,0.3204345703125
3.3499999,6.696582317352295,-7.0988078117370605,-1.115697979927063,0.5950927734375,1.40380859375,0.4119873046875
3.3699999,6.682217121124268,-7.086836814880371,-1.1109095811843872,0.3814697265625,0.6866455078125,0.0457763671875
3.3899999,6.670246124267578,-7.089231014251709,-1.1061211824417114,1.434326171875,0.823974609375,0.1068115234375
3.4099999,6.660669326782227,-7.096413612365723,-1.094150185585022,-0.6561279296875,1.46484375,0.457763671875
3.4299999,6.655880928039551,-7.108384609222412,-1.0869675874710083,-1.373291015625,0.8392333984375,0.3509521484375
3.4499999,6.658275127410889,-7.1251444816589355,-1.0821791887283325,-0.4425048828125,-0.1373291015625,0.518798828125
3.4699999,6.665457725524902,-7.141903877258301,-1.0749965906143188,-0.0152587890625,0.67138671875,0.091552734375
3.4899999,6.675034523010254,-7.156269073486328,-1.0965443849563599,1.2054443359375,0.762939453125,0.244140625
3.5099999,6.67982292175293,-7.15387487411499,-1.1037269830703735,-0.6256103515625,1.4190673828125,0.1373291015625
3.5299999,6.687005519866943,-7.15387487411499,-1.1109095811843872,-2.410888671875,1.4801025390625,0.6561279296875
3.5499999,6.689399719238281,-7.15387487411499,-1.1109095811843872,-1.3885498046875,0.30517578125,0.6561279296875
3.5699999,6.694188117980957,-7.161057472229004,-1.0989385843276978,-1.1444091796875,1.007080078125,0.274658203125
3.5899999,6.701370716094971,-7.175422668457031,-1.1013327836990356,1.3275146484375,0.8697509765625,0.244140625
3.6099999,6.708553314208984,-7.184999465942383,-1.1037269830703735,0.885009765625,1.2969970703125,-0.0762939453125
3.6299999,6.715735912322998,-7.184999465942383,-1.1061211824417114,-0.640869140625,1.220703125,-0.4730224609375
3.6499999,6.71334171295166,-7.16584587097168,-1.115697979927063,-0.30517578125,0.8392333984375,-0.6866455078125
3.6699999,6.7061591148376465,-7.15387487411499,-1.1061211824417114,-0.1678466796875,1.6326904296875,0.4425048828125
3.6899999,6.689399719238281,-7.141903877258301,-1.1013327836990356,0.274658203125,1.6937255859375,0.4119873046875
3.7099999,6.670246124267578,-7.146692276000977,-1.0893617868423462,1.129150390625,1.312255859375,-0.3509521484375
3.7299999,6.651092529296875,-7.156269073486328,-1.0797849893569946,0.2288818359375,0.8544921875,-0.4119873046875
3.7499999,6.641515731811523,-7.168240070343018,-1.0773907899856567,0.579833984375,0.885009765625,0.3204345703125
3.7699999,6.636727333068848,-7.168240070343018,-1.070208191871643,-1.52587890625,1.2664794921875,-0.2593994140625
3.7899999,6.641515731811523,-7.161057472229004,-1.0821791887283325,-0.518798828125,0.1068115234375,-0.5950927734375
3.8099999,6.653486728668213,-7.156269073486328,-1.0989385843276978,0.3662109375,0.3204345703125,0.3814697265625
3.8299999000000002,6.66785192489624,-7.1490864753723145,-1.1204863786697388,-0.762939453125,1.7242431640625,0.54931640625
3.8499999,6.6846113204956055,-7.15387487411499,-1.1468225717544556,-1.15966796875,1.8157958984375,-0.1220703125
3.8699999,6.694188117980957,-7.158663272857666,-1.1563993692398071,-1.2359619140625,1.251220703125,-0.5645751953125
3.8899999,6.694188117980957,-7.16584587097168,-1.1540051698684692,1.46484375,1.9683837890625,0.1068115234375
3.9099999,6.687005519866943,-7.16584587097168,-1.1252747774124146,0.8087158203125,2.38037109375,0.4119873046875
3.9299999,6.675034523010254,-7.175422668457031,-1.113303780555725,-0.5950927734375,0.5645751953125,0.1068115234375
3.9499999,6.66785192489624,-7.19936466217041,-1.094150185585022,-0.8544921875,0.8392333984375,0
3.9699999,6.6630635261535645,-7.218518257141113,-1.094150185585022,-0.885009765625,1.6937255859375,-0.91552734375
3.9899999,6.670246124267578,-7.225700855255127,-1.0965443849563599,0.2593994140625,2.0599365234375,-1.4801025390625
4.0099999,6.682217121124268,-7.204153060913086,-1.1037269830703735,0.640869140625,1.4190673828125,-0.67138671875
4.029999900000001,6.689399719238281,-7.158663272857666,-1.1037269830703735,0.4730224609375,1.8463134765625,-0.5340576171875
4.0499999,6.696582317352295,-7.110779285430908,-1.0965443849563599,-0.7171630859375,2.01416015625,0
4.069999900000001,6.696582317352295,-7.0772600173950195,-1.0965443849563599,-1.220703125,1.03759765625,0.30517578125
4.0899999000000005,6.691793918609619,-7.072471618652344,-1.0893617868423462,-1.3275146484375,1.2359619140625,0.2899169921875
4.1099999,6.6846113204956055,-7.094019412994385,-1.0869675874710083,-1.190185546875,1.89208984375,0.0152587890625
4.1299999000000005,6.67982292175293,-7.134721279144287,-1.0893617868423462,0.6103515625,1.64794921875,0.18310546875
4.1499999,6.67982292175293,-7.184999465942383,-1.1085153818130493,3.204345703125,1.068115234375,0.54931640625
4.1699999000000005,6.687005519866943,-7.232883453369141,-1.113303780555725,0.9002685546875,2.3040771484375,-0.1983642578125
4.1899999,6.701370716094971,-7.266402244567871,-1.1037269830703735,0.0457763671875,2.8228759765625,-1.2359619140625
4.209999900000001,6.718130111694336,-7.242460250854492,-1.070208191871643,1.617431640625,1.46484375,-2.960205078125
4.2299999,6.734889507293701,-7.134721279144287,-1.0079588890075684,1.6021728515625,0.54931640625,-3.41796875
4.249999900000001,6.746860504150391,-6.938396453857422,-0.9361328482627869,0.42724609375,0.48828125,-1.7547607421875
4.2699999,6.763619899749756,-6.72531270980835,-0.849941611289978,0.640869140625,0.762939453125,1.5411376953125
4.289999900000001,6.8043212890625,-6.536170482635498,-0.730231523513794,-1.1749267578125,-0.06103515625,2.5482177734375
4.3099999,6.888118267059326,-6.421248912811279,-0.6105214357376099,-1.434326171875,-4.4403076171875,0.0457763671875
4.329999900000001,7.053318023681641,-6.339846134185791,-0.4836287498474121,0.579833984375,-6.5155029296875,-2.99072265625
4.3499999,7.314286231994629,-6.162675380706787,-0.40462008118629456,0.8392333984375,-5.8746337890625,-13.641357421875
4.369999900000001,7.682993412017822,-5.7341132164001465,-0.40701428055763245,8.056640625,-2.4566650390625,-30.6549072265625
4.3899999,8.085219383239746,-4.841075897216797,-0.40701428055763245,4.7760009765625,4.0130615234375,-46.38671875
4.409999900000001,8.489839553833008,-3.620033025741577,-0.5003881454467773,10.92529296875,3.2806396484375,-31.829833984375
4.4299999,8.846575736999512,-2.296039342880249,-0.2346317619085312,37.4603271484375,20.5230712890625,-6.988525390625
4.449999900000001,9.165003776550293,-1.357512354850769,0.17717093229293823,37.8875732421875,7.50732421875,15.380859375
4.4699999,9.555258750915527,-1.2282254695892334,0.608127236366272,26.458740234375,-32.3333740234375,11.383056640625
4.489999900000001,10.031704902648926,-1.6160861253738403,0.8762778043746948,-33.8287353515625,-48.583984375,-30.57861328125
4.5099999,10.467450141906738,-2.008735179901123,0.5434837937355042,-87.6007080078125,-51.6204833984375,-64.4073486328125
4.529999900000001,10.84094524383545,-2.38462495803833,-0.4668693244457245,-52.9022216796875,-35.9649658203125,-26.0467529296875
4.5499999,11.068394660949707,-2.8874073028564453,-1.1635819673538208,-72.723388671875,9.857177734375,24.7344970703125
4.569999900000001,11.08754825592041,-3.7493197917938232,-1.3120225667953491,-135.6201171875,11.7034912109375,-0.1373291015625
4.5899999000000005,11.238382339477539,-5.588066577911377,-1.7908629179000854,-123.870849609375,-102.1728515625,-36.8499755859375
4.609999900000001,11.329362869262695,-7.443572998046875,-3.5242648124694824,-100.40283203125,-139.3280029296875,-70.281982421875
4.6299999000000005,11.348516464233398,-8.710105895996094,-5.872976779937744,-260.19287109375,34.1796875,-92.8955078125
4.6499999,11.08754825592041,-8.987833023071289,-8.688557624816895,-331.9244384765625,147.0184326171875,-49.5147705078125
4.6699999000000005,10.261548042297363,-8.22887134552002,-10.20887565612793,-227.508544921875,85.8306884765625,11.016845703125
4.6899999,9.035717010498047,-7.987056732177734,-10.144232749938965,-108.5052490234375,23.5595703125,82.9010009765625
4.709999900000001,7.316680431365967,-7.797914981842041,-9.062053680419922,-141.4337158203125,12.0086669921875,36.2091064453125
4.7299999,5.463568210601807,-7.888894557952881,-8.236053466796875,-112.8997802734375,-7.2021484375,-3.204345703125
4.749999900000001,3.861847400665283,-8.17141056060791,-8.473079681396484,30.9906005859375,-44.8760986328125,85.7391357421875
4.7699999,3.3039982318878174,-10.098742485046387,-8.856152534484863,133.60595703125,54.443359375,227.9815673828125
4.789999900000001,3.3279404640197754,-13.46259593963623,-8.695740699768066,116.912841796875,179.6722412109375,139.8468017578125
4.8099999,3.315969467163086,-16.51520347595215,-6.50025749206543,-27.130126953125,149.3377685546875,-161.7279052734375
4.829999900000001,2.58813214302063,-16.249446868896484,-2.9927520751953125,-66.8182373046875,-42.5567626953125,-309.26513671875
4.8499999,1.1899182796478271,-12.246341705322266,-0.7134721279144287,144.71435546875,-209.2132568359375,-101.776123046875
4.869999900000001,-0.21787235140800476,-5.468356609344482,-0.3232172429561615,226.959228515625,-58.349609375,83.6944580078125
4.8899999,-0.5841852426528931,-0.05985504388809204,-1.3886369466781616,66.650390625,135.528564453125,81.1920166015625
4.909999900000001,0.44771572947502136,1.2282254695892334,-2.456450939178467,73.974609375,88.2720947265625,71.3653564453125
4.9299999,2.161964178085327,-0.3687070608139038,-2.0805611610412598,142.669677734375,-53.22265625,14.5721435546875
4.949999900000001,4.034229755401611,-3.1196448802948,-0.8882488012313843,87.2802734375,-85.3118896484375,-50.750732421875
4.9699999,5.535394191741943,-5.195417881011963,-0.608127236366272,24.2156982421875,-67.596435546875,-51.5289306640625
4.989999900000001,6.497863292694092,-5.949591159820557,-1.4197616577148438,37.200927734375,-47.79052734375,-0.9307861328125
5.0099999,6.9910688400268555,-5.571307182312012,-2.6240451335906982,24.96337890625,-8.4686279296875,24.8260498046875
5.029999900000001,7.601590633392334,-5.257667064666748,-4.110844135284424,-11.23046875,11.3983154296875,23.62060546875
5.0499999,7.850587368011475,-5.640739440917969,-3.9863457679748535,-2.7313232421875,-6.8206787109375,3.9825439453125
5.069999900000001,8.032546997070312,-6.1052141189575195,-3.512293815612793,-14.8468017578125,-21.0418701171875,-6.40869140625
5.0899999000000005,8.073247909545898,-6.339846134185791,-3.2178070545196533,-8.6517333984375,-10.8795166015625,0.30517578125
5.109999900000001,7.977479934692383,-6.253654956817627,-3.155557870864868,2.197265625,3.753662109375,8.97216796875
5.1299999000000005,7.800309181213379,-6.114790916442871,-3.1747114658355713,0.8087158203125,13.153076171875,12.20703125
5.1499999,7.620744228363037,-6.021417140960693,-3.066972494125366,-0.3204345703125,9.8724365234375,6.4849853515625
5.1699999000000005,7.4555439949035645,-5.925649166107178,-2.9281086921691895,14.2059326171875,-4.7607421875,-3.387451171875
5.1899999,7.371747016906738,-5.9735331535339355,-2.827552318572998,37.445068359375,-5.9814453125,5.1727294921875
5.209999900000001,7.33583402633667,-5.9735331535339355,-2.786850690841675,11.5814208984375,6.40869140625,6.4849853515625
5.2299999,7.33583402633667,-6.021417140960693,-2.8658595085144043,-7.50732421875,6.1492919921875,-1.373291015625
5.249999900000001,7.350199222564697,-6.129156112670898,-2.851494312286377,7.2784423828125,3.60107421875,-2.8839111328125
5.2699999,7.3454108238220215,-6.165069580078125,-2.734178304672241,8.3770751953125,2.44140625,-4.1961669921875
5.289999900000001,7.333439826965332,-6.150704383850098,-2.671929121017456,-1.0223388671875,-4.730224609375,-4.1046142578125
5.3099999,7.319074630737305,-6.078877925872803,-2.676717519760132,2.7923583984375,-1.89208984375,-2.3040771484375
5.329999900000001,7.299921035766602,-5.947196960449219,-2.738966703414917,-8.697509765625,4.3792724609375,-1.953125
5.3499999,7.273584842681885,-5.7987565994262695,-2.8347349166870117,-4.5623779296875,6.1492919921875,0.8697509765625
5.369999900000001,7.268796443939209,-5.710171222686768,-2.846705913543701,-5.5999755859375,4.791259765625,6.8359375
5.3899999,7.285555839538574,-5.705382823944092,-2.8395233154296875,-3.3111572265625,3.7689208984375,7.2784423828125
5.409999900000001,7.326257228851318,-5.801150798797607,-2.762908697128296,-4.8065185546875,5.6915283203125,2.8076171875
5.4299999,7.3454108238220215,-5.8873419761657715,-2.717418909072876,-9.6588134765625,3.4027099609375,-1.6937255859375
5.449999900000001,7.3238630294799805,-5.940014362335205,-2.650381326675415,-11.871337890625,1.1444091796875,1.953125
5.4699999,7.249642848968506,-5.849034786224365,-2.6144683361053467,-16.937255859375,-0.79345703125,4.913330078125
5.489999900000001,7.180211067199707,-5.765237808227539,-2.647987127304077,-15.93017578125,-4.2572021484375,7.26318359375
5.5099999,7.137115478515625,-5.726930618286133,-2.7030537128448486,-14.9383544921875,0.5645751953125,7.6141357421875
5.529999900000001,7.134721279144287,-5.808333396911621,-2.738966703414917,-11.3525390625,4.94384765625,6.0882568359375
5.5499999,7.144298076629639,-5.932831764221191,-2.715024709701538,-10.0860595703125,0.9613037109375,1.129150390625
5.569999900000001,7.161057472229004,-6.045359134674072,-2.693476915359497,-2.3040771484375,-7.537841796875,-1.953125
5.5899999000000005,7.161057472229004,-6.069301128387451,-2.7078421115875244,-0.518798828125,-6.3323974609375,-0.9613037109375
5.609999900000001,7.141903877258301,-5.966350555419922,-2.832340717315674,-4.974365234375,-1.129150390625,1.312255859375
5.6299999000000005,7.115567684173584,-5.846640586853027,-2.980781078338623,-7.110595703125,1.7852783203125,4.9591064453125
5.6499999,7.0988078117370605,-5.784391403198242,-3.045424461364746,-2.960205078125,2.227783203125,7.6904296875
5.6699999000000005,7.101202011108398,-5.813121795654297,-3.0334534645080566,0.6866455078125,-1.8310546875,5.1116943359375
5.6899999,7.1251444816589355,-5.906495571136475,-3.002328872680664,0.5950927734375,-6.134033203125,1.1444091796875
5.709999900000001,7.16584587097168,-6.00226354598999,-3.002328872680664,-4.94384765625,-4.2877197265625,0.5035400390625
5.7299999,7.208941459655762,-6.04775333404541,-3.047818660736084,-8.880615234375,0.2593994140625,2.0751953125
5.749999900000001,7.252037048339844,-6.074089527130127,-3.1100680828094482,-5.6304931640625,0.4119873046875,2.7008056640625
5.7699999,7.287950038909912,-6.098031520843506,-3.1292216777801514,-1.1138916015625,-0.396728515625,2.01416015625
5.789999900000001,7.311892032623291,-6.133944988250732,-3.1435868740081787,-0.48828125,-1.5869140625,-0.8544921875
5.8099999,7.304709434509277,-6.1315507888793945,-3.155557870864868,-2.8839111328125,-0.6103515625,-2.5482177734375
5.829999900000001,7.280767440795898,-6.102819919586182,-3.1675288677215576,-4.180908203125,0.5645751953125,-1.312255859375
5.8499999,7.228095054626465,-6.004657745361328,-3.203441858291626,-1.2664794921875,-0.7476806640625,-0.42724609375
5.869999900000001,7.177816867828369,-5.91128396987915,-3.2154128551483154,0.30517578125,0.18310546875,1.190185546875
5.8899999,7.141903877258301,-5.851428985595703,-3.222595453262329,6.6680908203125,3.35693359375,3.3111572265625
5.909999900000001,7.134721279144287,-5.861005783081055,-3.179499864578247,7.171630859375,3.936767578125,2.0751953125
5.9299999,7.15387487411499,-5.944802761077881,-3.157952070236206,12.481689453125,0.06103515625,1.220703125
5.949999900000001,7.201758861541748,-6.066906929016113,-3.0861260890960693,13.9007568359375,2.5482177734375,-0.18310546875
5.9699999,7.261613845825195,-6.208165168762207,-3.043030261993408,3.6163330078125,3.0975341796875,-2.471923828125
5.989999900000001,7.309497833251953,-6.325480937957764,-3.021482467651367,-6.744384765625,-1.03759765625,-3.7689208984375
6.0099999,7.331045627593994,-6.3518171310424805,-3.0119056701660156,-19.6685791015625,-4.08935546875,-6.9732666015625
6.029999900000001,7.309497833251953,-6.296750545501709,-3.047818660736084,-16.7083740234375,-1.678466796875,-6.195068359375
6.0499999,7.259219646453857,-6.1770405769348145,-3.0190882682800293,-9.307861328125,5.2032470703125,-2.2125244140625
6.069999900000001,7.194576263427734,-6.0190229415893555,-3.023876667022705,-14.6331787109375,-1.7242431640625,-2.5787353515625
6.0899999000000005,7.146692276000977,-5.892130374908447,-3.023876667022705,-14.8468017578125,-6.927490234375,-2.9754638671875
6.109999900000001,7.129932880401611,-5.808333396911621,-3.050212860107422,-9.857177734375,-0.5645751953125,-1.251220703125
6.1299999000000005,7.134721279144287,-5.767632007598877,-3.1507694721221924,1.3580322265625,3.143310546875,-0.1678466796875
6.149999900000001,7.141903877258301,-5.7556610107421875,-3.220201253890991,6.16455078125,5.889892578125,0.274658203125
6.1699999000000005,7.1490864753723145,-5.803544998168945,-3.220201253890991,9.552001953125,6.4697265625,1.1138916015625
6.1899999,7.139509677886963,-5.849034786224365,-3.179499864578247,4.1351318359375,2.01416015625,0.3662109375
6.209999900000001,7.132327079772949,-5.904101371765137,-3.1268274784088135,0.3814697265625,-0.79345703125,-0.579833984375
6.2299999,7.132327079772949,-5.944802761077881,-3.0837318897247314,1.556396484375,3.082275390625,0.457763671875
6.249999900000001,7.127538681030273,-5.928043365478516,-3.0789434909820557,-0.396728515625,2.7923583984375,-0.48828125
6.2699999,7.132327079772949,-5.9304375648498535,-3.093308687210083,-0.579833984375,0.5950927734375,1.0833740234375
6.289999900000001,7.122750282287598,-5.892130374908447,-3.071760892868042,-0.4425048828125,1.52587890625,0.67138671875
6.3099999,7.108384609222412,-5.889736175537109,-3.1076738834381104,7.293701171875,1.220703125,0.2899169921875
6.329999900000001,7.089231014251709,-5.882553577423096,-3.1196448802948,6.2255859375,2.9449462890625,0.42724609375
6.3499999,7.06528902053833,-5.8873419761657715,-3.1028854846954346,-1.7547607421875,4.8828125,0.6256103515625
6.369999900000001,7.038952827453613,-5.861005783081055,-3.093308687210083,-0.213623046875,1.922607421875,-0.152587890625
6.3899999,7.022193431854248,-5.8442463874816895,-3.023876667022705,10.528564453125,2.62451171875,1.5869140625
6.409999900000001,7.026981830596924,-5.817910194396973,-2.9328970909118652,6.2713623046875,4.1046142578125,2.7618408203125
6.4299999,7.060500621795654,-5.829881191253662,-2.9472622871398926,5.79833984375,-3.5858154296875,2.777099609375
6.449999900000001,7.115567684173584,-5.851428985595703,-2.9712042808532715,1.9378662109375,-0.640869140625,1.5716552734375
6.4699999,7.187393665313721,-5.920860767364502,-3.0334534645080566,-1.190185546875,4.1046142578125,3.143310546875
6.489999900000001,7.252037048339844,-5.999869346618652,-3.0813376903533936,-0.5950927734375,2.593994140625,2.9144287109375
6.5099999,7.3023152351379395,-6.081272125244141,-3.071760892868042,3.11279296875,-0.7171630859375,0.1678466796875
6.529999900000001,7.338228225708008,-6.167463779449463,-3.066972494125366,3.753662109375,-2.99072265625,-1.4801025390625
6.5499999,7.350199222564697,-6.196194171905518,-3.0765492916107178,-0.42724609375,-1.28173828125,-2.01416015625
6.569999900000001,7.3454108238220215,-6.167463779449463,-3.1292216777801514,-2.593994140625,0.732421875,-1.9683837890625
6.5899999000000005,7.3238630294799805,-6.119579315185547,-3.184288263320923,1.953125,1.312255859375,0.0762939453125
6.609999900000001,7.295132637023926,-6.069301128387451,-3.181894063949585,0.79345703125,2.4566650390625,0.42724609375
6.6299999000000005,7.273584842681885,-6.0621185302734375,-3.179499864578247,1.556396484375,0.0762939453125,-1.1138916015625
6.649999900000001,7.261613845825195,-6.078877925872803,-3.160346269607544,0,-0.3814697265625,-2.6397705078125
6.6699999000000005,7.249642848968506,-6.090848922729492,-3.1435868740081787,-1.5869140625,1.953125,-3.60107421875
6.6899999,7.249642848968506,-6.1052141189575195,-3.1268274784088135,-2.4261474609375,3.1585693359375,-2.685546875
6.709999900000001,7.242460250854492,-6.090848922729492,-3.117250680923462,1.8310546875,1.77001953125,-3.5858154296875
6.7299999,7.2352776527404785,-6.074089527130127,-3.0837318897247314,3.4637451171875,2.716064453125,-4.39453125
6.749999900000001,7.218518257141113,-6.026205539703369,-3.043030261993408,1.8768310546875,3.326416015625,-5.462646484375
6.7699999,7.187393665313721,-5.95677375793457,-3.0095114707946777,0,1.2054443359375,-4.425048828125
6.789999900000001,7.1490864753723145,-5.884947776794434,-2.964021682739258,-2.8076171875,-1.220703125,-3.875732421875
6.8099999,7.105990409851074,-5.813121795654297,-2.9305028915405273,-3.5858154296875,-0.946044921875,-3.6163330078125
6.829999900000001,7.0772600173950195,-5.772420406341553,-2.8634653091430664,-6.4849853515625,-0.8087158203125,-4.0283203125
6.8499999,7.062894821166992,-5.748478412628174,-2.853888511657715,-4.08935546875,-5.67626953125,-3.8299560546875
6.869999900000001,7.072471618652344,-5.74129581451416,-2.849100112915039,-3.936767578125,-7.1563720703125,-3.570556640625
6.8899999,7.110779285430908,-5.7556610107421875,-2.8993782997131348,-4.9591064453125,-3.9825439453125,-3.0364990234375
6.909999900000001,7.161057472229004,-5.7772088050842285,-2.985569477081299,-1.52587890625,-3.265380859375,-3.7689208984375
6.9299999,7.220912456512451,-5.803544998168945,-3.045424461364746,-1.6632080078125,-1.8310546875,-3.1585693359375
6.949999900000001,7.273584842681885,-5.825092792510986,-3.1268274784088135,0.6256103515625,-4.608154296875,-2.2430419921875
6.9699999,7.319074630737305,-5.837063789367676,-3.1699230670928955,-1.220703125,-2.2430419921875,-1.953125
6.989999900000001,7.357381820678711,-5.849034786224365,-3.2369606494903564,1.190185546875,-0.42724609375,-2.0294189453125
7.0099999,7.390900611877441,-5.861005783081055,-3.292027235031128,2.5787353515625,-0.1983642578125,-1.7242431640625
7.029999900000001,7.407660007476807,-5.872976779937744,-3.3303346633911133,0.274658203125,0.244140625,-2.0599365234375
7.0499999,7.412448406219482,-5.8657941818237305,-3.3494882583618164,-0.9613037109375,1.0528564453125,-2.8533935546875
7.069999900000001,7.398083209991455,-5.846640586853027,-3.3494882583618164,0.7171630859375,1.89208984375,-2.0904541015625
7.0899999000000005,7.383718013763428,-5.832275390625,-3.3303346633911133,3.2501220703125,2.960205078125,-1.2664794921875
7.109999900000001,7.3669586181640625,-5.834669589996338,-3.31118106842041,3.1280517578125,2.86865234375,-1.556396484375
7.1299999000000005,7.343016624450684,-5.822698593139648,-3.2585084438323975,-3.1280517578125,3.1890869140625,-5.2337646484375
7.149999900000001,7.319074630737305,-5.822698593139648,-3.227383852005005,-4.8675537109375,1.617431640625,-4.669189453125
7.1699999000000005,7.285555839538574,-5.767632007598877,-3.1890766620635986,-2.0904541015625,1.495361328125,-3.8299560546875
7.1899999,7.252037048339844,-5.7125654220581055,-3.1531636714935303,-0.9002685546875,3.35693359375,-3.6163330078125
7.209999900000001,7.228095054626465,-5.664681434631348,-3.138798475265503,-2.9754638671875,2.166748046875,-3.84521484375
7.2299999,7.230489253997803,-5.674258232116699,-3.1507694721221924,-1.40380859375,1.1749267578125,-3.326416015625
7.249999900000001,7.24485445022583,-5.686229228973389,-3.1268274784088135,-1.52587890625,4.3182373046875,-4.730224609375
7.2699999,7.273584842681885,-5.731719017028809,-3.093308687210083,-4.0130615234375,2.899169921875,-5.3558349609375
7.289999900000001,7.295132637023926,-5.729324817657471,-3.0597896575927734,-4.7149658203125,-3.9215087890625,-6.40869140625
7.3099999,7.314286231994629,-5.702988624572754,-3.0573954582214355,-5.1116943359375,-5.279541015625,-6.6070556640625
7.329999900000001,7.319074630737305,-5.621585369110107,-3.1076738834381104,-4.119873046875,-1.739501953125,-5.67626953125
7.3499999,7.314286231994629,-5.501875400543213,-3.24414324760437,0.1220703125,0.4730224609375,-5.0506591796875
7.369999900000001,7.3023152351379395,-5.377377033233643,-3.359065055847168,2.471923828125,2.6397705078125,-1.7547607421875
7.3899999,7.292738437652588,-5.303156852722168,-3.4117374420166016,-2.1514892578125,4.4097900390625,0.457763671875
7.409999900000001,7.285555839538574,-5.295974254608154,-3.3949780464172363,-1.0833740234375,1.983642578125,0.274658203125
7.4299999,7.295132637023926,-5.365406036376953,-3.31118106842041,-2.0294189453125,-0.2288818359375,-1.556396484375
7.449999900000001,7.326257228851318,-5.497087001800537,-3.268085241317749,-1.922607421875,-1.556396484375,-0.946044921875
7.4699999,7.359776020050049,-5.626373767852783,-3.222595453262329,-2.349853515625,2.9296875,-1.2664794921875
7.489999900000001,7.393294811248779,-5.75326681137085,-3.2321722507476807,-1.2969970703125,5.55419921875,-2.8533935546875
7.5099999,7.419631004333496,-5.894524574279785,-3.1890766620635986,2.1514892578125,5.6915283203125,-3.3721923828125
7.529999900000001,7.412448406219482,-5.95677375793457,-3.1196448802948,-1.739501953125,2.777099609375,-8.148193359375
7.5499999,7.395689010620117,-6.009446144104004,-3.069366693496704,1.6937255859375,-0.7476806640625,-9.3994140625
7.569999900000001,7.354987621307373,-5.959167957305908,-3.028665065765381,0.640869140625,2.3956298828125,-10.19287109375
7.5899999000000005,7.316680431365967,-5.8657941818237305,-3.0166940689086914,-1.129150390625,3.5400390625,-10.9100341796875
7.609999900000001,7.297526836395264,-5.7772088050842285,-3.0621838569641113,4.2266845703125,-0.0457763671875,-8.5296630859375
7.6299999000000005,7.328651428222656,-5.8203043937683105,-3.0765492916107178,7.2784423828125,2.197265625,-7.4005126953125
7.649999900000001,7.4100542068481445,-5.995080947875977,-3.028665065765381,7.26318359375,6.8817138671875,-13.0462646484375
7.6699999000000005,7.5201873779296875,-6.224924564361572,-2.9472622871398926,11.932373046875,1.03759765625,-24.871826171875
7.6899999,7.618350028991699,-6.3302693367004395,-2.8802247047424316,15.5181884765625,-8.7890625,-32.440185546875
7.709999900000001,7.666234016418457,-6.200982570648193,-2.9017724990844727,16.7236328125,-8.3465576171875,-30.4412841796875
7.7299999,7.659051418304443,-5.7987565994262695,-3.047818660736084,12.8631591796875,-1.190185546875,-26.4129638671875
7.749999900000001,7.630321025848389,-5.322310447692871,-3.268085241317749,14.4500732421875,2.2735595703125,-19.95849609375
7.7699999,7.592013359069824,-4.884171485900879,-3.423708438873291,10.498046875,3.11279296875,-16.8304443359375
7.789999900000001,7.5848307609558105,-4.644751071929932,-3.4548330307006836,8.8043212890625,3.72314453125,-15.289306640625
7.8099999,7.5968017578125,-4.58968448638916,-3.397372245788574,7.5225830078125,1.1749267578125,-14.4805908203125
7.829999900000001,7.630321025848389,-4.69024133682251,-3.354276657104492,7.7362060546875,-1.6632080078125,-15.3350830078125
7.8499999,7.654263019561768,-4.778826713562012,-3.28963303565979,1.5411376953125,3.41796875,-17.2271728515625
7.869999900000001,7.673416614532471,-4.8602294921875,-3.2609026432037354,0.0762939453125,7.3089599609375,-13.00048828125
7.8899999,7.687781810760498,-4.910507678985596,-3.1890766620635986,4.1046142578125,7.171630859375,-7.8277587890625
7.909999900000001,7.6997528076171875,-4.929661273956299,-3.1435868740081787,5.340576171875,2.197265625,-10.101318359375
7.9299999,7.7213006019592285,-4.93923807144165,-3.1459810733795166,3.662109375,1.4801025390625,-13.6871337890625
7.949999900000001,7.714118003845215,-4.855441093444824,-3.1675288677215576,3.631591796875,10.92529296875,-11.383056640625
7.9699999,7.6997528076171875,-4.745307922363281,-3.224989652633667,5.4473876953125,12.63427734375,-3.662109375
7.989999900000001,7.675810813903809,-4.611232280731201,-3.203441858291626,5.279541015625,10.5133056640625,-0.3509521484375
8.0099999,7.659051418304443,-4.503493309020996,-3.1196448802948,2.44140625,9.6588134765625,-4.5166015625
8.0299999,7.671022415161133,-4.414907932281494,-3.023876667022705,1.2359619140625,8.453369140625,-3.509521484375
8.049999900000001,7.682993412017822,-4.2544965744018555,-2.9712042808532715,-2.5177001953125,5.3863525390625,1.2054443359375
8.069999900000001,7.682993412017822,-4.0294413566589355,-2.9927520751953125,-13.946533203125,2.166748046875,7.7667236328125
8.0899999,7.694964408874512,-3.93367338180542,-3.1316158771514893,-15.2740478515625,1.556396484375,19.6685791015625
8.1099999,7.68538761138916,-3.9480385780334473,-3.2632968425750732,-12.51220703125,12.63427734375,21.209716796875
8.129999900000001,7.6566572189331055,-4.127603530883789,-3.339911460876465,-11.4288330078125,16.510009765625,18.5394287109375
8.149999900000001,7.618350028991699,-4.4532151222229,-3.251325845718384,-7.32421875,13.24462890625,21.9573974609375
8.1699999,7.560888767242432,-4.786009311676025,-2.978386878967285,-3.0059814453125,11.5966796875,22.3541259765625
8.1899999,7.4986395835876465,-5.0469770431518555,-2.7054479122161865,-8.8348388671875,0.9765625,14.8773193359375
8.2099999,7.481880187988281,-5.2480902671813965,-2.516305923461914,-8.7432861328125,-3.1890869140625,16.17431640625
8.229999900000001,7.4986395835876465,-5.34625244140625,-2.5091233253479004,-5.6304931640625,0.48828125,19.378662109375
8.2499999,7.544129371643066,-5.370194435119629,-2.6024973392486572,0.5340576171875,7.232666015625,16.78466796875
8.2699999,7.632715225219727,-5.468356609344482,-2.691082715988159,5.5389404296875,9.124755859375,15.68603515625
8.2899999,7.726089000701904,-5.578489780426025,-2.6599581241607666,10.0860595703125,6.3629150390625,10.772705078125
8.309999900000001,7.817068576812744,-5.729324817657471,-2.609679937362671,10.223388671875,-3.5247802734375,5.3558349609375
8.3299999,7.893682956695557,-5.801150798797607,-2.5665841102600098,14.9078369140625,-4.6844482421875,3.5858154296875
8.3499999,7.965508937835693,-5.853823184967041,-2.5713725090026855,16.7388916015625,4.39453125,6.8206787109375
8.3699999,8.022970199584961,-5.8657941818237305,-2.585737943649292,11.810302734375,6.011962890625,5.92041015625
8.389999900000001,8.08043098449707,-5.889736175537109,-2.537853717803955,3.5400390625,-0.3204345703125,1.1749267578125
8.4099999,8.130708694458008,-5.894524574279785,-2.4899697303771973,7.843017578125,-6.8206787109375,-2.25830078125
8.4299999,8.152256965637207,-5.875370979309082,-2.5043349266052246,8.6212158203125,-6.6070556640625,-1.5411376953125
8.4499999,8.13789176940918,-5.827486991882324,-2.540247917175293,9.94873046875,2.86865234375,1.312255859375
8.469999900000001,8.087613105773926,-5.760449409484863,-2.6192567348480225,8.30078125,4.180908203125,1.068115234375
8.4899999,8.003816604614258,-5.6910176277160645,-2.671929121017456,6.3934326171875,-1.40380859375,-0.1678466796875
8.5099999,7.915230751037598,-5.6455278396606445,-2.5929205417633057,-2.3956298828125,3.326416015625,1.6937255859375
8.5299999,7.833827972412109,-5.595249176025391,-2.4612393379211426,-3.8604736328125,5.1116943359375,2.471923828125
8.549999900000001,7.785943984985352,-5.604825973510742,-2.346317768096924,2.8076171875,-4.5623779296875,2.197265625
8.569999900000001,7.778761386871338,-5.659893035888672,-2.2242133617401123,7.293701171875,-3.021240234375,0.0457763671875
8.5899999,7.781155586242676,-5.686229228973389,-2.1978771686553955,3.5858154296875,1.52587890625,-3.7384033203125
8.6099999,7.8098859786987305,-5.714959621429443,-2.2864625453948975,10.6201171875,0.91552734375,0.06103515625
8.629999900000001,7.8314337730407715,-5.702988624572754,-2.3582887649536133,9.796142578125,3.6163330078125,3.387451171875
8.649999900000001,7.860164165496826,-5.726930618286133,-2.434903144836426,1.861572265625,3.60107421875,1.556396484375
8.6699999,7.903259754180908,-5.791574001312256,-2.43011474609375,7.110595703125,4.8065185546875,-3.11279296875
8.6899999,7.9631147384643555,-5.856217384338379,-2.408566951751709,9.58251953125,3.570556640625,-7.1563720703125
8.709999900000001,8.020575523376465,-5.875370979309082,-2.4588451385498047,12.4053955078125,-0.1678466796875,-10.2691650390625
8.729999900000001,8.061277389526367,-5.765237808227539,-2.4444799423217773,0.8392333984375,10.8795166015625,-12.451171875
8.7499999,8.094796180725098,-5.669469833374023,-2.5522189140319824,5.9051513671875,10.6353759765625,-5.06591796875
8.7699999,8.101978302001953,-5.552153587341309,-2.58813214302063,10.68115234375,8.9111328125,-4.3487548828125
8.7899999,8.099584579467773,-5.494692802429199,-2.5665841102600098,-0.06103515625,11.5966796875,-8.3770751953125
8.809999900000001,8.087613105773926,-5.47075080871582,-2.5043349266052246,-5.6304931640625,8.636474609375,-8.9111328125
8.8299999,8.073247909545898,-5.458779811859131,-2.4133553504943848,-6.6680908203125,2.99072265625,-6.7901611328125
8.8499999,8.061277389526367,-5.439626216888428,-2.3535003662109375,-1.5716552734375,1.5106201171875,-7.3089599609375
8.8699999,8.070854187011719,-5.442020416259766,-2.3750481605529785,4.5623779296875,5.5999755859375,-8.72802734375
8.889999900000001,8.075642585754395,-5.420472621917725,-2.3702597618103027,-1.312255859375,14.0533447265625,-10.6048583984375
8.9099999,8.078036308288574,-5.406107425689697,-2.3750481605529785,-2.3345947265625,11.810302734375,-9.4146728515625
8.9299999,8.068459510803223,-5.365406036376953,-2.250549554824829,-1.6326904296875,7.4005126953125,-9.4451904296875
8.9499999,8.037335395812988,-5.303156852722168,-2.1523873805999756,-0.213623046875,1.861572265625,-11.90185546875
8.969999900000001,8.01339340209961,-5.25527286529541,-2.049436569213867,1.40380859375,3.875732421875,-10.3759765625
8.9899999,7.987056732177734,-5.219359874725342,-1.941697597503662,6.7138671875,8.9569091796875,-6.9580078125
9.0099999,7.989450931549072,-5.233725070953369,-1.7525556087493896,7.8277587890625,6.16455078125,-9.4757080078125
9.0299999,8.01339340209961,-5.231330871582031,-1.6424223184585571,10.589599609375,-11.1236572265625,-18.707275390625
9.049999900000001,8.063671112060547,-5.193023681640625,-1.6663644313812256,16.4031982421875,-18.5394287109375,-21.0113525390625
9.069999900000001,8.133103370666504,-5.058948040008545,-1.8339585065841675,14.8468017578125,-3.6163330078125,-12.725830078125
9.0899999,8.212111473083496,-4.948814868927002,-2.231395959854126,18.1121826171875,0.48828125,-3.5247802734375
9.1099999,8.312667846679688,-4.886565685272217,-2.499546527862549,12.63427734375,3.4942626953125,-4.57763671875
9.129999900000001,8.413225173950195,-4.93923807144165,-2.719813108444214,12.63427734375,2.197265625,-10.3302001953125
9.149999900000001,8.501810073852539,-5.037400245666504,-2.8107926845550537,12.1917724609375,1.6632080078125,-10.9710693359375
9.1699999,8.542511940002441,-5.114014625549316,-2.8227639198303223,7.9498291015625,7.4920654296875,-8.758544921875
9.1899999,8.518569946289062,-5.1116204261779785,-2.7006595134735107,1.0986328125,14.373779296875,-6.6375732421875
9.209999900000001,8.456320762634277,-5.094861030578613,-2.513911724090576,5.0201416015625,11.5814208984375,-4.39453125
9.229999900000001,8.394071578979492,-5.147533416748047,-2.296039342880249,14.9688720703125,7.5531005859375,-0.946044921875
9.2499999,8.329427719116211,-5.185841083526611,-2.0470423698425293,8.880615234375,12.847900390625,-7.720947265625
9.2699999,8.26239013671875,-5.20978307723999,-1.8698714971542358,5.37109375,13.0157470703125,-13.6260986328125
9.2899999,8.17380428314209,-5.123591423034668,-1.6879122257232666,5.4473876953125,8.6669921875,-10.3759765625
9.309999900000001,8.063671112060547,-4.955997467041016,-1.4891934394836426,5.462646484375,7.6751708984375,-3.3721923828125
9.3299999,7.989450931549072,-4.853046894073486,-1.3407529592514038,4.791259765625,5.0506591796875,1.2664794921875
9.3499999,7.994239330291748,-4.879383087158203,-1.2976573705673218,0.0762939453125,-0.2899169921875,-3.5552978515625
9.3699999,8.070854187011719,-4.948814868927002,-1.4221558570861816,-6.3934326171875,-5.2337646484375,-14.0838623046875
9.389999900000001,8.176198959350586,-4.948814868927002,-1.6304513216018677,-8.148193359375,0.6103515625,-13.9617919921875
9.4099999,8.271966934204102,-4.81473970413208,-1.8555063009262085,-3.448486328125,8.6212158203125,-3.143310546875
9.4299999,8.341399192810059,-4.6255974769592285,-2.0231003761291504,5.462646484375,8.697509765625,5.0048828125
9.4499999,8.394071578979492,-4.481945514678955,-2.073378562927246,1.6632080078125,7.537841796875,0.3662109375
9.469999900000001,8.451532363891602,-4.462791919708252,-2.0877439975738525,2.99072265625,8.2550048828125,-4.3792724609375
9.4899999,8.47547435760498,-4.446032524108887,-2.0254945755004883,3.5552978515625,14.0533447265625,-5.8441162109375
9.5099999,8.47547435760498,-4.41969633102417,-1.922544002532959,1.708984375,14.6331787109375,-2.960205078125
9.5299999,8.44434928894043,-4.369418144226074,-1.7477672100067139,2.2430419921875,10.43701171875,0.9307861328125
9.549999900000001,8.396465301513672,-4.343081951141357,-1.6160861253738403,2.86865234375,4.1046142578125,-1.0223388671875
9.569999900000001,8.336610794067383,-4.32871675491333,-1.45806884765625,-2.4566650390625,7.2784423828125,-3.753662109375
9.5899999,8.26239013671875,-4.3622355461120605,-1.3742717504501343,-2.3193359375,8.544921875,2.5177001953125
9.6099999,8.214506149291992,-4.436455726623535,-1.3096283674240112,5.584716796875,3.1890869140625,9.490966796875
9.629999900000001,8.185775756835938,-4.553771495819092,-1.2449848651885986,5.37109375,1.007080078125,6.4544677734375
9.649999900000001,8.209717750549316,-4.73573112487793,-1.2832920551300049,6.7138671875,-3.6468505859375,1.9073486328125
9.6699999,8.271966934204102,-4.922478675842285,-1.3742717504501343,11.23046875,-2.8228759765625,3.082275390625
9.6899999,8.343792915344238,-5.054159641265869,-1.5131354331970215,7.232666015625,1.251220703125,5.06591796875
9.709999900000001,8.413225173950195,-5.17626428604126,-1.6304513216018677,4.8370361328125,3.265380859375,7.0953369140625
9.729999900000001,8.470685958862305,-5.307945251464844,-1.6496049165725708,-4.486083984375,2.9144287109375,5.18798828125
9.7499999,8.53293514251709,-5.480327606201172,-1.5825673341751099,-3.692626953125,-1.1138916015625,-0.7476806640625
9.7699999,8.578424453735352,-5.600037574768066,-1.479616641998291,2.227783203125,-6.195068359375,-9.124755859375
9.7899999,8.616731643676758,-5.609614372253418,-1.45806884765625,7.720947265625,-7.2021484375,-11.3983154296875
9.809999900000001,8.611943244934082,-5.3797712326049805,-1.501164436340332,-0.2899169921875,-2.13623046875,-9.33837890625
9.8299999,8.607154846191406,-5.0685248374938965,-1.6400281190872192,-2.3193359375,2.62451171875,-0.457763671875
9.8499999,8.544905662536621,-4.618414878845215,-1.7860745191574097,0.6103515625,4.5013427734375,2.25830078125
9.8699999,8.449137687683105,-4.182670593261719,-1.845929503440857,-4.94384765625,11.077880859375,1.0528564453125
9.889999900000001,8.31985092163086,-3.8283286094665527,-1.7908629179000854,-7.2784423828125,15.5487060546875,10.3759765625
9.9099999,8.190564155578613,-3.627215623855591,-1.6496049165725708,-1.28173828125,11.23046875,21.8963623046875
9.9299999,8.13789176940918,-3.713406801223755,-1.3766659498214722,8.6517333984375,12.6495361328125,24.6124267578125
9.9499999,8.145073890686035,-3.993528366088867,-1.2042834758758545,22.5372314453125,7.2174072265625,17.39501953125
9.969999900000001,8.216899871826172,-4.414907932281494,-1.0534487962722778,18.9208984375,8.3160400390625,16.6473388671875
9.9899999,8.288725852966309,-4.81473970413208,-1.0079588890075684,12.39013671875,14.678955078125,22.918701171875
10.0099999,8.339004516601562,-5.147533416748047,-0.9552865028381348,12.75634765625,13.48876953125,23.13232421875
10.0299999,8.38688850402832,-5.439626216888428,-0.849941611289978,12.054443359375,9.4757080078125,18.49365234375
10.049999900000001,8.427590370178223,-5.664681434631348,-0.7134721279144287,14.8468017578125,1.7547607421875,11.322021484375
10.069999900000001,8.47786808013916,-5.7987565994262695,-0.6153098344802856,16.7694091796875,-6.2408447265625,5.7373046875
10.0899999,8.542511940002441,-5.827486991882324,-0.6607996821403503,19.2718505859375,-11.7034912109375,3.1585693359375
10.1099999,8.607154846191406,-5.731719017028809,-0.8571242094039917,13.73291015625,-12.5732421875,-1.28173828125
10.129999900000001,8.662221908569336,-5.580883979797363,-1.1683704853057861,11.8255615234375,-7.659912109375,-1.5106201171875
10.149999900000001,8.705317497253418,-5.434837818145752,-1.4652514457702637,12.3138427734375,-1.4495849609375,3.11279296875
10.1699999,8.712499618530273,-5.355829238891602,-1.6711528301239014,13.36669921875,0.54931640625,5.79833984375
10.1899999,8.695740699768066,-5.410895824432373,-1.6927006244659424,8.5906982421875,3.0517578125,4.5166015625
10.209999900000001,8.647856712341309,-5.559336185455322,-1.5490485429763794,3.143310546875,3.265380859375,-1.007080078125
10.229999900000001,8.56645393371582,-5.7341132164001465,-1.316810965538025,2.9449462890625,-1.495361328125,-7.8125
10.2499999,8.458714485168457,-5.851428985595703,-1.0223240852355957,3.2806396484375,-3.082275390625,-11.932373046875
10.2699999,8.341399192810059,-5.870582580566406,-0.7637503147125244,1.312255859375,-3.662109375,-12.664794921875
10.2899999,8.238448143005371,-5.781997203826904,-0.6272808313369751,-0.518798828125,-11.2762451171875,-15.5181884765625
10.309999900000001,8.159439086914062,-5.5976433753967285,-0.6033388376235962,4.3792724609375,-12.451171875,-17.7764892578125
10.3299999,8.101978302001953,-5.343858242034912,-0.6991068720817566,6.622314453125,-7.38525390625,-16.2811279296875
10.3499999,8.068459510803223,-5.080495834350586,-0.8978256583213806,4.4708251953125,-7.26318359375,-10.986328125
10.3699999,8.056488990783691,-4.884171485900879,-1.0797849893569946,-0.823974609375,-4.21142578125,-6.439208984375
10.389999900000001,8.073247909545898,-4.800374507904053,-1.2258312702178955,-2.1514892578125,-1.678466796875,-7.6904296875
10.4099999,8.109161376953125,-4.807557106018066,-1.290474772453308,-2.655029296875,-2.3345947265625,-10.528564453125
10.4299999,8.152256965637207,-4.857835292816162,-1.3000515699386597,-0.8697509765625,-4.39453125,-11.962890625
10.4499999,8.188169479370117,-4.888959884643555,-1.2880805730819702,-0.823974609375,-5.126953125,-10.3912353515625
10.469999900000001,8.209717750549316,-4.865017890930176,-1.2856862545013428,-4.7607421875,-4.058837890625,-9.4451904296875
10.4899999,8.212111473083496,-4.78122091293335,-1.259350061416626,-3.326416015625,-1.434326171875,-9.429931640625
10.5099999,8.214506149291992,-4.683058738708496,-1.2330138683319092,3.2806396484375,-3.0059814453125,-4.2724609375
10.5299999,8.216899871826172,-4.5825018882751465,-1.2497732639312744,14.801025390625,-6.0272216796875,1.495361328125
10.549999900000001,8.236053466796875,-4.558559894561768,-1.3072341680526733,15.0909423828125,-1.312255859375,2.9449462890625
10.569999900000001,8.276755332946777,-4.613626480102539,-1.3766659498214722,1.9683837890625,5.4931640625,2.166748046875
10.5899999,8.334216117858887,-4.7620673179626465,-1.460463047027588,-0.06103515625,2.960205078125,1.739501953125
10.6099999,8.394071578979492,-4.93923807144165,-1.4748282432556152,3.6773681640625,0.213623046875,-0.18310546875
10.629999900000001,8.439560890197754,-5.0876784324646,-1.4317326545715332,-1.953125,2.7923583984375,-3.387451171875
10.649999900000001,8.473079681396484,-5.197812080383301,-1.3886369466781616,-3.1585693359375,3.662109375,-1.9378662109375
10.6699999,8.489839553833008,-5.257667064666748,-1.3287819623947144,-1.52587890625,3.082275390625,0.0457763671875
10.6899999,8.494627952575684,-5.288791656494141,-1.2832920551300049,-4.058837890625,1.7242431640625,-2.3651123046875
10.709999900000001,8.513781547546387,-5.351040840148926,-1.2641384601593018,-4.2266845703125,2.50244140625,-3.4027099609375
10.729999900000001,8.525752067565918,-5.374982833862305,-1.235408067703247,-5.43212890625,4.9285888671875,-6.53076171875
10.7499999,8.53532886505127,-5.374982833862305,-1.213860273361206,-6.8511962890625,2.3651123046875,-9.307861328125
10.7699999,8.528146743774414,-5.284003257751465,-1.1899182796478271,-3.60107421875,-1.1749267578125,-10.1470947265625
10.7899999,8.497021675109863,-5.114014625549316,-1.1851298809051514,-0.9307861328125,-0.2288818359375,-10.589599609375
10.809999900000001,8.470685958862305,-4.920084476470947,-1.216254472732544,3.1890869140625,3.2806396484375,-7.7667236328125
10.8299999,8.449137687683105,-4.742913722991943,-1.2761094570159912,6.103515625,4.425048828125,-5.4168701171875
10.8499999,8.44195556640625,-4.6471452713012695,-1.3239935636520386,5.7830810546875,6.2103271484375,-5.126953125
10.8699999,8.449137687683105,-4.613626480102539,-1.314416766166687,0.2288818359375,8.148193359375,-7.01904296875
10.889999900000001,8.451532363891602,-4.627991676330566,-1.2617442607879639,0.54931640625,7.1258544921875,-6.65283203125
10.9099999,8.44434928894043,-4.611232280731201,-1.1348515748977661,0.4425048828125,5.5389404296875,-7.3699951171875
10.9299999,8.427590370178223,-4.575319290161133,-1.0295066833496094,4.0740966796875,3.021240234375,-5.767822265625
10.9499999,8.403648376464844,-4.503493309020996,-0.9385270476341248,5.645751953125,2.8228759765625,-4.119873046875
10.969999900000001,8.391676902770996,-4.436455726623535,-0.8978256583213806,0.2593994140625,3.3416748046875,-3.204345703125
10.9899999,8.401253700256348,-4.426878929138184,-0.9193734526634216,2.7923583984375,1.312255859375,-0.8087158203125
11.0099999,8.429984092712402,-4.469974517822266,-0.9289502501487732,1.6021728515625,1.9073486328125,-1.4190673828125
11.0299999,8.470685958862305,-4.55616569519043,-0.9672574996948242,3.448486328125,1.3427734375,-2.9144287109375
11.049999900000001,8.528146743774414,-4.69024133682251,-1.0199298858642578,6.16455078125,0.1068115234375,-1.89208984375
11.069999900000001,8.580819129943848,-4.807557106018066,-1.0582371950149536,-1.8157958984375,1.0528564453125,-3.4027099609375
11.0899999,8.621520042419434,-4.888959884643555,-1.0797849893569946,-9.5367431640625,2.5634765625,-6.7291259765625
11.1099999,8.635885238647461,-4.8937482833862305,-1.072602391242981,-8.8958740234375,0.2899169921875,-8.056640625
11.129999900000001,8.635885238647461,-4.829104900360107,-1.0534487962722778,-4.7760009765625,-2.2735595703125,-5.950927734375
11.149999900000001,8.611943244934082,-4.716577529907227,-1.0582371950149536,-2.7008056640625,-0.9307861328125,-3.997802734375
11.1699999,8.592789649963379,-4.620809078216553,-1.0678139925003052,-8.30078125,2.532958984375,-4.150390625
11.1899999,8.588001251220703,-4.575319290161133,-1.070208191871643,-10.7879638671875,0.9918212890625,-5.43212890625
11.209999900000001,8.5903959274292,-4.570530891418457,-1.0845733880996704,-5.3253173828125,-5.1422119140625,-7.3699951171875
11.229999900000001,8.59997272491455,-4.563348293304443,-1.0893617868423462,-3.7689208984375,-6.53076171875,-9.735107421875
11.2499999,8.62630844116211,-4.568136692047119,-1.1540051698684692,-6.072998046875,-4.241943359375,-8.3160400390625
11.2699999,8.643068313598633,-4.520252704620361,-1.2497732639312744,-4.94384765625,-2.8839111328125,-8.0413818359375
11.2899999,8.662221908569336,-4.4723687171936035,-1.3239935636520386,-3.4637451171875,-0.0457763671875,-5.7830810546875
11.309999900000001,8.669404029846191,-4.412513732910156,-1.3623007535934448,0.4119873046875,1.46484375,-3.3111572265625
11.3299999,8.678980827331543,-4.378994941711426,-1.3742717504501343,-0.7476806640625,-0.67138671875,-3.0670166015625
11.3499999,8.69095230102539,-4.3861775398254395,-1.3694833517074585,-2.99072265625,-1.2359619140625,-4.180908203125
11.3699999,8.710105895996094,-4.417302131652832,-1.359906554222107,-6.7901611328125,0.2593994140625,-5.4779052734375
11.389999900000001,8.71728801727295,-4.424484729766846,-1.335964560508728,-3.4942626953125,1.28173828125,-5.9356689453125
11.4099999,8.712499618530273,-4.414907932281494,-1.3120225667953491,3.2806396484375,1.678466796875,-2.9449462890625
11.4299999,8.681375503540039,-4.343081951141357,-1.2761094570159912,5.7220458984375,2.0599365234375,-2.3345947265625
11.4499999,8.643068313598633,-4.259284973144531,-1.2401964664459229,0.579833984375,3.2501220703125,-3.021240234375
11.469999900000001,8.595184326171875,-4.158728122711182,-1.213860273361206,0.1983642578125,1.922607421875,-1.708984375
11.4899999,8.561665534973145,-4.0964789390563965,-1.192312479019165,1.800537109375,1.5716552734375,1.251220703125
11.5099999,8.544905662536621,-4.086902141571045,-1.1755530834197998,0.9918212890625,1.5106201171875,3.8299560546875
11.5299999,8.564059257507324,-4.170699596405029,-1.1827356815338135,-0.18310546875,1.8463134765625,3.41796875
11.549999900000001,8.616731643676758,-4.321534156799316,-1.2042834758758545,-1.40380859375,1.5716552734375,1.7547607421875
11.569999900000001,8.688557624816895,-4.491522312164307,-1.2330138683319092,-0.244140625,2.105712890625,0.2288818359375
11.5899999,8.760383605957031,-4.613626480102539,-1.2521674633026123,0.9765625,2.0599365234375,-1.6937255859375
11.6099999,8.810662269592285,-4.661510944366455,-1.2761094570159912,2.471923828125,0.9918212890625,-2.105712890625
11.629999900000001,8.83699893951416,-4.632780075073242,-1.2880805730819702,1.64794921875,1.0223388671875,-2.7923583984375
11.649999900000001,8.827422142028809,-4.5394062995910645,-1.3048399686813354,2.655029296875,1.556396484375,-3.0517578125
11.6699999,8.801085472106934,-4.424484729766846,-1.3120225667953491,1.678466796875,1.9073486328125,-2.9144287109375
11.6899999,8.765172004699707,-4.316745758056641,-1.316810965538025,0.457763671875,1.0833740234375,-1.89208984375
11.709999900000001,8.722076416015625,-4.220977783203125,-1.3000515699386597,-2.044677734375,1.434326171875,-3.204345703125
11.729999900000001,8.700529098510742,-4.211400985717773,-1.2952631711959839,-1.8463134765625,0.5645751953125,-1.617431640625
11.7499999,8.676587104797363,-4.206612586975098,-1.2737152576446533,-1.64794921875,1.556396484375,-2.532958984375
11.7699999,8.65982723236084,-4.216189384460449,-1.256955862045288,-1.312255859375,2.838134765625,-3.0059814453125
11.7899999,8.65982723236084,-4.2544965744018555,-1.2306196689605713,1.15966796875,2.7008056640625,1.8463134765625
11.809999900000001,8.652645111083984,-4.261679172515869,-1.1755530834197998,-0.06103515625,3.082275390625,1.8463134765625
11.8299999,8.65982723236084,-4.304774761199951,-1.1252747774124146,0.5645751953125,1.64794921875,0.5645751953125
11.8499999,8.678980827331543,-4.369418144226074,-1.0893617868423462,3.7841796875,0.2899169921875,1.5411376953125
11.8699999,8.688557624816895,-4.402936935424805,-1.0534487962722778,-2.5787353515625,1.495361328125,-0.5950927734375
11.889999900000001,8.702922821044922,-4.4292731285095215,-1.0678139925003052,-2.1820068359375,-0.1983642578125,-0.79345703125
11.9099999,8.702922821044922,-4.410119533538818,-1.072602391242981,0.1678466796875,-0.274658203125,-0.030517578125
11.9299999,8.695740699768066,-4.355052947998047,-1.1109095811843872,-0.823974609375,-1.495361328125,-0.4425048828125
11.9499999,8.702922821044922,-4.338293552398682,-1.1779472827911377,3.3721923828125,-1.800537109375,2.2430419921875
11.969999900000001,8.712499618530273,-4.335899353027344,-1.237802267074585,1.28173828125,1.7547607421875,1.7547607421875
11.9899999,8.734047889709473,-4.37420654296875,-1.3192051649093628,-0.2593994140625,0.946044921875,-0.9002685546875
12.0099999,8.765172004699707,-4.434061527252197,-1.3742717504501343,-0.030517578125,0.0762939453125,-0.640869140625
12.0299999,8.774748802185059,-4.424484729766846,-1.3958195447921753,-2.5787353515625,2.227783203125,-2.38037109375
12.049999900000001,8.78193187713623,-4.400542736053467,-1.403002142906189,-2.3193359375,2.105712890625,-0.7781982421875
12.069999900000001,8.755595207214355,-4.290409564971924,-1.359906554222107,-0.9918212890625,2.777099609375,0.42724609375
12.0899999,8.729259490966797,-4.1395745277404785,-1.2761094570159912,-3.5858154296875,3.2196044921875,1.251220703125
12.1099999,8.695740699768066,-3.950432777404785,-1.1468225717544556,-0.2593994140625,3.23486328125,4.180908203125
12.129999900000001,8.69334602355957,-3.7421371936798096,-0.9648633003234863,-0.701904296875,3.0517578125,6.622314453125
12.149999900000001,8.731653213500977,-3.531447410583496,-0.8164227604866028,3.173828125,-1.068115234375,8.1634521484375
12.1699999,8.87051773071289,-3.3901896476745605,-0.6631938815116882,5.2642822265625,-0.6561279296875,8.6517333984375
12.1899999,9.121908187866211,-3.2537200450897217,-0.6488286852836609,10.3302001953125,-2.9449462890625,2.5482177734375
12.209999900000001,9.459490776062012,-2.9664158821105957,-0.706289529800415,2.8228759765625,-5.92041015625,-10.8489990234375
12.229999900000001,9.835380554199219,-2.43011474609375,-0.7445967197418213,14.7247314453125,8.331298828125,-14.3280029296875
12.2499999,10.220847129821777,-1.4987702369689941,-0.629675030708313,14.801025390625,14.1143798828125,-10.5743408203125
12.2699999,10.551246643066406,-0.22505496442317963,-0.5578489899635315,-8.636474609375,-11.1541748046875,-6.1492919921875
12.289999900000002,10.869675636291504,0.8834604024887085,-0.43095630407333374,0.8087158203125,-0.3814697265625,19.500732421875
12.309999900000001,11.195286750793457,1.3862427473068237,0.021547814831137657,-14.5111083984375,38.3758544921875,37.29248046875
12.3299999,11.54005241394043,0.9265560507774353,0.6703764796257019,-17.0135498046875,13.397216796875,15.777587890625
12.3499999,11.798625946044922,-0.272938996553421,1.1468225717544556,2.9144287109375,-71.1517333984375,-27.5726318359375
12.3699999,11.90157699584961,-1.6543933153152466,1.316810965538025,17.6849365234375,-84.7320556640625,-39.3218994140625
12.389999900000001,11.683704376220703,-2.628833532333374,0.5506663918495178,32.2113037109375,-37.4298095703125,6.6680908203125
12.4099999,11.377246856689453,-3.667917013168335,-0.2059013396501541,-14.83154296875,-4.8828125,44.5404052734375
12.4299999,10.855310440063477,-4.091690540313721,-0.9193734526634216,-81.5582275390625,-54.8553466796875,-3.35693359375
12.4499999,10.280701637268066,-4.211400985717773,-1.6328455209732056,-64.63623046875,-115.90576171875,-42.0989990234375
12.469999900000001,9.782708168029785,-4.091690540313721,-2.6815059185028076,-42.17529296875,-69.5037841796875,26.4434814453125
12.4899999,9.198522567749023,-3.6104562282562256,-3.603273630142212,-73.4405517578125,34.515380859375,67.32177734375
12.5099999,8.83939266204834,-3.773261785507202,-4.027047157287598,-137.8326416015625,29.9530029296875,36.8804931640625
12.5299999,8.327033042907715,-4.005499362945557,-4.596867084503174,-102.9205322265625,-103.6376953125,-24.658203125
12.549999900000001,7.687781810760498,-4.6471452713012695,-5.386953830718994,3.0364990234375,-86.8072509765625,14.129638671875
12.569999900000001,6.5696892738342285,-4.8267107009887695,-6.184223175048828,-55.206298828125,76.6448974609375,91.9189453125
12.5899999,5.319916248321533,-5.506663799285889,-7.086836814880371,-143.341064453125,49.530029296875,141.7388916015625
12.6099999,4.0749311447143555,-6.572083473205566,-7.489062786102295,-70.2667236328125,-80.4443359375,148.86474609375
12.629999900000001,3.514688014984131,-8.99740982055664,-7.156269073486328,-1.03759765625,-54.3060302734375,153.9764404296875
12.649999900000001,3.557783842086792,-11.537657737731934,-7.043741226196289,5.7373046875,39.97802734375,109.4207763671875
12.6699999,3.9624037742614746,-13.39555835723877,-6.71334171295166,-28.1524658203125,69.39697265625,30.5633544921875
12.6899999,4.49870491027832,-14.24071216583252,-5.468356609344482,-5.5694580078125,64.361572265625,14.556884765625
12.709999900000001,4.5825018882751465,-13.002909660339355,-3.6152446269989014,11.4593505859375,5.706787109375,-25.9246826171875
12.729999900000001,4.352658748626709,-10.541669845581055,-1.8794482946395874,29.510498046875,-38.0859375,-49.1790771484375
12.7499999,4.015076160430908,-7.508216381072998,-1.170764684677124,47.05810546875,-28.0914306640625,-9.5672607421875
12.7699999,3.8331170082092285,-4.738125324249268,-1.479616641998291,63.0950927734375,13.519287109375,20.233154296875
12.789999900000002,4.010287761688232,-2.9903578758239746,-2.164358377456665,47.7294921875,44.586181640625,23.9105224609375
12.809999900000001,4.592078685760498,-2.801215887069702,-2.760514497756958,52.7801513671875,23.98681640625,23.2696533203125
12.8299999,5.315127849578857,-3.466804027557373,-2.7293899059295654,27.984619140625,0.152587890625,2.0751953125
12.8499999,5.9735331535339355,-4.414907932281494,-2.5330653190612793,-0.6866455078125,-16.998291015625,-19.8211669921875
12.8699999,6.507440090179443,-5.293580055236816,-2.4372973442077637,-6.2103271484375,-24.322509765625,-3.1585693359375
12.889999900000001,6.801927089691162,-5.595249176025391,-2.5713725090026855,-17.9901123046875,-17.6239013671875,2.8533935546875
12.9099999,6.962338447570801,-5.542576789855957,-2.96162748336792,-23.529052734375,-9.33837890625,0.8087158203125
12.9299999,7.105990409851074,-5.525817394256592,-3.464409828186035,-4.364013671875,-2.4871826171875,16.326904296875
12.9499999,7.220912456512451,-5.52821159362793,-3.7828385829925537,-6.40869140625,9.0179443359375,21.240234375
12.969999900000001,7.33583402633667,-5.767632007598877,-3.9240965843200684,-13.6871337890625,8.9263916015625,11.688232421875
12.9899999,7.405265808105469,-6.050147533416748,-3.7421371936798096,-20.7366943359375,0.54931640625,0.6256103515625
13.0099999,7.443572998046875,-6.311115741729736,-3.490746021270752,-12.4053955078125,-8.4381103515625,2.3651123046875
13.0299999,7.41484260559082,-6.347028732299805,-3.3518824577331543,8.209228515625,-11.016845703125,3.509521484375
13.049999900000001,7.402871608734131,-6.36378812789917,-3.354276657104492,9.307861328125,1.6632080078125,4.5318603515625
13.069999900000001,7.376535415649414,-6.320692539215088,-3.4955344200134277,7.26318359375,7.87353515625,0.48828125
13.0899999,7.340622425079346,-6.299144744873047,-3.507505416870117,15.533447265625,8.056640625,-3.204345703125
13.1099999,7.287950038909912,-6.313509941101074,-3.428496837615967,22.15576171875,-0.6256103515625,-0.9613037109375
13.129999900000001,7.194576263427734,-6.268020153045654,-3.354276657104492,35.7818603515625,-6.378173828125,-2.01416015625
13.149999900000001,7.079654216766357,-6.141127586364746,-3.2848446369171143,20.965576171875,2.5787353515625,-6.103515625
13.1699999,7.015010833740234,-6.121973514556885,-3.287238836288452,0.9613037109375,6.1187744140625,3.448486328125
13.1899999,6.97430944442749,-6.14831018447876,-3.2632968425750732,4.486083984375,1.77001953125,6.16455078125
13.209999900000001,7.003039836883545,-6.31829833984375,-3.1268274784088135,-0.3204345703125,-0.1678466796875,-2.9754638671875
13.229999900000001,7.0557122230529785,-6.514622688293457,-2.985569477081299,-15.0299072265625,-5.0811767578125,-11.71875
13.2499999,7.079654216766357,-6.574477672576904,-2.920926094055176,-13.18359375,-8.4075927734375,-12.4969482421875
13.2699999,7.058106422424316,-6.426037311553955,-3.028665065765381,-2.25830078125,-7.01904296875,-6.53076171875
13.289999900000002,7.007828235626221,-6.174646377563477,-3.134010076522827,6.4239501953125,7.5531005859375,-0.1373291015625
13.309999900000001,6.979097843170166,-5.9974751472473145,-3.1699230670928955,0.06103515625,11.5203857421875,2.3345947265625
13.3299999,7.003039836883545,-5.978321552276611,-3.1483752727508545,7.6904296875,-3.41796875,-0.457763671875
13.3499999,7.0557122230529785,-6.035782337188721,-3.043030261993408,20.9503173828125,-6.9580078125,-7.2021484375
13.3699999,7.146692276000977,-6.1770405769348145,-2.978386878967285,25.5126953125,4.7149658203125,-4.69970703125
13.389999900000001,7.194576263427734,-6.191405773162842,-3.004723072052002,15.31982421875,4.7149658203125,-4.2724609375
13.4099999,7.208941459655762,-6.133944988250732,-3.0573954582214355,11.993408203125,-0.91552734375,-4.8980712890625
13.4299999,7.180211067199707,-6.038176536560059,-3.0406360626220703,9.124755859375,0.6256103515625,-1.6937255859375
13.4499999,7.132327079772949,-5.949591159820557,-2.9712042808532715,0.9002685546875,0.91552734375,-0.6256103515625
13.469999900000001,7.079654216766357,-5.872976779937744,-2.9281086921691895,1.2664794921875,-5.4168701171875,-3.631591796875
13.4899999,7.041347026824951,-5.837063789367676,-2.9041666984558105,0.91552734375,-5.9814453125,-2.7008056640625
13.5099999,7.022193431854248,-5.841852188110352,-2.9017724990844727,-5.55419921875,0.244140625,1.4801025390625
13.5299999,7.026981830596924,-5.8873419761657715,-2.942473888397217,-12.5579833984375,-0.091552734375,2.105712890625
13.549999900000001,7.043741226196289,-5.966350555419922,-2.9664158821105957,-8.4075927734375,-4.241943359375,-1.6937255859375
13.569999900000001,7.062894821166992,-6.033388137817383,-2.9735984802246094,-0.5950927734375,-2.25830078125,-3.7078857421875
13.5899999,7.082048416137695,-6.102819919586182,-2.9975404739379883,7.476806640625,0.79345703125,-0.48828125
13.6099999,7.070077419281006,-6.069301128387451,-3.0310592651367188,9.8724365234375,2.6702880859375,-1.251220703125
13.629999900000001,7.048529624938965,-6.0190229415893555,-3.047818660736084,11.7340087890625,3.021240234375,-1.2969970703125
13.649999900000001,7.0341644287109375,-5.999869346618652,-2.999934673309326,14.3890380859375,4.180908203125,2.2735595703125
13.6699999,7.0341644287109375,-6.011840343475342,-2.9089550971984863,14.984130859375,2.3651123046875,2.349853515625
13.6899999,7.062894821166992,-6.081272125244141,-2.8107926845550537,18.1732177734375,-1.4801025390625,-1.89208984375
13.709999900000001,7.103596210479736,-6.157886981964111,-2.784456491470337,19.04296875,-2.6702880859375,-3.60107421875
13.729999900000001,7.146692276000977,-6.229712963104248,-2.75812029838562,9.796142578125,1.8463134765625,-1.46484375
13.7499999,7.1706342697143555,-6.2392897605896,-2.7916390895843506,1.708984375,1.3275146484375,-1.40380859375
13.7699999,7.175422668457031,-6.2392897605896,-2.7988216876983643,2.6702880859375,-2.0294189453125,-1.7852783203125
13.789999900000002,7.16584587097168,-6.210559368133545,-2.7940332889556885,-0.91552734375,-2.3651123046875,-1.8768310546875
13.809999900000001,7.1490864753723145,-6.172252178192139,-2.7724854946136475,-6.6680908203125,-0.9307861328125,-1.129150390625
13.8299999,7.129932880401611,-6.141127586364746,-2.786850690841675,-4.4708251953125,-2.410888671875,-0.1068115234375
13.8499999,7.117961883544922,-6.121973514556885,-2.806004285812378,3.3416748046875,-2.8533935546875,-0.396728515625
13.8699999,7.103596210479736,-6.100425720214844,-2.8203697204589844,1.4801025390625,-0.8697509765625,-2.7008056640625
13.889999900000001,7.089231014251709,-6.074089527130127,-2.8658595085144043,4.1656494140625,-1.434326171875,-2.0904541015625
13.9099999,7.06528902053833,-6.01423454284668,-2.913743495941162,3.509521484375,-2.410888671875,-0.244140625
13.9299999,7.043741226196289,-5.963956356048584,-2.9759926795959473,6.3629150390625,-0.3509521484375,2.1514892578125
13.9499999,7.0317702293396,-5.944802761077881,-3.00711727142334,7.9803466796875,3.936767578125,2.3345947265625
13.969999900000001,7.046135425567627,-6.00226354598999,-2.983175277709961,4.669189453125,3.7994384765625,3.0059814453125
13.9899999,7.074865818023682,-6.110002517700195,-2.959233283996582,3.2196044921875,-2.38037109375,1.739501953125
14.0099999,7.117961883544922,-6.229712963104248,-2.8993782997131348,-0.91552734375,-2.777099609375,0.030517578125
14.0299999,7.163451671600342,-6.342240333557129,-2.8371291160583496,-6.6680908203125,1.8463134765625,-0.48828125
14.049999900000001,7.196970462799072,-6.399701118469238,-2.846705913543701,-5.9814453125,-2.227783203125,-1.0986328125
14.069999900000001,7.216124057769775,-6.406883716583252,-2.8562827110290527,-2.7313232421875,-2.8533935546875,-1.251220703125
14.0899999,7.228095054626465,-6.385335922241211,-2.868253707885742,-4.2724609375,2.8533935546875,-0.3814697265625
14.1099999,7.225700855255127,-6.320692539215088,-2.9089550971984863,-4.1656494140625,1.861572265625,-1.5411376953125
14.129999900000001,7.228095054626465,-6.291962146759033,-2.911349296569824,-4.547119140625,0.9002685546875,-0.5950927734375
14.149999900000001,7.220912456512451,-6.260837554931641,-2.892195701599121,-1.7852783203125,0.8392333984375,-1.556396484375
14.1699999,7.2113356590271,-6.2632317543029785,-2.8562827110290527,-1.2969970703125,1.5411376953125,-2.7923583984375
14.1899999,7.194576263427734,-6.27280855178833,-2.8203697204589844,2.716064453125,1.4801025390625,-2.7008056640625
14.209999900000001,7.163451671600342,-6.248866558074951,-2.80361008644104,4.364013671875,0.457763671875,-3.72314453125
14.229999900000001,7.134721279144287,-6.222530364990234,-2.8155810832977295,4.974365234375,0.9765625,-2.3956298828125
14.2499999,7.108384609222412,-6.1770405769348145,-2.8371291160583496,2.6702880859375,3.2196044921875,-1.2359619140625
14.2699999,7.0988078117370605,-6.143521785736084,-2.8634653091430664,0.1983642578125,3.631591796875,-1.03759765625
14.289999900000002,7.089231014251709,-6.1052141189575195,-2.8778305053710938,1.0833740234375,2.288818359375,-1.89208984375
14.309999900000001,7.089231014251709,-6.095637321472168,-2.8610711097717285,-1.007080078125,3.875732421875,-0.6561279296875
14.3299999,7.082048416137695,-6.0597243309021,-2.853888511657715,-4.69970703125,2.9754638671875,-0.48828125
14.3499999,7.072471618652344,-5.999869346618652,-2.868253707885742,-5.462646484375,1.52587890625,-1.861572265625
14.3699999,7.070077419281006,-5.947196960449219,-2.8610711097717285,-4.0435791015625,3.41796875,0.3662109375
14.389999900000001,7.0772600173950195,-5.904101371765137,-2.8562827110290527,0.0152587890625,4.45556640625,2.50244140625
14.4099999,7.089231014251709,-5.906495571136475,-2.827552318572998,4.0130615234375,2.99072265625,1.7547607421875
14.4299999,7.103596210479736,-5.942408561706543,-2.806004285812378,5.4473876953125,0.885009765625,-0.2593994140625
14.4499999,7.12035608291626,-6.00226354598999,-2.801215887069702,3.60107421875,2.0751953125,0.3814697265625
14.469999900000001,7.122750282287598,-6.028599739074707,-2.8371291160583496,3.0059814453125,3.0517578125,1.1138916015625
14.4899999,7.1251444816589355,-6.054935932159424,-2.8634653091430664,0.6103515625,3.692626953125,1.5106201171875
14.5099999,7.122750282287598,-6.086060523986816,-2.849100112915039,-2.227783203125,4.5318603515625,2.197265625
14.5299999,7.115567684173584,-6.112396717071533,-2.8131868839263916,-4.3792724609375,0,0.457763671875
14.549999900000001,7.103596210479736,-6.117185115814209,-2.7724854946136475,-5.8135986328125,-2.7008056640625,-0.396728515625
14.569999900000001,7.110779285430908,-6.145915985107422,-2.7964274883270264,0.213623046875,-0.213623046875,2.9296875
14.5899999,7.127538681030273,-6.141127586364746,-2.851494312286377,-0.9002685546875,3.5858154296875,2.3193359375
14.6099999,7.163451671600342,-6.174646377563477,-2.9065608978271484,-3.0517578125,4.7760009765625,0.396728515625
14.629999900000001,7.204153060913086,-6.224924564361572,-2.9041666984558105,-3.5858154296875,3.0059814453125,0.762939453125
14.649999900000001,7.230489253997803,-6.2392897605896,-2.8874073028564453,0.3509521484375,-0.9002685546875,-0.8087158203125
14.6699999,7.249642848968506,-6.246472358703613,-2.8802247047424316,6.7596435546875,0.1220703125,-0.8544921875
14.6899999,7.252037048339844,-6.236895561218262,-2.9065608978271484,2.6092529296875,4.241943359375,0.2288818359375
14.709999900000001,7.249642848968506,-6.215347766876221,-2.9065608978271484,-4.1656494140625,5.9051513671875,-1.0986328125
14.729999900000001,7.242460250854492,-6.2201361656188965,-2.892195701599121,-1.6632080078125,1.7547607421875,-1.2664794921875
14.7499999,7.225700855255127,-6.1985883712768555,-2.832340717315674,-0.6103515625,-0.9613037109375,-2.74658203125
14.7699999,7.2113356590271,-6.191405773162842,-2.7892448902130127,0.732421875,1.312255859375,-1.3580322265625
14.789999900000002,7.189787864685059,-6.141127586364746,-2.7748796939849854,3.2958984375,2.7923583984375,-1.312255859375
14.809999900000001,7.182605266571045,-6.107608318328857,-2.7988216876983643,3.570556640625,1.6632080078125,-0.7171630859375
14.8299999,7.173028469085693,-6.054935932159424,-2.8586769104003906,2.1820068359375,0.213623046875,-0.79345703125
14.8499999,7.177816867828369,-6.052541732788086,-2.875436305999756,-1.89208984375,5.1116943359375,0.54931640625
14.8699999,7.1921820640563965,-6.09324312210083,-2.8419175148010254,-0.5645751953125,7.110595703125,0.885009765625
14.889999900000001,7.206547260284424,-6.157886981964111,-2.7724854946136475,5.126953125,-0.0762939453125,-2.5787353515625
14.9099999,7.220912456512451,-6.217741966247559,-2.7030537128448486,3.5552978515625,-4.3792724609375,-4.94384765625
14.9299999,7.220912456512451,-6.2201361656188965,-2.676717519760132,-0.762939453125,0.4730224609375,-4.180908203125
14.9499999,7.2137298583984375,-6.167463779449463,-2.7222073078155518,-0.9002685546875,2.9754638671875,-2.5787353515625
14.969999900000001,7.196970462799072,-6.081272125244141,-2.784456491470337,2.777099609375,2.1820068359375,-1.9073486328125
14.9899999,7.187393665313721,-6.011840343475342,-2.7964274883270264,3.326416015625,3.387451171875,-1.4801025390625
15.0099999,7.187393665313721,-5.985504150390625,-2.784456491470337,1.15966796875,2.9754638671875,-0.9918212890625
15.0299999,7.1921820640563965,-5.980715751647949,-2.7317841053009033,-1.3275146484375,1.0833740234375,-1.6021728515625
15.049999900000001,7.206547260284424,-6.009446144104004,-2.691082715988159,-1.15966796875,-0.9613037109375,-1.89208984375
15.069999900000001,7.208941459655762,-6.009446144104004,-2.676717519760132,1.251220703125,0.1373291015625,-2.1514892578125
15.0899999,7.206547260284424,-5.9974751472473145,-2.6886885166168213,2.1820068359375,2.5482177734375,-1.739501953125
15.1099999,7.194576263427734,-5.971138954162598,-2.7246015071868896,-0.5950927734375,2.288818359375,0.152587890625
15.129999900000001,7.189787864685059,-5.95677375793457,-2.734178304672241,-0.2288818359375,2.044677734375,0.5950927734375
15.149999900000001,7.1921820640563965,-5.96874475479126,-2.7078421115875244,-2.9754638671875,1.312255859375,-0.3814697265625
15.1699999,7.216124057769775,-6.0190229415893555,-2.7006595134735107,0.8697509765625,-0.5035400390625,-0.579833984375
15.1899999,7.249642848968506,-6.071695327758789,-2.6862943172454834,1.89208984375,0.335693359375,-1.0528564453125
15.209999900000001,7.275979042053223,-6.107608318328857,-2.7054479122161865,-0.54931640625,1.6021728515625,-2.0751953125
15.229999900000001,7.29034423828125,-6.119579315185547,-2.7317841053009033,0.213623046875,1.5869140625,-1.5411376953125
15.2499999,7.299921035766602,-6.1267619132995605,-2.734178304672241,3.41796875,2.0904541015625,-0.823974609375
15.2699999,7.292738437652588,-6.112396717071533,-2.738966703414917,3.2806396484375,0.6866455078125,-2.716064453125
15.289999900000002,7.280767440795898,-6.095637321472168,-2.715024709701538,1.434326171875,0.9307861328125,-3.6163330078125
15.309999900000001,7.254431247711182,-6.0621185302734375,-2.719813108444214,0.8697509765625,0.1678466796875,-2.471923828125
15.3299999,7.2113356590271,-6.00226354598999,-2.7269957065582275,2.8533935546875,0.48828125,-1.800537109375
15.3499999,7.163451671600342,-5.942408561706543,-2.7030537128448486,-1.0833740234375,2.197265625,-0.8392333984375
15.3699999,7.129932880401611,-5.894524574279785,-2.669534921646118,-3.875732421875,0.5340576171875,0.4425048828125
15.389999900000001,7.108384609222412,-5.849034786224365,-2.650381326675415,-1.7547607421875,-2.777099609375,0.732421875
15.4099999,7.127538681030273,-5.841852188110352,-2.6647465229034424,-1.9989013671875,-0.885009765625,2.6092529296875
15.4299999,7.16584587097168,-5.851428985595703,-2.7222073078155518,-3.23486328125,3.448486328125,2.9754638671875
15.4499999,7.218518257141113,-5.901707172393799,-2.7700912952423096,-5.6915283203125,4.791259765625,2.777099609375
15.469999900000001,7.266402244567871,-5.971138954162598,-2.7916390895843506,-5.79833984375,1.190185546875,2.25830078125
15.4899999,7.299921035766602,-6.028599739074707,-2.786850690841675,-4.4097900390625,-0.7476806640625,1.3427734375
15.5099999,7.316680431365967,-6.064512729644775,-2.806004285812378,-1.678466796875,0.823974609375,1.220703125
15.5299999,7.316680431365967,-6.0597243309021,-2.846705913543701,0.640869140625,3.448486328125,1.129150390625
15.549999900000001,7.311892032623291,-6.057330131530762,-2.892195701599121,0.396728515625,4.8828125,2.777099609375
15.569999900000001,7.297526836395264,-6.069301128387451,-2.889801502227783,-0.274658203125,4.5928955078125,2.9144287109375
15.5899999,7.280767440795898,-6.1315507888793945,-2.8347349166870117,-0.7781982421875,3.72314453125,1.2054443359375
15.6099999,7.259219646453857,-6.212953567504883,-2.765302896499634,-0.244140625,0.9765625,-1.28173828125
15.629999900000001,7.228095054626465,-6.270414352416992,-2.7222073078155518,1.922607421875,1.0528564453125,-3.570556640625
15.649999900000001,7.1921820640563965,-6.294356346130371,-2.6647465229034424,2.532958984375,5.4931640625,-3.41796875
15.6699999,7.156269073486328,-6.279991149902344,-2.628833532333374,0.48828125,3.9825439453125,-3.4332275390625
15.6899999,7.139509677886963,-6.270414352416992,-2.5953147411346436,2.0599365234375,-0.6561279296875,-4.608154296875
15.709999900000001,7.129932880401611,-6.224924564361572,-2.561795711517334,1.7242431640625,0.4730224609375,-7.5531005859375
15.729999900000001,7.151480674743652,-6.208165168762207,-2.585737943649292,1.9683837890625,2.2125244140625,-6.9427490234375
15.7499999,7.180211067199707,-6.150704383850098,-2.628833532333374,1.3275146484375,2.5482177734375,-6.072998046875
15.7699999,7.220912456512451,-6.110002517700195,-2.6839001178741455,1.3427734375,2.197265625,-7.0343017578125
15.789999900000002,7.261613845825195,-6.102819919586182,-2.741360902786255,2.0904541015625,2.685546875,-6.5460205078125
15.809999900000001,7.292738437652588,-6.124367713928223,-2.7557260990142822,4.1046142578125,5.615234375,-7.415771484375
15.8299999,7.299921035766602,-6.145915985107422,-2.741360902786255,5.0506591796875,6.7138671875,-9.27734375
15.8499999,7.29034423828125,-6.157886981964111,-2.669534921646118,4.058837890625,4.150390625,-9.5062255859375
15.869999900000002,7.264008045196533,-6.167463779449463,-2.6144683361053467,6.195068359375,1.708984375,-7.8887939453125
15.889999900000001,7.230489253997803,-6.138733386993408,-2.5785553455352783,7.293701171875,3.96728515625,-9.4757080078125
15.9099999,7.208941459655762,-6.119579315185547,-2.5546131134033203,5.859375,8.453369140625,-10.223388671875
15.9299999,7.1921820640563965,-6.042964935302734,-2.5115175247192383,1.6632080078125,6.40869140625,-11.8255615234375
15.9499999,7.189787864685059,-5.940014362335205,-2.5067291259765625,7.171630859375,-0.030517578125,-11.3372802734375
15.969999900000001,7.204153060913086,-5.793968200683594,-2.5282769203186035,9.0484619140625,1.495361328125,-9.552001953125
15.9899999,7.230489253997803,-5.6455278396606445,-2.5689783096313477,1.64794921875,8.1787109375,-8.6669921875
16.0099999,7.275979042053223,-5.537788391113281,-2.6384103298187256,1.28173828125,6.89697265625,-6.7901611328125
16.0299999,7.331045627593994,-5.4875102043151855,-2.7222073078155518,8.056640625,1.46484375,-5.79833984375
16.0499999,7.378929615020752,-5.494692802429199,-2.7724854946136475,7.62939453125,6.7291259765625,-6.34765625
16.0699999,7.42681360244751,-5.540182590484619,-2.779668092727661,0.1983642578125,15.0146484375,-5.645751953125
16.089999900000002,7.46033239364624,-5.583278179168701,-2.655169725418091,-7.1563720703125,12.20703125,-5.92041015625
16.109999900000002,7.489062786102295,-5.626373767852783,-2.5282769203186035,0.244140625,-1.4190673828125,-5.7373046875
16.1299999,7.5201873779296875,-5.66228723526001,-2.43011474609375,8.2855224609375,-2.5482177734375,-5.37109375
16.1499999,7.534552574157715,-5.6670756340026855,-2.427720546722412,1.0986328125,10.345458984375,-5.889892578125
16.1699999,7.546523571014404,-5.671864032745361,-2.43011474609375,-9.429931640625,15.472412109375,-3.631591796875
16.1899999,7.5632829666137695,-5.698200225830078,-2.403778553009033,-8.5906982421875,3.8604736328125,-0.9918212890625
16.2099999,7.580042362213135,-5.75326681137085,-2.3295583724975586,-4.5166015625,-4.0740966796875,-3.60107421875
16.2299999,7.613561630249023,-5.837063789367676,-2.2864625453948975,-10.589599609375,1.6632080078125,-7.5225830078125
16.249999900000002,7.642292022705078,-5.9088897705078125,-2.2457611560821533,-15.899658203125,8.1787109375,-9.2315673828125
16.269999900000002,7.673416614532471,-5.91128396987915,-2.255337953567505,-5.401611328125,1.6326904296875,-9.4757080078125
16.2899999,7.706935405731201,-5.856217384338379,-2.293645143508911,14.251708984375,-4.4097900390625,-9.8114013671875
16.3099999,7.747636795043945,-5.758055210113525,-2.3271639347076416,11.444091796875,5.7220458984375,-8.7127685546875
16.3299999,7.797914981842041,-5.688623428344727,-2.406172752380371,11.65771484375,12.0849609375,-7.5225830078125
16.3499999,7.864952564239502,-5.710171222686768,-2.4684219360351562,14.0380859375,5.218505859375,-5.67626953125
16.3699999,7.922413349151611,-5.75326681137085,-2.492363929748535,14.3585205078125,3.3416748046875,-10.223388671875
16.3899999,7.970297336578369,-5.839457988739014,-2.4468741416931152,7.080078125,10.68115234375,-12.359619140625
16.4099999,8.020575523376465,-5.925649166107178,-2.3367409706115723,-2.62451171875,12.1612548828125,-10.2691650390625
16.429999900000002,8.051700592041016,-5.961562156677246,-2.2218191623687744,1.0833740234375,-0.6561279296875,-12.4053955078125
16.4499999,8.085219383239746,-5.963956356048584,-2.0829553604125977,3.90625,-3.448486328125,-17.6239013671875
16.4699999,8.118738174438477,-5.904101371765137,-2.0805611610412598,7.2784423828125,1.1444091796875,-19.287109375
16.4899999,8.130708694458008,-5.760449409484863,-2.0877439975738525,3.0517578125,7.9498291015625,-18.218994140625
16.5099999,8.123526573181152,-5.564124584197998,-2.0829553604125977,-3.204345703125,4.57763671875,-17.15087890625
16.5299999,8.10437297821045,-5.398924827575684,-2.1164743900299072,12.176513671875,-5.06591796875,-14.7552490234375
16.5499999,8.073247909545898,-5.274426460266113,-2.1284453868865967,9.307861328125,-0.396728515625,-15.045166015625
16.5699999,8.04930591583252,-5.22175407409668,-2.1715409755706787,-0.5645751953125,9.6588134765625,-15.07568359375
16.589999900000002,8.037335395812988,-5.202600479125977,-2.1547815799713135,-1.77001953125,9.124755859375,-13.885498046875
16.609999900000002,8.02536392211914,-5.1810526847839355,-2.1068975925445557,-4.08935546875,-2.9144287109375,-14.556884765625
16.6299999,8.020575523376465,-5.16429328918457,-2.006340980529785,-0.701904296875,-2.9449462890625,-14.739990234375
16.6499999,8.02536392211914,-5.147533416748047,-2.0207061767578125,1.1444091796875,2.0599365234375,-13.671875
16.6699999,8.015787124633789,-5.039794445037842,-2.0853497982025146,-1.3427734375,4.5166015625,-15.625
16.6899999,8.006210327148438,-4.917690277099609,-2.1140801906585693,-0.0457763671875,7.232666015625,-10.223388671875
16.7099999,8.008605003356934,-4.833893299102783,-2.0685901641845703,3.6468505859375,5.218505859375,-1.2664794921875
16.7299999,8.030152320861816,-4.821922302246094,-2.03507137298584,1.1138916015625,-4.180908203125,-5.157470703125
16.749999900000002,8.073247909545898,-4.896142482757568,-2.0446481704711914,2.593994140625,-3.35693359375,-11.9171142578125
16.769999900000002,8.11634349822998,-4.896142482757568,-2.212242364883423,9.2010498046875,5.3863525390625,-14.6331787109375
16.7899999,8.128314971923828,-4.776432514190674,-2.3247697353363037,10.1470947265625,16.8914794921875,-6.4849853515625
16.8099999,8.118738174438477,-4.594472885131836,-2.322375535964966,3.082275390625,15.4266357421875,3.47900390625
16.8299999,8.128314971923828,-4.460397720336914,-2.1547815799713135,4.1351318359375,3.72314453125,4.08935546875
16.8499999,8.169015884399414,-4.441244125366211,-1.920149803161621,18.4478759765625,-1.007080078125,-2.9754638671875
16.8699999,8.259995460510254,-4.517858505249023,-1.7717092037200928,27.40478515625,3.173828125,-3.4942626953125
16.8899999,8.367734909057617,-4.599261283874512,-1.778891921043396,12.6953125,4.9591064453125,-1.8463134765625
16.9099999,8.453926086425781,-4.6471452713012695,-1.8195933103561401,2.349853515625,7.75146484375,-1.9073486328125
16.929999900000002,8.516175270080566,-4.726154327392578,-1.800439715385437,-0.54931640625,8.36181640625,-0.5340576171875
16.9499999,8.549694061279297,-4.838681697845459,-1.721431016921997,4.1351318359375,0.3662109375,-2.2125244140625
16.9699999,8.544905662536621,-4.924872875213623,-1.6519991159439087,6.072998046875,-6.927490234375,-7.8582763671875
16.9899999,8.501810073852539,-4.95120906829834,-1.5969325304031372,9.5977783203125,-0.5645751953125,-8.85009765625
17.0099999,8.451532363891602,-4.975151062011719,-1.5945383310317993,10.8184814453125,3.90625,-3.5247802734375
17.0299999,8.379706382751465,-4.922478675842285,-1.5442601442337036,-2.2125244140625,-3.6468505859375,-9.735107421875
17.0499999,8.33182144165039,-4.8937482833862305,-1.558625340461731,-8.1329345703125,-15.8843994140625,-17.303466796875
17.0699999,8.31985092163086,-4.819528102874756,-1.6711528301239014,-3.6468505859375,-15.8538818359375,-17.1966552734375
17.089999900000002,8.334216117858887,-4.683058738708496,-1.920149803161621,-1.6632080078125,-3.3416748046875,-13.73291015625
17.109999900000002,8.360552787780762,-4.5394062995910645,-2.145204782485962,-3.4942626953125,9.6588134765625,-6.8817138671875
17.1299999,8.391676902770996,-4.496310710906982,-2.1787235736846924,-1.8157958984375,11.474609375,-1.9378662109375
17.1499999,8.437167167663574,-4.620809078216553,-2.0685901641845703,6.3934326171875,-1.373291015625,-4.8370361328125
17.1699999,8.47547435760498,-4.774038314819336,-1.9177556037902832,5.4473876953125,-10.19287109375,-17.9290771484375
17.1899999,8.501810073852539,-4.807557106018066,-1.9345149993896484,-4.69970703125,-6.195068359375,-22.247314453125
17.2099999,8.516175270080566,-4.675876140594482,-1.987187385559082,-0.2288818359375,12.0697021484375,-8.7890625
17.2299999,8.497021675109863,-4.381389141082764,-2.0470423698425293,10.25390625,15.7623291015625,2.288818359375
17.249999900000002,8.506598472595215,-4.144362926483154,-2.0470423698425293,24.169921875,2.655029296875,4.0130615234375
17.269999900000002,8.547300338745117,-3.998316764831543,-2.008735179901123,23.9410400390625,1.861572265625,2.8228759765625
17.2899999,8.669404029846191,-4.019864559173584,-2.097320795059204,27.0843505859375,10.7574462890625,8.087158203125
17.3099999,8.825027465820312,-4.151545524597168,-2.1811177730560303,22.9644775390625,21.453857421875,8.85009765625
17.3299999,8.980650901794434,-4.345476150512695,-2.013523578643799,-4.4708251953125,26.580810546875,1.46484375
17.3499999,9.117119789123535,-4.659116744995117,-1.7381904125213623,4.302978515625,7.9345703125,-0.3509521484375
17.3699999,9.20091724395752,-4.9583916664123535,-1.3239935636520386,20.7977294921875,-4.302978515625,-3.4637451171875
17.3899999,9.208099365234375,-5.171475887298584,-1.094150185585022,22.4609375,-2.8839111328125,-10.7879638671875
17.409999900000003,9.153033256530762,-5.2672438621521,-1.1516109704971313,16.632080078125,-1.7852783203125,-12.9241943359375
17.429999900000002,9.02135181427002,-5.178658485412598,-1.414973258972168,6.7901611328125,1.0833740234375,-12.9852294921875
17.4499999,8.87051773071289,-5.027823448181152,-1.6974890232086182,6.4697265625,9.21630859375,-8.1787109375
17.4699999,8.688557624816895,-4.797980308532715,-1.7405846118927002,0.5340576171875,17.425537109375,-8.9874267578125
17.4899999,8.547300338745117,-4.649539470672607,-1.5753847360610962,8.9874267578125,10.9405517578125,-8.5906982421875
17.5099999,8.434772491455078,-4.55616569519043,-1.2473790645599365,22.6593017578125,-1.0223388671875,-10.498046875
17.5299999,8.38688850402832,-4.5154643058776855,-0.9959878921508789,14.95361328125,-8.056640625,-16.632080078125
17.5499999,8.377311706542969,-4.414907932281494,-0.9409212470054626,10.2996826171875,-3.082275390625,-20.6146240234375
17.5699999,8.40843677520752,-4.299986362457275,-1.0821791887283325,14.0228271484375,5.4168701171875,-13.18359375
17.589999900000002,8.453926086425781,-4.129997730255127,-1.3335703611373901,12.6495361328125,6.0272216796875,-8.4075927734375
17.609999900000002,8.492233276367188,-3.9887399673461914,-1.5059528350830078,8.6822509765625,11.2457275390625,-8.392333984375
17.6299999,8.508993148803711,-3.9025487899780273,-1.4939818382263184,5.0506591796875,17.88330078125,-8.4686279296875
17.6499999,8.523358345031738,-3.8977603912353516,-1.316810965538025,7.4920654296875,11.65771484375,-3.0517578125
17.6699999,8.547300338745117,-3.9025487899780273,-1.0319008827209473,18.9056396484375,4.547119140625,-2.105712890625
17.6899999,8.578424453735352,-3.88818359375,-0.8475474119186401,19.2718505859375,0.3662109375,-8.0108642578125
17.7099999,8.667010307312012,-3.9193081855773926,-0.7996633648872375,3.448486328125,3.936767578125,-6.1187744140625
17.7299999,8.75080680847168,-3.9001545906066895,-0.9265560507774353,1.4495849609375,6.744384765625,-2.716064453125
17.749999900000002,8.825027465820312,-3.864241600036621,-0.9744400978088379,9.1552734375,13.2293701171875,-2.1209716796875
17.769999900000002,8.856152534484863,-3.8522706031799316,-0.9959878921508789,20.2178955078125,9.857177734375,1.2054443359375
17.7899999,8.848969459533691,-3.864241600036621,-0.8571242094039917,13.2904052734375,6.072998046875,4.0130615234375
17.8099999,8.80587387084961,-3.9408559799194336,-0.6967126727104187,-1.0528564453125,4.180908203125,3.3416748046875
17.8299999,8.757989883422852,-4.089296340942383,-0.5315127968788147,-1.4801025390625,1.03759765625,2.74658203125
17.8499999,8.762778282165527,-4.309563159942627,-0.3878606855869293,13.85498046875,2.1514892578125,2.9449462890625
17.8699999,8.798690795898438,-4.410119533538818,-0.3447650372982025,15.1824951171875,-3.570556640625,-5.8135986328125
17.8899999,8.899248123168945,-4.412513732910156,-0.3974374830722809,6.4697265625,-8.6822509765625,-9.09423828125
17.909999900000003,9.01895809173584,-4.2975921630859375,-0.5123591423034668,6.16455078125,-3.631591796875,-2.838134765625
17.929999900000002,9.117119789123535,-4.134786128997803,-0.6033388376235962,8.5906982421875,-0.4119873046875,-3.1890869140625
17.9499999,9.196128845214844,-4.050989151000977,-0.6153098344802856,6.591796875,-6.3018798828125,-7.476806640625
17.9699999,9.244012832641602,-4.034229755401611,-0.6272808313369751,15.19775390625,-16.9830322265625,-10.9100341796875
17.9899999,9.260771751403809,-4.010287761688232,-0.6584054827690125,15.167236328125,-17.3797607421875,-17.15087890625
18.0099999,9.23682975769043,-3.8953661918640137,-0.811634361743927,7.0953369140625,-13.519287109375,-18.646240234375
18.0299999,9.157821655273438,-3.6727054119110107,-1.0271124839782715,5.3253173828125,-9.613037109375,-12.725830078125
18.0499999,9.05487060546875,-3.4548330307006836,-1.1444283723831177,4.4403076171875,-1.3885498046875,-1.800537109375
18.0699999,8.966285705566406,-3.337517261505127,-1.1755530834197998,14.923095703125,-0.030517578125,3.814697265625
18.089999900000002,8.932766914367676,-3.380612850189209,-1.115697979927063,17.1661376953125,-6.1492919921875,-0.9307861328125
18.109999900000002,8.959102630615234,-3.529053211212158,-1.070208191871643,4.4097900390625,-9.9334716796875,-7.8125
18.1299999,9.006986618041992,-3.6176388263702393,-1.0223240852355957,-8.514404296875,-3.7994384765625,-9.8114013671875
18.1499999,9.033323287963867,-3.620033025741577,-1.0630255937576294,-0.6103515625,0.6256103515625,-0.946044921875
18.1699999,9.033323287963867,-3.5936968326568604,-1.0199298858642578,18.12744140625,8.8348388671875,13.1072998046875
18.1899999,9.006986618041992,-3.624821424484253,-0.9744400978088379,22.7813720703125,11.2457275390625,14.739990234375
18.2099999,8.995016098022461,-3.847482204437256,-0.8571242094039917,7.049560546875,6.744384765625,8.148193359375
18.2299999,8.96389102935791,-4.094084739685059,-0.6416460275650024,-15.5487060546875,4.5928955078125,-3.753662109375
18.249999900000002,8.923190116882324,-4.2975921630859375,-0.3663128614425659,-5.55419921875,-0.4119873046875,-5.9967041015625
18.269999900000002,8.865729331970215,-4.3406877517700195,-0.08858546614646912,12.8173828125,-8.697509765625,-0.7476806640625
18.2899999,8.810662269592285,-4.211400985717773,0.031124621629714966,20.904541015625,-17.242431640625,-0.6256103515625
18.3099999,8.791508674621582,-4.01268196105957,-0.05985504388809204,17.059326171875,-17.4560546875,-3.631591796875
18.3299999,8.834604263305664,-3.818751811981201,-0.3902548849582672,12.115478515625,-14.6942138671875,-4.913330078125
18.3499999,8.904036521911621,-3.598485231399536,-0.8667010068893433,7.598876953125,-14.312744140625,-8.0108642578125
18.3699999,8.980650901794434,-3.3854012489318848,-1.3072341680526733,5.1116943359375,-6.0272216796875,-3.387451171875
18.3899999,9.050082206726074,-3.2537200450897217,-1.6208745241165161,10.833740234375,3.6163330078125,8.758544921875
18.409999900000003,9.107542991638184,-3.246537446975708,-1.7381904125213623,20.172119140625,5.9661865234375,13.3819580078125
18.429999900000002,9.148244857788086,-3.35667085647583,-1.6735470294952393,18.7530517578125,3.4637451171875,5.645751953125
18.4499999,9.20091724395752,-3.598485231399536,-1.5298948287963867,14.5721435546875,1.5869140625,4.45556640625
18.4699999,9.227252960205078,-3.821146011352539,-1.3431471586227417,2.4871826171875,3.8909912109375,4.241943359375
18.4899999,9.23443603515625,-4.000710964202881,-1.192312479019165,-1.190185546875,5.0811767578125,2.6397705078125
18.5099999,9.229647636413574,-4.156333923339844,-1.0534487962722778,-1.64794921875,3.0517578125,2.960205078125
18.5299999,9.208099365234375,-4.252102375030518,-0.9193734526634216,0.213623046875,3.96728515625,0.42724609375
18.5499999,9.184157371520996,-4.314351558685303,-0.8355764150619507,-3.1280517578125,1.434326171875,-2.7923583984375
18.5699999,9.165003776550293,-4.333505153656006,-0.8236053586006165,-4.5013427734375,-0.396728515625,-2.3651123046875
18.589999900000002,9.14345645904541,-4.307168960571289,-0.8595184087753296,-5.31005859375,4.4403076171875,-2.50244140625
18.609999900000002,9.133879661560059,-4.292803764343262,-0.9265560507774353,-12.176513671875,6.591796875,-2.86865234375
18.6299999,9.11233139038086,-4.261679172515869,-0.9792284965515137,-11.8255615234375,5.9051513671875,-6.0272216796875
18.6499999,9.095572471618652,-4.244919776916504,-0.9481038451194763,-12.359619140625,6.3629150390625,-8.270263671875
18.6699999,9.066842079162598,-4.180276393890381,-0.8786720037460327,-11.4288330078125,3.0670166015625,-9.6893310546875
18.6899999,9.042900085449219,-4.106055736541748,-0.8092401623725891,0.2899169921875,2.288818359375,-8.1634521484375
18.7099999,9.023746490478516,-4.027047157287598,-0.706289529800415,-2.899169921875,4.8828125,-7.5836181640625
18.7299999,9.014169692993164,-3.9671921730041504,-0.6823474764823914,-3.1585693359375,1.3427734375,-9.1705322265625
18.749999900000002,9.016563415527344,-3.9600095748901367,-0.667982280254364,0.640869140625,-0.8392333984375,-8.60595703125
18.769999900000002,9.01895809173584,-3.9432501792907715,-0.667982280254364,-0.1068115234375,2.685546875,-9.1094970703125
18.7899999,9.023746490478516,-3.9264907836914062,-0.7398083209991455,6.65283203125,1.953125,-8.4075927734375
18.8099999,9.016563415527344,-3.883395195007324,-0.7924807667732239,4.8370361328125,4.058837890625,-8.4686279296875
18.8299999,8.987833023071289,-3.821146011352539,-0.7876923680305481,-5.6610107421875,7.4462890625,-9.09423828125
18.8499999,8.956708908081055,-3.780444383621216,-0.7374141216278076,-4.5928955078125,2.74658203125,-8.8958740234375
18.8699999,8.923190116882324,-3.7205893993377686,-0.6536170840263367,-3.143310546875,-4.8980712890625,-12.0086669921875
18.8899999,8.916007041931152,-3.6583402156829834,-0.629675030708313,1.7242431640625,-6.04248046875,-11.6119384765625
18.909999900000003,8.920795440673828,-3.5386300086975098,-0.667982280254364,1.3427734375,0.3204345703125,-7.5531005859375
18.929999900000002,8.96389102935791,-3.466804027557373,-0.7924807667732239,6.5765380859375,2.838134765625,-0.9002685546875
18.9499999,9.006986618041992,-3.399766445159912,-0.9026140570640564,3.692626953125,0.4119873046875,-2.50244140625
18.9699999,9.050082206726074,-3.3734302520751953,-0.9840168952941895,-2.227783203125,-0.5340576171875,-7.75146484375
18.9899999,9.081207275390625,-3.3734302520751953,-1.036689281463623,0.6561279296875,1.2664794921875,-4.547119140625
19.0099999,9.07641887664795,-3.337517261505127,-1.0271124839782715,0.6561279296875,4.4097900390625,-1.0833740234375
19.0299999,9.064447402954102,-3.315969467163086,-0.9696516990661621,2.044677734375,3.997802734375,1.922607421875
19.0499999,9.057265281677246,-3.3518824577331543,-0.8810662031173706,5.7525634765625,1.434326171875,3.6163330078125
19.0699999,9.066842079162598,-3.4596214294433594,-0.7709329724311829,3.5400390625,0.8087158203125,1.3427734375
19.089999900000002,9.093177795410156,-3.603273630142212,-0.7134721279144287,-0.885009765625,-1.3885498046875,-1.678466796875
19.109999900000002,9.131484985351562,-3.7229835987091064,-0.706289529800415,1.9683837890625,-1.8768310546875,-2.4566650390625
19.1299999,9.162610054016113,-3.778050184249878,-0.7493851184844971,3.814697265625,-0.79345703125,-1.129150390625
19.1499999,9.196128845214844,-3.7828385829925537,-0.8212111592292786,3.509521484375,0.244140625,-0.701904296875
19.1699999,9.2033109664917,-3.7158010005950928,-0.8882488012313843,1.983642578125,0.396728515625,-3.8604736328125
19.1899999,9.196128845214844,-3.622427225112915,-0.9169792532920837,0.1220703125,0.3509521484375,-4.3792724609375
19.2099999,9.17697525024414,-3.533841609954834,-0.9289502501487732,4.5166015625,0.18310546875,-0.42724609375
19.2299999,9.160215377807617,-3.4835634231567383,-0.9217676520347595,1.007080078125,0.457763671875,1.495361328125
19.249999900000002,9.153033256530762,-3.488351821899414,-0.8954314589500427,-1.3275146484375,3.1585693359375,-0.244140625
19.269999900000002,9.157821655273438,-3.552995204925537,-0.8403648138046265,1.3580322265625,5.3863525390625,-2.227783203125
19.2899999,9.169792175292969,-3.6080620288848877,-0.7613561153411865,1.15966796875,2.74658203125,-3.2501220703125
19.3099999,9.153033256530762,-3.536235809326172,-0.646434485912323,0.5645751953125,1.2359619140625,-5.828857421875
19.3299999,9.136273384094238,-3.4093432426452637,-0.6057330369949341,9.0789794921875,2.0599365234375,-0.67138671875
19.3499999,9.105149269104004,-3.177105665206909,-0.569819986820221,2.4566650390625,5.096435546875,2.899169921875
19.3699999,9.047688484191895,-2.8419175148010254,-0.545877993106842,-2.0599365234375,9.552001953125,0.640869140625
19.3899999,8.971074104309082,-2.4468741416931152,-0.5003881454467773,-0.4425048828125,4.791259765625,5.340576171875
19.409999900000003,8.858546257019043,-1.9273324012756348,-0.36152446269989014,-2.0751953125,2.3651123046875,12.481689453125
19.429999900000002,8.712499618530273,-1.2641384601593018,-0.23942017555236816,-12.5732421875,-4.7760009765625,16.7999267578125
19.4499999,8.5903959274292,-0.49559974670410156,-0.19393034279346466,-18.61572265625,-12.6953125,27.4200439453125
19.4699999,8.525752067565918,0.33518823981285095,-0.3256114423274994,10.43701171875,-4.21142578125,35.82763671875
19.4899999,8.497021675109863,1.316810965538025,-0.44771572947502136,18.798828125,16.2506103515625,34.2254638671875
19.5099999,8.501810073852539,2.4851813316345215,-0.45489832758903503,-15.1519775390625,15.4571533203125,37.4298095703125
19.5299999,8.56645393371582,3.7636849880218506,-0.47644615173339844,-23.7579345703125,-16.143798828125,66.680908203125
19.5499999,8.865729331970215,4.587290287017822,-0.6655880808830261,32.257080078125,-7.965087890625,126.4801025390625
19.5699999,9.581595420837402,4.3861775398254395,-0.9959878921508789,14.1143798828125,31.1431884765625,146.759033203125
19.589999900000002,10.78348445892334,2.889801502227783,-1.5466543436050415,-1.7852783203125,43.701171875,103.6834716796875
19.609999900000002,12.12902545928955,0.7398083209991455,-1.6831238269805908,6.7901611328125,43.212890625,43.7469482421875
19.6299999,13.28063678741455,-1.3838485479354858,-1.3024457693099976,4.5928955078125,30.0445556640625,45.013427734375
19.6499999,13.979743957519531,-3.1052796840667725,-0.7829039692878723,-18.24951171875,-12.1307373046875,79.010009765625
19.6699999,14.192827224731445,-4.60165548324585,-0.42616790533065796,-88.8519287109375,-41.473388671875,67.0318603515625
19.6899999,13.735535621643066,-6.301538944244385,-1.0342950820922852,-114.4561767578125,-37.811279296875,5.7220458984375
19.7099999,12.349292755126953,-7.91283655166626,-2.0470423698425293,-129.5318603515625,11.04736328125,-37.933349609375
19.7299999,9.677363395690918,-8.832210540771484,-2.82515811920166,-172.515869140625,54.0618896484375,-24.9481201171875
19.749999900000002,5.7772088050842285,-9.030928611755371,-2.96162748336792,-247.13134765625,-52.3681640625,28.228759765625
19.769999900000002,1.2689268589019775,-8.274360656738281,-3.2130186557769775,-266.2506103515625,-189.5751953125,89.8284912109375
19.7899999,-2.3989901542663574,-8.597578048706055,-4.759673118591309,-119.384765625,-199.2950439453125,210.5255126953125
19.8099999,-4.065354347229004,-10.254365921020508,-7.615955829620361,-65.582275390625,-48.980712890625,271.05712890625
19.8299999,-3.2537200450897217,-13.680468559265137,-10.627861022949219,-81.0089111328125,115.081787109375,205.5816650390625
19.8499999,-0.15801730751991272,-19.19192123413086,-12.016498565673828,-108.428955078125,167.144775390625,151.519775390625
19.8699999,3.205836057662964,-23.020248413085938,-10.050858497619629,-112.518310546875,144.1650390625,-61.4166259765625
19.8899999,5.468356609344482,-23.0130672454834,-6.035782337188721,-122.772216796875,17.1051025390625,-290.1458740234375
19.909999900000003,5.870582580566406,-18.255788803100586,-2.693476915359497,92.864990234375,-128.0975341796875,-207.5042724609375
19.929999900000002,5.011064052581787,-10.644620895385742,-1.6974890232086182,246.0784912109375,-91.3238525390625,31.6619873046875
19.9499999,3.9240965843200684,-3.383007049560547,-2.38462495803833,113.311767578125,103.5003662109375,112.4420166015625
19.9699999,4.0749311447143555,-1.1109095811843872,-4.129997730255127,66.9708251953125,66.5435791015625,8.8348388671875
19.9899999,4.742913722991943,-3.6152446269989014,-2.853888511657715,28.4271240234375,-16.90673828125,-59.1888427734375
20.0099999,5.322310447692871,-6.009446144104004,-1.6687586307525635,56.1065673828125,-55.572509765625,-47.2869873046875
20.0299999,5.568912982940674,-6.916848659515381,-1.3527239561080933,70.8465576171875,-20.08056640625,-23.92578125
20.0499999,5.635950565338135,-6.842628479003906,-1.764526605606079,38.2537841796875,39.2608642578125,-0.1373291015625
20.0699999,5.600037574768066,-6.260837554931641,-2.2625205516815186,-6.8511962890625,43.15185546875,5.6915283203125
20.089999900000002,5.623979568481445,-5.813121795654297,-2.2601263523101807,-17.51708984375,0.1220703125,-2.899169921875
20.109999900000002,5.726930618286133,-5.592854976654053,-2.0590133666992188,-7.4005126953125,-34.881591796875,-12.664794921875
20.1299999,5.937620162963867,-5.583278179168701,-1.9273324012756348,-1.312255859375,-17.9595947265625,-12.02392578125
20.1499999,6.133944988250732,-5.590460777282715,-2.140416383743286,-10.43701171875,3.9825439453125,-9.0179443359375
20.1699999,6.260837554931641,-5.57370138168335,-2.367865562438965,-13.641357421875,6.103515625,-4.57763671875
20.1899999,6.287173748016357,-5.5329999923706055,-2.3702597618103027,-12.3291015625,-6.6070556640625,-3.7689208984375
20.2099999,6.289567947387695,-5.566518783569336,-2.212242364883423,-8.85009765625,-23.0560302734375,0.2593994140625
20.2299999,6.332663536071777,-5.60722017288208,-2.1954829692840576,-6.7596435546875,-31.9671630859375,-1.7852783203125
20.249999900000002,6.471527099609375,-5.772420406341553,-2.3965959548950195,-4.39453125,-20.81298828125,0.762939453125
20.269999900000002,6.6846113204956055,-5.920860767364502,-2.80361008644104,-15.6707763671875,-9.6893310546875,2.7008056640625
20.2899999,6.914454460144043,-6.1315507888793945,-3.1914708614349365,0.1068115234375,-3.3721923828125,5.0201416015625
20.3099999,7.117961883544922,-6.392518520355225,-3.308786630630493,11.8865966796875,1.64794921875,6.8817138671875
20.3299999,7.249642848968506,-6.646304130554199,-3.268085241317749,14.8162841796875,-7.4920654296875,1.2969970703125
20.3499999,7.326257228851318,-6.8809356689453125,-3.090914487838745,17.578125,-10.4217529296875,-1.0223388671875
20.3699999,7.350199222564697,-7.017405033111572,-2.964021682739258,21.7132568359375,-5.1422119140625,0.823974609375
20.3899999,7.33583402633667,-7.048529624938965,-2.935291290283203,27.8472900390625,-1.1444091796875,1.15966796875
20.409999900000003,7.292738437652588,-7.038952827453613,-2.9472622871398926,21.087646484375,2.5787353515625,1.3275146484375
20.429999900000002,7.230489253997803,-7.015010833740234,-2.9951462745666504,4.5318603515625,0.4730224609375,-0.1373291015625
20.4499999,7.139509677886963,-6.9695210456848145,-3.0166940689086914,-8.2244873046875,1.1444091796875,-2.197265625
20.4699999,7.026981830596924,-6.897695064544678,-2.956839084625244,-16.66259765625,4.2572021484375,-2.899169921875
20.4899999,6.916848659515381,-6.785167694091797,-2.8778305053710938,-20.111083984375,-0.79345703125,-2.899169921875
20.5099999,6.801927089691162,-6.605602264404297,-2.7988216876983643,-17.1051025390625,-6.28662109375,-3.11279296875
