# Time (seconds),Accel_X,Accel_Y,Accel_Z,Gyro_X,Gyro_Y,Gyro_Z
0.0099999,7.072471618652344,-1.5298948287963867,1.1755530834197998,-100.8453369140625,101.9439697265625,-63.1103515625
0.029999900000000003,7.582436561584473,-1.4772224426269531,1.1324573755264282,-81.1920166015625,61.920166015625,-84.8388671875
0.0499999,8.157045364379883,-1.5705963373184204,1.091755986213684,-115.3411865234375,26.9927978515625,-98.175048828125
0.0699999,8.640673637390137,-1.5825673341751099,1.41257905960083,-115.3411865234375,33.5540771484375,-102.5848388671875
0.08999990000000001,9.02135181427002,-1.5634137392044067,1.8100165128707886,-123.59619140625,32.5469970703125,-106.842041015625
0.10999990000000001,9.344569206237793,-1.3838485479354858,2.3702597618103027,-143.73779296875,19.6533203125,-107.60498046875
0.1299999,9.564835548400879,-1.0630255937576294,2.715024709701538,-168.9453125,56.396484375,-101.0589599609375
0.14999990000000002,9.782708168029785,-0.667982280254364,2.8586769104003906,-171.5850830078125,77.606201171875,-84.4573974609375
0.1699999,9.885659217834473,-0.26336219906806946,2.693476915359497,-110.9466552734375,63.751220703125,-48.9501953125
0.1899999,9.77791976928711,0.06464344263076782,2.408566951751709,-89.630126953125,29.6478271484375,-13.4429931640625
0.20999990000000002,9.430760383605957,0.3495534360408783,2.3032219409942627,-102.9815673828125,6.927490234375,3.47900390625
0.2299999,9.05247688293457,0.545877993106842,2.3918075561523438,-114.898681640625,14.5416259765625,7.598876953125
0.2499999,8.729259490966797,0.7374141216278076,2.585737943649292,-128.5552978515625,34.4390869140625,21.0418701171875
0.2699999,8.643068313598633,0.8188169598579407,2.7988216876983643,-136.04736328125,26.9927978515625,21.7437744140625
0.28999990000000003,8.791508674621582,0.9265560507774353,2.8419175148010254,-149.627685546875,26.6876220703125,8.7890625
0.3099999,8.942343711853027,0.7733271718025208,2.9281086921691895,-141.41845703125,37.353515625,-19.3328857421875
0.3299999,9.097966194152832,0.608127236366272,2.96162748336792,-133.36181640625,18.035888671875,-2.5177001953125
0.34999990000000003,9.160215377807617,0.21787235140800476,2.9448680877685547,-140.9912109375,11.8560791015625,7.9345703125
0.3699999,9.162610054016113,-0.11252748221158981,2.8419175148010254,-150.726318359375,43.731689453125,6.77490234375
0.3899999,9.093177795410156,-0.5291185975074768,2.676717519760132,-149.7344970703125,65.7958984375,-4.0130615234375
0.40999990000000003,8.80587387084961,-0.8020575642585754,1.9249382019042969,-143.585205078125,61.3555908203125,18.8751220703125
0.4299999,8.60236644744873,-0.9959878921508789,1.7908629179000854,-104.67529296875,-9.7808837890625,31.0211181640625
0.4499999,8.53293514251709,-1.3551181554794312,1.3623007535934448,-109.100341796875,16.1590576171875,-3.3111572265625
0.4699999,8.746018409729004,-1.4987702369689941,1.5275006294250488,-116.7144775390625,92.2393798828125,34.942626953125
0.4899999,9.41400146484375,-1.9297266006469727,2.1547815799713135,-98.1292724609375,82.733154296875,78.3233642578125
0.5099999,9.828198432922363,-2.2026655673980713,2.7437551021575928,-117.523193359375,125.152587890625,79.8187255859375
0.5299999,9.967061996459961,-2.5043349266052246,3.4572272300720215,-164.8406982421875,104.1107177734375,77.63671875
0.5499999,9.725247383117676,-2.8347349166870117,3.7277719974517822,-195.4345703125,57.6629638671875,87.09716796875
0.5699999,9.153033256530762,-3.1890766620635986,3.6535518169403076,-174.86572265625,54.962158203125,117.9962158203125
0.5899998999999999,8.480262756347656,-3.648763418197632,3.5242648124694824,-137.451171875,9.8724365234375,106.201171875
0.6099998999999999,7.975085735321045,-4.197035789489746,3.339911460876465,-162.8265380859375,-59.1278076171875,40.435791015625
0.6299999,7.63989782333374,-4.697423934936523,3.2752678394317627,-232.879638671875,-86.1968994140625,7.50732421875
0.6499999,7.548917770385742,-5.027823448181152,3.1651346683502197,-205.810546875,-66.009521484375,6.1798095703125
0.6699999,7.627926826477051,-5.154716491699219,2.583343744277954,-186.9964599609375,-49.3316650390625,-16.7083740234375
0.6899999,7.592013359069824,-5.219359874725342,1.659181833267212,-249.7711181640625,-82.09228515625,-54.3670654296875
0.7099999,7.65186882019043,-5.315127849578857,1.3120225667953491,-236.0687255859375,-84.9761962890625,-18.280029296875
0.7299998999999999,7.7763671875,-5.307945251464844,0.4668693244457245,48.431396484375,169.403076171875,27.83203125
0.7499998999999999,8.147468566894531,-5.537788391113281,0.2585737705230713,-82.82470703125,242.9351806640625,-30.8685302734375
0.7699999,8.518569946289062,-5.3797712326049805,-0.17717093229293823,-158.14208984375,113.067626953125,18.8446044921875
0.7899999,8.604761123657227,-5.2696380615234375,-0.5123591423034668,-98.9837646484375,78.67431640625,37.384033203125
0.8099999,8.38449478149414,-5.343858242034912,-0.6991068720817566,-76.8585205078125,108.4747314453125,29.7698974609375
0.8299999,7.996633529663086,-5.525817394256592,-0.3447650372982025,-30.2734375,101.898193359375,88.31787109375
0.8499998999999999,7.647080421447754,-5.882553577423096,0.0933738648891449,-41.900634765625,66.5283203125,108.09326171875
0.8699998999999999,7.513004779815674,-6.289567947387695,0.5506663918495178,-75.8056640625,45.1202392578125,46.3104248046875
0.8899999,7.443572998046875,-6.423643112182617,0.7565677165985107,-55.0537109375,78.79638671875,52.0782470703125
0.9099999,7.441178798675537,-6.50025749206543,0.7374141216278076,-70.7855224609375,100.128173828125,48.5076904296875
0.9299999,7.393294811248779,-6.502651691436768,0.5267243981361389,-94.818115234375,70.6024169921875,5.767822265625
0.9499999,7.247248649597168,-6.433219909667969,0.2561795711517334,-117.7215576171875,17.88330078125,-6.9732666015625
0.9699998999999999,7.024587631225586,-6.392518520355225,-0.06224924325942993,-119.5526123046875,-5.1422119140625,26.519775390625
0.9899998999999999,6.773196697235107,-6.461950302124023,-0.545877993106842,-133.9263916015625,-12.4664306640625,50.4150390625
1.0099999,6.584054470062256,-6.720524311065674,-1.173158884048462,-132.4462890625,15.2435302734375,36.1480712890625
1.0299999,6.406883716583252,-7.0988078117370605,-1.9033904075622559,-144.744873046875,55.2825927734375,3.84521484375
1.0499999,6.303933143615723,-7.51779317855835,-2.669534921646118,-178.4820556640625,59.9822998046875,2.8076171875
1.0699999,6.088454723358154,-7.740454196929932,-3.157952070236206,-198.7152099609375,71.197509765625,11.1541748046875
1.0899999,5.868188381195068,-7.706935405731201,-3.361459255218506,-202.94189453125,62.19482421875,13.519287109375
1.1099999,5.614402770996094,-7.532158374786377,-3.2393548488616943,-153.9154052734375,49.652099609375,21.0113525390625
1.1299999,5.442020416259766,-7.326257228851318,-3.0166940689086914,-116.39404296875,49.407958984375,27.9998779296875
1.1499999,5.453991413116455,-7.24485445022583,-3.050212860107422,-110.3363037109375,49.86572265625,28.1219482421875
1.1699998999999999,5.583278179168701,-7.182605266571045,-3.265691041946411,-95.0927734375,58.28857421875,20.751953125
1.1899998999999999,5.810727596282959,-7.105990409851074,-3.6583402156829834,-84.2437744140625,66.71142578125,42.205810546875
1.2099999,6.004657745361328,-7.003039836883545,-3.9193081855773926,-71.6400146484375,72.7996826171875,66.1163330078125
1.2299999,6.064512729644775,-6.943184852600098,-3.9647979736328125,-55.6793212890625,70.892333984375,72.5555419921875
1.2499999,6.033388137817383,-6.988674640655518,-4.000710964202881,-82.977294921875,53.0548095703125,70.6329345703125
1.2699999,5.999869346618652,-7.326257228851318,-4.304774761199951,-132.50732421875,43.2586669921875,58.7310791015625
1.2899999,5.95677375793457,-7.893682956695557,-5.027823448181152,-104.67529296875,62.1337890625,61.920166015625
1.3099999,5.849034786224365,-8.56884765625,-5.801150798797607,-56.0150146484375,119.0948486328125,90.02685546875
1.3299999,5.676652431488037,-9.433155059814453,-6.447585105895996,-45.9747314453125,121.9329833984375,102.691650390625
1.3499999,5.343858242034912,-10.271124839782715,-6.514622688293457,-70.9381103515625,92.7734375,80.6121826171875
1.3699999,4.944026470184326,-11.001357078552246,-6.110002517700195,-90.179443359375,73.6083984375,54.01611328125
1.3899999,4.60165548324585,-11.362881660461426,-5.65031623840332,-118.438720703125,61.1724853515625,30.6396484375
1.4099999,4.369418144226074,-11.291055679321289,-5.451597213745117,-145.8740234375,51.26953125,16.2506103515625
1.4299998999999999,4.228160381317139,-10.824186325073242,-5.468356609344482,-119.0643310546875,64.453125,38.543701171875
1.4499999,4.106055736541748,-10.053253173828125,-5.446808815002441,-83.251953125,83.6029052734375,65.826416015625
1.4699999,4.000710964202881,-9.255983352661133,-5.418078422546387,-73.54736328125,65.4754638671875,74.188232421875
1.4899999,3.928884983062744,-8.741230010986328,-5.449203014373779,-80.87158203125,43.9910888671875,59.2498779296875
1.5099999,3.8762125968933105,-8.324639320373535,-5.564124584197998,-106.4453125,70.00732421875,35.736083984375
1.5299999,3.9264907836914062,-8.070854187011719,-5.8873419761657715,-86.2274169921875,86.12060546875,47.5006103515625
1.5499999,3.974374771118164,-7.747636795043945,-6.030993938446045,-82.275390625,77.1026611328125,63.53759765625
1.5699999,3.9815573692321777,-7.249642848968506,-6.121973514556885,-120.0103759765625,37.1246337890625,58.53271484375
1.5899999,4.017470359802246,-6.600813865661621,-6.315904140472412,-172.8363037109375,8.7738037109375,58.990478515625
1.6099999,3.907337188720703,-6.081272125244141,-6.773196697235107,-170.7763671875,20.416259765625,81.4056396484375
1.6299999,3.823540210723877,-5.65031623840332,-7.513004779815674,-152.9388427734375,55.633544921875,89.29443359375
1.6499999,3.6559460163116455,-5.398924827575684,-8.365341186523438,-173.5076904296875,38.330078125,83.1146240234375
1.6699999,3.423708438873291,-5.219359874725342,-8.827422142028809,-164.276123046875,37.261962890625,96.74072265625
1.6899998999999999,3.1866824626922607,-5.1595048904418945,-8.949525833129883,-136.8865966796875,57.3272705078125,123.8250732421875
1.7099999,2.846705913543701,-5.145139217376709,-8.71489429473877,-131.8511962890625,45.2728271484375,124.57275390625
1.7299999,2.518700122833252,-5.398924827575684,-8.128314971923828,-97.0916748046875,32.8216552734375,140.9454345703125
1.7499999,2.1715409755706787,-5.913678169250488,-7.412448406219482,-48.553466796875,35.2020263671875,162.353515625
1.7699999,1.8938134908676147,-6.514622688293457,-6.761225700378418,-66.4215087890625,28.1524658203125,139.251708984375
1.7899999,1.659181833267212,-6.698976516723633,-6.313509941101074,-121.337890625,-2.6702880859375,109.588623046875
1.8099999,1.3551181554794312,-6.344634532928467,-6.3949127197265625,-163.787841796875,-24.71923828125,104.217529296875
1.8299999,1.0223240852355957,-5.861005783081055,-6.856993675231934,-122.528076171875,-15.228271484375,160.1409912109375
1.8499999,0.6560112833976746,-5.604825973510742,-7.575253963470459,-109.8480224609375,-3.47900390625,173.4771728515625
1.8699999,0.3687070608139038,-5.9088897705078125,-8.283937454223633,-125.762939453125,-4.8065185546875,127.13623046875
1.8899999,0.06703764945268631,-6.114790916442871,-8.844181060791016,-150.5126953125,-7.9498291015625,79.8492431640625
1.9099999,-0.29209262132644653,-6.066906929016113,-9.239224433898926,-176.483154296875,-22.552490234375,104.2327880859375
1.9299998999999999,-0.689530074596405,-5.87776517868042,-9.526528358459473,-95.3826904296875,-23.6053466796875,180.145263671875
1.9499999,-1.0438719987869263,-6.042964935302734,-9.761159896850586,-50.811767578125,-13.8702392578125,181.3812255859375
1.9699999,-1.1348515748977661,-6.873753070831299,-9.907206535339355,-117.0654296875,-13.916015625,122.13134765625
1.9899999,-1.0342950820922852,-7.910442352294922,-9.93354320526123,-185.1654052734375,10.5438232421875,60.7452392578125
2.0099999,-0.9457096457481384,-8.130708694458008,-10.010157585144043,-192.108154296875,25.8636474609375,19.2108154296875
2.0299999,-1.091755986213684,-7.489062786102295,-9.742006301879883,-152.5421142578125,12.9547119140625,39.7796630859375
2.0499999,-1.4197616577148438,-6.521805286407471,-9.509769439697266,-78.643798828125,-11.6729736328125,88.4246826171875
2.0699999,-1.6735470294952393,-5.846640586853027,-9.279925346374512,-94.940185546875,-31.8756103515625,84.9456787109375
2.0899999,-1.6160861253738403,-5.853823184967041,-9.349357604980469,-171.7987060546875,-29.7698974609375,42.3126220703125
2.1099999,-1.280897855758667,-6.086060523986816,-9.368511199951172,-196.22802734375,7.9193115234375,-2.5787353515625
2.1299999,-0.9241618514060974,-5.810727596282959,-9.287108421325684,-135.6353759765625,13.6871337890625,-6.256103515625
2.1499999,-0.6177040338516235,-4.831499099731445,-8.98543930053711,-133.4686279296875,-43.9453125,41.4581298828125
2.1699999,-0.5602431893348694,-3.3303346633911133,-8.647856712341309,-131.1798095703125,-45.7305908203125,62.744140625
2.1899999,-0.524330198764801,-1.867477297782898,-8.559270858764648,-56.6558837890625,22.4151611328125,47.515869140625
2.2099999,-0.4620809257030487,-0.7876923680305481,-8.755595207214355,-63.3087158203125,42.17529296875,41.6717529296875
2.2299999,-0.3902548849582672,0.07661445438861847,-9.095572471618652,-37.811279296875,48.8739013671875,23.6358642578125
2.2499999,-0.33997663855552673,0.40940847992897034,-9.57201862335205,6.103515625,39.5050048828125,7.6446533203125
2.2699999,-0.4884171485900879,0.9193734526634216,-10.002974510192871,11.0015869140625,26.2908935546875,-7.7362060546875
2.2899999,-0.5363011956214905,1.0654197931289673,-10.611102104187012,-13.4124755859375,1.0223388671875,26.580810546875
2.3099999,-0.395043283700943,0.8212111592292786,-11.192893028259277,-11.16943359375,12.481689453125,81.3751220703125
2.3299999,0,0.5123591423034668,-11.456254959106445,-68.939208984375,39.459228515625,25.0701904296875
2.3499999,0.6584054827690125,-0.021547814831137657,-11.238382339477539,-80.26123046875,42.8924560546875,-45.9442138671875
2.3699999,1.1827356815338135,-0.17717093229293823,-10.668562889099121,-21.5606689453125,11.6729736328125,-79.986572265625
2.3899999,1.4532804489135742,0.1412578970193863,-10.000580787658691,17.8070068359375,-14.8773193359375,-70.00732421875
2.4099999,1.3455413579940796,0.9361328482627869,-9.715670585632324,7.080078125,-7.38525390625,-57.2662353515625
2.4299999,1.0055646896362305,1.821987509727478,-9.84495735168457,-23.5748291015625,24.1241455078125,-55.0994873046875
2.4499999,0.5147533416748047,2.518700122833252,-10.103530883789062,-23.0865478515625,35.82763671875,-48.1414794921875
2.4699999,0.08140286058187485,2.738966703414917,-10.261548042297363,-0.6561279296875,2.5787353515625,-34.4390869140625
2.4899999,-0.10773907601833344,2.343923568725586,-9.852140426635742,35.0341796875,-10.25390625,-17.974853515625
2.5099999,0.014365210197865963,1.644816517829895,-9.227252960205078,38.1011962890625,1.4801025390625,-36.07177734375
2.5299999,0.38067805767059326,0.9241618514060974,-8.53293514251709,10.009765625,19.3328857421875,-77.7740478515625
2.5499999,0.7374141216278076,0.8044517636299133,-7.82185697555542,13.12255859375,60.3790283203125,-87.066650390625
2.5699999,1.1013327836990356,1.1252747774124146,-7.453149795532227,39.0472412109375,24.23095703125,-71.4263916015625
2.5899999,1.3024457693099976,1.5131354331970215,-7.304709434509277,83.1146240234375,-1.9073486328125,-34.0118408203125
2.6099999,1.381454348564148,1.7334020137786865,-7.287950038909912,64.3310546875,1.4495849609375,-41.8243408203125
2.6299999,1.3431471586227417,1.656787633895874,-7.400477409362793,42.572021484375,17.669677734375,-59.4482421875
2.6499999,1.113303780555725,1.3934253454208374,-7.615955829620361,36.102294921875,33.1878662109375,-36.834716796875
2.6699999,0.7613561153411865,1.161187767982483,-7.723694801330566,70.5108642578125,51.2542724609375,-21.7742919921875
2.6899999,0.49559974670410156,0.9289502501487732,-7.7643961906433105,115.203857421875,59.814453125,-42.2515869140625
2.7099999,0.3998316824436188,0.6200982332229614,-7.659051418304443,150.0701904296875,62.6220703125,-59.5245361328125
2.7299999,0.5099649429321289,0.3663128614425659,-7.630321025848389,101.7608642578125,50.29296875,-57.1746826171875
2.7499999,0.689530074596405,0.06703764945268631,-7.807491779327393,28.4271240234375,16.9219970703125,-50.5523681640625
2.7699999,0.8930372595787048,-0.2298433631658554,-8.22887134552002,45.4864501953125,2.86865234375,-75.37841796875
2.7899999,1.1899182796478271,-0.2801215946674347,-8.631096839904785,70.9228515625,12.2222900390625,-117.2943115234375
2.8099999,1.4628572463989258,-0.31124621629714966,-8.93037223815918,42.05322265625,-19.8974609375,-81.0394287109375
2.8299999,1.7980455160140991,-0.026336219161748886,-8.992621421813965,33.7982177734375,-46.661376953125,-35.9039306640625
2.8499999,2.030282974243164,0.3495534360408783,-9.014169692993164,37.0330810546875,-15.350341796875,-46.783447265625
2.8699999,1.9943699836730957,0.4189853072166443,-8.801085472106934,54.3670654296875,17.7459716796875,-44.952392578125
2.8899999,1.7597382068634033,0.3208230137825012,-8.42040729522705,15.6707763671875,8.3770751953125,-51.2847900390625
2.9099999,1.4173674583435059,-0.014365210197865963,-8.164227485656738,-80.718994140625,-57.830810546875,-52.5360107421875
2.9299999,1.072602391242981,-0.38546648621559143,-7.876923561096191,-56.21337890625,-48.7213134765625,-83.038330078125
2.9499999,0.7350199222564697,-0.7541735172271729,-7.905653953552246,-20.782470703125,-10.6658935546875,-122.406005859375
2.9699999,0.5099649429321289,-0.8858546018600464,-8.14028549194336,-93.75,-56.45751953125,-151.7181396484375
2.9899999,0.23942017555236816,-0.7589619159698486,-8.461109161376953,-166.9464111328125,-83.282470703125,-189.2242431640625
3.0099999,-0.028730420395731926,-0.44771572947502136,-8.796297073364258,-126.03759765625,-35.3546142578125,-184.6466064453125
3.0299999,-0.2825157940387726,-0.06224924325942993,-9.078812599182129,-22.5830078125,12.2222900390625,-155.8380126953125
3.0499999,-0.5626373887062073,0.2346317619085312,-9.23443603515625,-8.1634521484375,17.5018310546875,-142.5628662109375
3.0699999,-0.8786720037460327,0.5027823448181152,-9.23443603515625,-9.2926025390625,-4.7454833984375,-140.4571533203125
3.0899999,-1.0749965906143188,0.7086837291717529,-9.121908187866211,-18.0206298828125,-18.24951171875,-145.5230712890625
3.1099999,-1.2737152576446533,0.7733271718025208,-9.002198219299316,-12.9241943359375,-36.6668701171875,-149.0631103515625
3.1299999,-1.434126853942871,0.8355764150619507,-8.939949035644531,-46.112060546875,-54.7943115234375,-143.8140869140625
3.1499999,-1.7190368175506592,1.070208191871643,-9.028534889221191,-78.5064697265625,-78.3233642578125,-156.036376953125
3.1699999,-2.0254945755004883,1.314416766166687,-9.275136947631836,-61.187744140625,-51.1016845703125,-132.080078125
3.1899999,-2.698265314102173,1.5969325304031372,-9.567230224609375,-35.064697265625,3.8299560546875,-102.3712158203125
3.2099999,-3.3494882583618164,1.5203180313110352,-10.153809547424316,15.68603515625,4.0435791015625,-162.7960205078125
3.2299999,-4.065354347229004,1.4867992401123047,-10.498574256896973,53.89404296875,11.4593505859375,-265.8538818359375
3.2499999,-4.668693542480469,1.556231141090393,-10.764330863952637,43.1365966796875,63.6138916015625,-261.7950439453125
3.2699999,-4.9368438720703125,2.0805611610412598,-10.843339920043945,52.947998046875,63.5833740234375,-184.0362548828125
3.2899999,-4.845864295959473,2.7676970958709717,-10.821791648864746,66.0858154296875,8.8653564453125,-108.3526611328125
3.3099999,-4.484339714050293,3.023876667022705,-10.754754066467285,63.1103515625,10.345458984375,-54.7637939453125
3.3299999000000002,-4.027047157287598,2.4684219360351562,-10.8720703125,35.1409912109375,25.7110595703125,-11.29150390625
3.3499999,-3.711012601852417,1.0007762908935547,-11.276689529418945,15.0146484375,15.1214599609375,-24.6124267578125
3.3699999,-3.2848446369171143,-0.2561795711517334,-11.695674896240234,42.41943359375,3.1585693359375,-119.7357177734375
3.3899999,-3.0334534645080566,-1.580173134803772,-11.947066307067871,58.3953857421875,39.3524169921875,-116.729736328125
3.4099999,-2.6360161304473877,-1.8267759084701538,-11.889605522155762,31.097412109375,40.2984619140625,-98.236083984375
3.4299999,-2.3942017555236816,-1.4221558570861816,-11.30063247680664,-6.1492919921875,20.5535888671875,-93.93310546875
3.4499999,-2.2577321529388428,-0.6129156351089478,-10.654197692871094,-13.641357421875,11.5509033203125,-90.27099609375
3.4699999,-2.276885747909546,0.2082955539226532,-9.916783332824707,15.1824951171875,34.149169921875,-68.145751953125
3.4899999,-2.2577321529388428,0.706289529800415,-9.579200744628906,5.8135986328125,51.910400390625,-60.577392578125
3.5099999,-2.183511972427368,0.8068459630012512,-9.366117477416992,-48.0194091796875,54.0313720703125,-69.1375732421875
3.5299999,-2.121262788772583,0.6392518281936646,-9.332598686218262,-54.0771484375,57.4493408203125,-63.04931640625
3.5499999,-2.123656988143921,0.35913026332855225,-9.30386734008789,-9.429931640625,45.166015625,-32.0281982421875
3.5699999,-2.1045033931732178,0.21308395266532898,-9.402029991149902,11.9781494140625,25.421142578125,-15.716552734375
3.5899999,-2.1140801906585693,0.18914192914962769,-9.591172218322754,-26.5960693359375,2.3956298828125,-20.6146240234375
3.6099999,-1.9321208000183105,0.16998831927776337,-9.8784761428833,-68.42041015625,1.9989013671875,-33.5235595703125
3.6299999,-1.6615760326385498,0.1412578970193863,-10.192116737365723,-50.506591796875,9.246826171875,-40.8935546875
3.6499999,-1.3670891523361206,0.11252748221158981,-10.369287490844727,-7.3089599609375,20.3857421875,-39.764404296875
3.6699999,-1.1037269830703735,0.040701430290937424,-10.42195987701416,27.099609375,35.6903076171875,-35.980224609375
3.6899999,-0.9050082564353943,-0.014365210197865963,-10.359710693359375,38.26904296875,40.069580078125,-33.355712890625
3.7099999,-0.751779317855835,-0.014365210197865963,-10.402806282043457,15.8233642578125,35.15625,-41.8243408203125
3.7299999,-0.6536170840263367,0.07900865375995636,-10.448296546936035,-4.5318603515625,41.3970947265625,-46.600341796875
3.7499999,-0.5937620401382446,0.21547815203666687,-10.498574256896973,-14.892578125,49.01123046875,-46.5240478515625
3.7699999,-0.5530605912208557,0.4668693244457245,-10.453084945678711,-25.6500244140625,47.515869140625,-51.0711669921875
3.7899999,-0.4381389021873474,0.6799532771110535,-10.177751541137695,-9.4757080078125,47.882080078125,-44.830322265625
3.8099999,-0.26336219906806946,0.871489405632019,-9.77791976928711,1.220703125,38.57421875,-46.3714599609375
3.8299999000000002,-0.014365210197865963,1.0414776802062988,-9.296685218811035,-14.6484375,26.8096923828125,-53.6651611328125
3.8499999,0.21547815203666687,1.290474772453308,-8.968679428100586,-22.4609375,21.209716796875,-48.9959716796875
3.8699999,0.23702596127986908,1.5969325304031372,-8.746018409729004,20.9808349609375,46.0968017578125,-24.749755859375
3.8899999,0.1604115068912506,1.941697597503662,-8.614337921142578,40.2374267578125,60.8673095703125,-1.190185546875
3.9099999,0.011971008032560349,1.9560627937316895,-8.528146743774414,18.646240234375,38.848876953125,-1.8310546875
3.9299999,-0.06703764945268631,1.6855180263519287,-8.33182144165039,0.1220703125,8.6669921875,-14.1143798828125
3.9499999,0.07900865375995636,1.1348515748977661,-8.178592681884766,-15.2130126953125,-30.7769775390625,-30.3955078125
3.9699999,0.38546648621559143,0.6248866319656372,-8.2312650680542,15.045166015625,-39.2303466796875,-31.2957763671875
3.9899999,0.7733271718025208,0.5171475410461426,-8.662221908569336,47.3175048828125,-17.5933837890625,-27.099609375
4.0099999,1.0821791887283325,0.7469909191131592,-9.21288776397705,32.8521728515625,3.1890869140625,-27.7099609375
4.029999900000001,1.2832920551300049,1.1204863786697388,-9.785101890563965,5.035400390625,-3.5552978515625,-30.0140380859375
4.0499999,1.237802267074585,1.4532804489135742,-9.880870819091797,0.5340576171875,-13.3209228515625,-37.9638671875
4.069999900000001,1.192312479019165,1.5753847360610962,-9.68933391571045,9.0789794921875,-38.8946533203125,-32.16552734375
4.0899999000000005,1.139639973640442,1.5969325304031372,-9.224859237670898,8.1939697265625,-50.6591796875,-34.2559814453125
4.1099999,1.2713210582733154,1.5538369417190552,-8.908824920654297,-15.411376953125,-51.2542724609375,-55.145263671875
4.1299999000000005,1.479616641998291,1.6352397203445435,-8.932766914367676,-19.1650390625,-50.537109375,-50.6744384765625
4.1499999,1.6543933153152466,1.9632453918457031,-9.260771751403809,-24.0631103515625,-30.7159423828125,-40.7562255859375
4.1699999000000005,1.7597382068634033,2.315192937850952,-9.744400978088379,-10.1776123046875,-24.169921875,-12.3291015625
4.1899999,1.8387469053268433,2.5665841102600098,-10.228029251098633,13.0615234375,-30.57861328125,8.8958740234375
4.209999900000001,1.944091796875,2.4612393379211426,-10.44350814819336,17.364501953125,-17.3492431640625,0.3662109375
4.2299999,2.030282974243164,2.0829553604125977,-10.383652687072754,8.0718994140625,-1.373291015625,-26.0009765625
4.249999900000001,2.0590133666992188,1.5682021379470825,-10.091560363769531,0.518798828125,-1.922607421875,-27.83203125
4.2699999,1.8770540952682495,1.1994950771331787,-9.63187313079834,9.7503662109375,-4.0130615234375,-18.49365234375
4.289999900000001,1.5466543436050415,0.9959878921508789,-9.17936897277832,25.7568359375,-2.4871826171875,-9.765625
4.3099999,1.1540051698684692,0.8451532125473022,-8.875306129455566,29.1290283203125,8.1329345703125,-7.62939453125
4.329999900000001,0.7493851184844971,0.9313444495201111,-8.765172004699707,6.7901611328125,8.4228515625,-11.7034912109375
4.3499999,0.4118026793003082,1.0582371950149536,-8.662221908569336,-16.8914794921875,10.6048583984375,-8.9569091796875
4.369999900000001,0.12210428714752197,1.0821791887283325,-8.698134422302246,11.41357421875,12.2222900390625,-7.62939453125
4.3899999,-0.0454898327589035,0.9840168952941895,-8.808267593383789,24.322509765625,-9.002685546875,-19.7906494140625
4.409999900000001,-0.26096799969673157,0.7996633648872375,-9.071630477905273,6.439208984375,-31.158447265625,-29.60205078125
4.4299999,-0.43335050344467163,0.5171475410461426,-9.569623947143555,13.0157470703125,-28.4271240234375,-20.8282470703125
4.449999900000001,-0.6775590777397156,0.5363011956214905,-10.168174743652344,14.892578125,-19.744873046875,-17.5933837890625
4.4699999,-0.8882488012313843,0.586579442024231,-10.647014617919922,18.4478759765625,-8.636474609375,-13.48876953125
4.489999900000001,-1.048660397529602,0.6607996821403503,-10.833763122558594,28.076171875,10.8795166015625,-5.401611328125
4.5099999,-1.1468225717544556,0.5722141861915588,-10.884040832519531,52.825927734375,5.157470703125,-4.425048828125
4.529999900000001,-1.2282254695892334,0.5386953949928284,-10.733205795288086,58.990478515625,-5.157470703125,-4.486083984375
4.5499999,-1.2210428714752197,0.45489832758903503,-10.572794914245605,46.3409423828125,-7.7972412109375,2.8839111328125
4.569999900000001,-1.0031704902648926,0.2825157940387726,-10.63743782043457,59.0667724609375,-22.430419921875,16.6015625
4.5899999000000005,-0.7110779285430908,0.06224924325942993,-10.714052200317383,64.422607421875,-12.359619140625,11.260986328125
4.609999900000001,-0.2777273952960968,-0.3902548849582672,-10.8720703125,69.793701171875,2.471923828125,14.1143798828125
4.6299999000000005,0.004788403399288654,-0.9385270476341248,-10.862493515014648,70.0836181640625,7.7972412109375,17.333984375
4.6499999,0.12689268589019775,-1.5729905366897583,-10.591948509216309,60.211181640625,7.843017578125,10.5438232421875
4.6699999000000005,0.1173158809542656,-2.1308395862579346,-10.139444351196289,52.06298828125,-14.556884765625,1.861572265625
4.6899999,0.0933738648891449,-2.5522189140319824,-9.72285270690918,58.5479736328125,-30.8837890625,-3.143310546875
4.709999900000001,0.11013327538967133,-2.734178304672241,-9.476250648498535,50.384521484375,-14.495849609375,-8.5601806640625
4.7299999,0.17717093229293823,-2.738966703414917,-9.495404243469238,26.06201171875,3.448486328125,-14.129638671875
4.749999900000001,0.2106897532939911,-2.6886885166168213,-9.612719535827637,15.106201171875,15.777587890625,-19.22607421875
4.7699999,0.21547815203666687,-2.786850690841675,-9.672574996948242,11.7645263671875,10.4522705078125,-24.5361328125
4.789999900000001,0.2298433631658554,-2.9879636764526367,-9.710882186889648,25.6500244140625,5.06591796875,-23.9105224609375
4.8099999,0.24420857429504395,-3.2561142444610596,-9.713275909423828,42.0379638671875,17.9595947265625,-19.53125
4.829999900000001,0.33758243918418884,-3.4165258407592773,-9.797073364257812,16.876220703125,20.8587646484375,-20.8740234375
4.8499999,0.44771572947502136,-3.488351821899414,-9.8784761428833,-17.0135498046875,20.7977294921875,-23.4527587890625
4.869999900000001,0.5195417404174805,-3.4356794357299805,-9.859322547912598,-10.8795166015625,28.99169921875,-19.5770263671875
4.8899999,0.5482721924781799,-3.3710360527038574,-9.677363395690918,1.3885498046875,34.3780517578125,-11.4898681640625
4.909999900000001,0.5410895943641663,-3.3877954483032227,-9.488221168518066,6.8817138671875,31.402587890625,-10.8184814453125
4.9299999,0.545877993106842,-3.5003228187561035,-9.296685218811035,20.538330078125,21.392822265625,1.40380859375
4.949999900000001,0.5793967843055725,-3.751713991165161,-9.217676162719727,24.5819091796875,10.101318359375,7.6751708984375
4.9699999,0.6033388376235962,-4.0078935623168945,-9.222464561462402,-9.0484619140625,-2.8076171875,-16.3421630859375
4.989999900000001,0.5937620401382446,-4.082113742828369,-9.287108421325684,-13.5498046875,-19.561767578125,-20.751953125
5.0099999,0.5267243981361389,-3.955221176147461,-9.466673851013184,-1.800537109375,-18.06640625,-16.571044921875
5.029999900000001,0.47405192255973816,-3.6750996112823486,-9.725247383117676,8.3465576171875,5.9356689453125,-3.5552978515625
5.0499999,0.38307225704193115,-3.3207578659057617,-9.964667320251465,29.052734375,24.078369140625,2.197265625
5.069999900000001,0.3256114423274994,-3.0597896575927734,-10.02452278137207,36.376953125,23.6663818359375,0.1373291015625
5.0899999000000005,0.2992752194404602,-3.004723072052002,-9.854534149169922,34.4390869140625,9.09423828125,0.9002685546875
5.109999900000001,0.33997663855552673,-3.160346269607544,-9.531316757202148,30.3955078125,0.0457763671875,-1.556396484375
5.1299999000000005,0.4836287498474121,-3.531447410583496,-9.188945770263672,17.9595947265625,4.7607421875,-10.7269287109375
5.1499999,0.7254431247711182,-3.995922565460205,-8.918401718139648,10.345458984375,15.1519775390625,-17.0440673828125
5.1699999000000005,0.8547300100326538,-4.223371982574463,-8.62391471862793,-1.0528564453125,24.8870849609375,-24.3072509765625
5.1899999,0.9720458984375,-4.285621166229248,-8.506598472595215,-23.13232421875,17.791748046875,-20.751953125
5.209999900000001,0.9576807022094727,-4.141968727111816,-8.403648376464844,-22.94921875,20.9503173828125,-7.3089599609375
5.2299999,0.8643068075180054,-3.9624037742614746,-8.312667846679688,-0.640869140625,38.5589599609375,-1.40380859375
5.249999900000001,0.8212111592292786,-3.9169139862060547,-8.283937454223633,12.2528076171875,27.52685546875,8.941650390625
5.2699999,0.7350199222564697,-3.892971992492676,-8.106766700744629,4.0740966796875,13.916015625,8.1024169921875
5.289999900000001,0.7422025203704834,-3.8355112075805664,-8.051700592041016,-15.3961181640625,1.9683837890625,-1.556396484375
5.3099999,0.7661445140838623,-3.581725835800171,-8.176198959350586,-25.0396728515625,-3.6773681640625,-2.50244140625
5.329999900000001,0.7852981686592102,-3.160346269607544,-8.47547435760498,-14.3280029296875,8.85009765625,4.730224609375
5.3499999,0.790086567401886,-2.7006595134735107,-8.829815864562988,-5.2947998046875,14.9383544921875,19.073486328125
5.369999900000001,0.8068459630012512,-2.3558945655822754,-9.033323287963867,2.5177001953125,14.2364501953125,29.052734375
5.3899999,0.9265560507774353,-2.190694570541382,-9.124302864074707,5.55419921875,7.659912109375,31.1279296875
5.409999900000001,1.1013327836990356,-2.188300371170044,-9.205705642700195,2.4261474609375,8.331298828125,27.9541015625
5.4299999,1.0989385843276978,-2.2242133617401123,-9.169792175292969,-8.0413818359375,21.78955078125,16.754150390625
5.449999900000001,0.9840168952941895,-2.3558945655822754,-9.047688484191895,-24.505615234375,5.18798828125,16.5252685546875
5.4699999,0.7757213711738586,-2.5977089405059814,-8.78193187713623,-18.463134765625,-25.7110595703125,28.4576416015625
5.489999900000001,0.6512228846549988,-2.918531894683838,-8.556877136230469,0.1373291015625,-33.2489013671875,20.1263427734375
5.5099999,0.768538773059845,-3.179499864578247,-8.667010307312012,2.3956298828125,-29.6478271484375,5.7525634765625
5.529999900000001,0.9720458984375,-3.2082302570343018,-9.0859956741333,-3.72314453125,-15.4266357421875,0.1220703125
5.5499999,1.1492167711257935,-2.9735984802246094,-9.641449928283691,-14.2059326171875,-11.0931396484375,-1.4495849609375
5.569999900000001,1.1827356815338135,-2.5737667083740234,-9.99100399017334,-15.411376953125,-12.969970703125,-2.5482177734375
5.5899999000000005,1.1228805780410767,-2.209848165512085,-9.971850395202637,3.6163330078125,-11.6424560546875,2.3193359375
5.609999900000001,1.0749965906143188,-2.0039467811584473,-9.761159896850586,17.51708984375,-20.233154296875,10.7269287109375
5.6299999000000005,1.1444283723831177,-1.9297266006469727,-9.564835548400879,15.7318115234375,-26.641845703125,9.0179443359375
5.6499999,1.3479355573654175,-1.9608511924743652,-9.478644371032715,4.8370361328125,-24.3377685546875,2.44140625
5.6699999000000005,1.6711528301239014,-1.9584569931030273,-9.615114212036133,-8.514404296875,-22.918701171875,-5.859375
5.6899999,1.886630892753601,-1.8100165128707886,-9.797073364257812,-10.6201171875,-14.0533447265625,-12.3443603515625
5.709999900000001,1.922544002532959,-1.6089035272598267,-9.959878921508789,-3.5858154296875,-6.439208984375,-6.34765625
5.7299999,1.7142484188079834,-1.4197616577148438,-10.050858497619629,-3.5552978515625,-6.2103271484375,1.0986328125
5.749999900000001,1.3766659498214722,-1.4053963422775269,-10.053253173828125,-5.7525634765625,-5.340576171875,2.5634765625
5.7699999,1.0654197931289673,-1.5729905366897583,-10.034099578857422,-5.92041015625,-8.3465576171875,2.4261474609375
5.789999900000001,0.8667010068893433,-1.8746598958969116,-9.979032516479492,3.41796875,-6.16455078125,2.4871826171875
5.8099999,0.7948749661445618,-2.1811177730560303,-9.916783332824707,10.2386474609375,-2.410888671875,1.7242431640625
5.829999900000001,0.8427590131759644,-2.3989901542663574,-9.873687744140625,8.0718994140625,-2.716064453125,0.2899169921875
5.8499999,0.9241618514060974,-2.5115175247192383,-9.782708168029785,1.9683837890625,-3.753662109375,-2.166748046875
5.869999900000001,1.048660397529602,-2.5306711196899414,-9.708487510681152,-2.9754638671875,-5.37109375,-4.57763671875
5.8899999,1.1779472827911377,-2.3989901542663574,-9.710882186889648,-4.8065185546875,-6.0882568359375,-3.4332275390625
5.909999900000001,1.3311761617660522,-2.1978771686553955,-9.727641105651855,-7.293701171875,-0.1068115234375,2.349853515625
5.9299999,1.4508862495422363,-1.9560627937316895,-9.696516990661621,-5.67626953125,6.16455078125,4.5013427734375
5.949999900000001,1.5107412338256836,-1.6927006244659424,-9.605537414550781,-6.2408447265625,2.6092529296875,2.0294189453125
5.9699999,1.4676456451416016,-1.4939818382263184,-9.437943458557129,-8.636474609375,-3.1280517578125,2.6092529296875
5.989999900000001,1.2856862545013428,-1.2832920551300049,-9.313444137573242,-2.9296875,0.335693359375,10.772705078125
6.0099999,1.01753568649292,-1.1563993692398071,-9.222464561462402,4.7760009765625,7.14111328125,27.252197265625
6.029999900000001,0.7374141216278076,-1.2042834758758545,-9.093177795410156,8.2550048828125,7.14111328125,38.26904296875
6.0499999,0.5291185975074768,-1.3982137441635132,-8.89445972442627,2.8533935546875,-6.4544677734375,34.9578857421875
6.069999900000001,0.4381389021873474,-1.742978811264038,-8.652645111083984,-4.547119140625,-16.6168212890625,24.993896484375
6.0899999000000005,0.44532153010368347,-2.0422539710998535,-8.528146743774414,-3.448486328125,-16.7083740234375,20.7977294921875
6.109999900000001,0.5027823448181152,-2.209848165512085,-8.578424453735352,-0.18310546875,-10.7421875,21.728515625
6.1299999000000005,0.5339069962501526,-2.2697031497955322,-8.741230010986328,-3.5552978515625,-5.31005859375,19.4549560546875
6.149999900000001,0.5219359993934631,-2.274491548538208,-8.947132110595703,-5.3863525390625,-7.6141357421875,15.838623046875
6.1699999000000005,0.4381389021873474,-2.2816741466522217,-9.119514465332031,10.1470947265625,-6.9580078125,18.9056396484375
6.1899999,0.3711012601852417,-2.3558945655822754,-9.306262016296387,21.392822265625,-4.3487548828125,27.496337890625
6.209999900000001,0.3734954595565796,-2.537853717803955,-9.478644371032715,15.777587890625,-0.579833984375,27.0843505859375
6.2299999,0.47644615173339844,-2.7676970958709717,-9.607931137084961,14.5416259765625,6.6986083984375,17.8985595703125
6.249999900000001,0.6967126727104187,-3.1004912853240967,-9.68694019317627,24.0020751953125,11.505126953125,14.9078369140625
6.2699999,0.8786720037460327,-3.375824451446533,-9.617507934570312,37.445068359375,21.1944580078125,12.4359130859375
6.289999900000001,0.9816226959228516,-3.56017804145813,-9.548076629638672,38.330078125,22.918701171875,11.138916015625
6.3099999,0.9696516990661621,-3.603273630142212,-9.581595420837402,29.541015625,18.1884765625,15.2587890625
6.329999900000001,0.8571242094039917,-3.6320040225982666,-9.615114212036133,43.2891845703125,29.0679931640625,26.214599609375
6.3499999,0.7086837291717529,-3.7253777980804443,-9.619902610778809,64.117431640625,37.41455078125,32.5927734375
6.369999900000001,0.5913678407669067,-3.993528366088867,-9.485827445983887,61.614990234375,29.6783447265625,28.045654296875
6.3899999,0.5530605912208557,-4.326322555541992,-9.246406555175781,51.3916015625,18.7835693359375,25.20751953125
6.409999900000001,0.5746083855628967,-4.6040496826171875,-8.868123054504395,60.089111328125,23.5595703125,31.73828125
6.4299999,0.6105214357376099,-4.786009311676025,-8.501810073852539,57.6934814453125,26.214599609375,33.3099365234375
6.449999900000001,0.5650315880775452,-4.809951305389404,-8.24084186553955,31.4178466796875,14.5263671875,24.932861328125
6.4699999,0.42377370595932007,-4.8051629066467285,-8.051700592041016,13.2598876953125,7.781982421875,27.9693603515625
6.489999900000001,0.21787235140800476,-4.896142482757568,-7.936778545379639,32.9437255859375,15.716552734375,43.0145263671875
6.5099999,0.038307227194309235,-5.102043628692627,-7.939172744750977,50.5828857421875,13.7786865234375,47.9888916015625
6.529999900000001,-0.05746084079146385,-5.382165431976318,-7.893682956695557,39.1387939453125,1.2969970703125,37.109375
6.5499999,-0.1149216815829277,-5.57370138168335,-7.7883381843566895,14.8468017578125,-7.38525390625,22.674560546875
6.569999900000001,-0.09576806426048279,-5.4659624099731445,-7.879317760467529,-6.011962890625,-19.95849609375,19.927978515625
6.5899999000000005,-0.090979665517807,-5.07570743560791,-7.948749542236328,-5.6915283203125,-14.678955078125,32.623291015625
6.609999900000001,-0.1173158809542656,-4.596867084503174,-7.9631147384643555,12.0391845703125,1.28173828125,40.6494140625
6.6299999000000005,-0.2106897532939911,-4.2090067863464355,-7.893682956695557,7.2174072265625,-11.4288330078125,40.1458740234375
6.649999900000001,-0.35673606395721436,-4.048594951629639,-7.812280178070068,-12.908935546875,-34.027099609375,41.07666015625
6.6699999000000005,-0.5889736413955688,-4.091690540313721,-7.709329605102539,-16.845703125,-30.2886962890625,49.4384765625
6.6899999,-0.768538773059845,-4.4508209228515625,-7.7763671875,2.8076171875,-20.233154296875,58.502197265625
6.709999900000001,-0.9050082564353943,-4.946420669555664,-7.975085735321045,-6.683349609375,-30.5328369140625,46.38671875
6.7299999,-0.9193734526634216,-5.456385612487793,-8.243236541748047,-45.928955078125,-46.2799072265625,28.564453125
6.749999900000001,-0.8475474119186401,-5.738901615142822,-8.485051155090332,-54.595947265625,-38.9862060546875,22.125244140625
6.7699999,-0.7589619159698486,-5.578489780426025,-8.662221908569336,-32.135009765625,-24.3377685546875,20.7366943359375
6.789999900000001,-0.7829039692878723,-5.07570743560791,-8.650250434875488,-19.012451171875,-22.125244140625,20.93505859375
6.8099999,-0.9361328482627869,-4.4532151222229,-8.62391471862793,-20.1263427734375,-27.0233154296875,20.9808349609375
6.829999900000001,-1.2449848651885986,-3.928884983062744,-8.604761123657227,-25.146484375,-24.0631103515625,24.3988037109375
6.8499999,-1.623268723487854,-3.603273630142212,-8.681375503540039,-19.1650390625,-13.4124755859375,24.23095703125
6.869999900000001,-1.9728221893310547,-3.466804027557373,-8.858546257019043,-20.5078125,-18.9971923828125,21.6827392578125
6.8899999,-2.252943754196167,-3.5170822143554688,-8.966285705566406,-20.050048828125,-20.751953125,20.751953125
6.909999900000001,-2.4468741416931152,-3.584120035171509,-9.093177795410156,-9.4451904296875,-14.129638671875,19.3328857421875
6.9299999,-2.5450363159179688,-3.5936968326568604,-9.279925346374512,-4.5623779296875,-8.2855224609375,19.378662109375
6.949999900000001,-2.6384103298187256,-3.5194764137268066,-9.311050415039062,-6.0882568359375,3.8909912109375,23.1781005859375
6.9699999,-2.7269957065582275,-3.442862033843994,-9.21288776397705,-10.955810546875,6.89697265625,25.0396728515625
6.989999900000001,-2.8347349166870117,-3.4620156288146973,-8.908824920654297,-6.2713623046875,-1.52587890625,27.2674560546875
7.0099999,-2.9544448852539062,-3.5673606395721436,-8.595184326171875,0,-7.568359375,26.5655517578125
7.029999900000001,-3.0334534645080566,-3.7397429943084717,-8.398859977722168,-12.87841796875,-6.866455078125,23.651123046875
7.0499999,-3.162740468978882,-3.84269380569458,-8.300697326660156,-24.749755859375,-0.091552734375,19.83642578125
7.069999900000001,-3.359065055847168,-3.821146011352539,-8.317456245422363,-24.3072509765625,-4.8675537109375,20.9808349609375
7.0899999000000005,-3.5913026332855225,-3.8379054069519043,-8.315062522888184,-8.6669921875,-14.6636962890625,36.346435546875
7.109999900000001,-3.7445313930511475,-4.055777549743652,-8.317456245422363,17.1661376953125,-17.4560546875,49.8809814453125
7.1299999000000005,-3.7181951999664307,-4.458003520965576,-8.35097599029541,15.411376953125,-22.39990234375,40.71044921875
7.149999900000001,-3.5386300086975098,-4.869806289672852,-8.456320762634277,-21.66748046875,-31.2957763671875,13.092041015625
7.1699999000000005,-3.2848446369171143,-5.04218864440918,-8.576030731201172,-51.5289306640625,-37.4908447265625,1.46484375
7.1899999,-3.1435868740081787,-4.831499099731445,-8.640673637390137,-37.53662109375,-33.8134765625,9.27734375
7.209999900000001,-3.1100680828094482,-4.400542736053467,-8.803479194641113,-15.6707763671875,-36.5753173828125,17.364501953125
7.2299999,-3.1651346683502197,-3.861847400665283,-9.030928611755371,-3.5858154296875,-38.0859375,18.402099609375
7.249999900000001,-3.220201253890991,-3.464409828186035,-9.272743225097656,1.556396484375,-26.824951171875,19.2108154296875
7.2699999,-3.2537200450897217,-3.2800562381744385,-9.41400146484375,5.9814453125,-18.9666748046875,21.453857421875
7.289999900000001,-3.3063924312591553,-3.294421434402466,-9.35893440246582,23.1170654296875,-22.15576171875,20.01953125
7.3099999,-3.3854012489318848,-3.531447410583496,-9.038111686706543,34.72900390625,-25.0396728515625,12.6953125
7.329999900000001,-3.5625722408294678,-3.7277719974517822,-8.676587104797363,26.7791748046875,-30.6854248046875,1.28173828125
7.3499999,-3.8163576126098633,-3.7253777980804443,-8.396465301513672,12.8326416015625,-30.9600830078125,-5.3863525390625
7.369999900000001,-4.077325344085693,-3.4572272300720215,-8.233659744262695,3.173828125,-27.3284912109375,-5.1727294921875
7.3899999,-4.321534156799316,-2.9472622871398926,-8.224082946777344,0.8392333984375,-28.4271240234375,-7.8277587890625
7.409999900000001,-4.529829502105713,-2.3319525718688965,-8.358158111572266,3.84521484375,-30.548095703125,-9.4146728515625
7.4299999,-4.699818134307861,-1.721431016921997,-8.638279914855957,4.1351318359375,-28.5491943359375,-2.62451171875
7.449999900000001,-4.845864295959473,-1.2521674633026123,-8.968679428100586,4.4097900390625,-21.17919921875,7.110595703125
7.4699999,-4.965574264526367,-0.9864110946655273,-9.306262016296387,0.2288818359375,-18.85986328125,8.544921875
7.489999900000001,-5.058948040008545,-1.0103530883789062,-9.509769439697266,1.8463134765625,-15.9759521484375,8.697509765625
7.5099999,-5.149928092956543,-1.2713210582733154,-9.536105155944824,2.838134765625,-12.481689453125,10.92529296875
7.529999900000001,-5.238513469696045,-1.644816517829895,-9.454702377319336,-2.74658203125,-15.350341796875,10.8489990234375
7.5499999,-5.329493045806885,-2.0254945755004883,-9.26795482635498,-1.0223388671875,-15.2435302734375,8.2244873046875
7.569999900000001,-5.374982833862305,-2.3080103397369385,-9.133879661560059,2.1209716796875,-15.5029296875,8.1329345703125
7.5899999000000005,-5.360617637634277,-2.4851813316345215,-9.059659004211426,-0.48828125,-11.6119384765625,10.25390625
7.609999900000001,-5.327098846435547,-2.5474305152893066,-9.042900085449219,-4.4708251953125,-2.6092529296875,7.171630859375
7.6299999000000005,-5.284003257751465,-2.5043349266052246,-9.066842079162598,-8.85009765625,-3.265380859375,1.5716552734375
7.649999900000001,-5.2480902671813965,-2.387019157409668,-9.069235801696777,-10.80322265625,-5.767822265625,2.4261474609375
7.6699999000000005,-5.238513469696045,-2.1715409755706787,-9.014169692993164,-11.77978515625,-0.7781982421875,7.3394775390625
7.6899999,-5.2265424728393555,-1.9800047874450684,-8.908824920654297,-9.429931640625,4.0435791015625,11.5203857421875
7.709999900000001,-5.193023681640625,-1.8938134908676147,-8.757989883422852,-4.3487548828125,3.90625,12.5274658203125
7.7299999,-5.171475887298584,-1.9488801956176758,-8.53293514251709,-4.5623779296875,4.9285888671875,6.591796875
7.749999900000001,-5.118803024291992,-2.0614075660705566,-8.398859977722168,-19.989013671875,1.4190673828125,2.4261474609375
7.7699999,-5.092466831207275,-2.118868589401245,-8.255207061767578,-25.3448486328125,3.8299560546875,4.974365234375
7.789999900000001,-5.023035049438477,-2.1140801906585693,-8.216899871826172,-12.054443359375,5.7525634765625,12.4969482421875
7.8099999,-4.944026470184326,-2.0877439975738525,-8.188169479370117,0.0152587890625,7.0648193359375,15.533447265625
7.829999900000001,-4.807557106018066,-2.1811177730560303,-8.149862289428711,8.11767578125,7.32421875,15.106201171875
7.8499999,-4.663905143737793,-2.322375535964966,-8.149862289428711,2.25830078125,7.7667236328125,7.32421875
7.869999900000001,-4.548983097076416,-2.456450939178467,-8.169015884399414,-12.2528076171875,4.7149658203125,2.288818359375
7.8899999,-4.479551315307617,-2.5330653190612793,-8.183381080627441,-19.866943359375,7.0648193359375,1.64794921875
7.909999900000001,-4.4939165115356445,-2.492363929748535,-8.245630264282227,-15.533447265625,5.0201416015625,3.2806396484375
7.9299999,-4.558559894561768,-2.3367409706115723,-8.446743965148926,-4.913330078125,3.631591796875,6.7138671875
7.949999900000001,-4.6734819412231445,-2.164358377456665,-8.619126319885254,-2.38037109375,13.9923095703125,12.237548828125
7.9699999,-4.802768707275391,-1.9249382019042969,-8.81784439086914,-3.0059814453125,19.3939208984375,14.5721435546875
7.989999900000001,-4.922478675842285,-1.7501614093780518,-8.829815864562988,-8.056640625,15.289306640625,13.6871337890625
8.0099999,-5.011064052581787,-1.6831238269805908,-8.616731643676758,-5.340576171875,12.054443359375,15.0909423828125
8.0299999,-5.063736438751221,-1.7405846118927002,-8.310274124145508,-2.2125244140625,8.697509765625,15.1519775390625
8.049999900000001,-5.063736438751221,-1.9536685943603516,-8.08282470703125,-0.732421875,1.9378662109375,14.312744140625
8.069999900000001,-5.0014872550964355,-2.2816741466522217,-8.056488990783691,1.89208984375,-0.3204345703125,11.932373046875
8.0899999,-4.8602294921875,-2.6647465229034424,-8.250418663024902,-3.5400390625,2.410888671875,3.997802734375
8.1099999,-4.675876140594482,-2.9544448852539062,-8.542511940002441,-16.082763671875,5.5084228515625,-6.5765380859375
8.129999900000001,-4.481945514678955,-3.098097085952759,-8.767566680908203,-32.8826904296875,2.777099609375,-15.289306640625
8.149999900000001,-4.364629745483398,-3.004723072052002,-8.820239067077637,-39.764404296875,1.0223388671875,-22.0184326171875
8.1699999,-4.3406877517700195,-2.676717519760132,-8.822632789611816,-25.93994140625,1.5411376953125,-19.683837890625
8.1899999,-4.388571739196777,-2.3367409706115723,-8.7484130859375,-5.37109375,8.3465576171875,-9.796142578125
8.2099999,-4.491522312164307,-2.0254945755004883,-8.71728801727295,3.448486328125,15.56396484375,-7.1868896484375
8.229999900000001,-4.575319290161133,-1.9129672050476074,-8.698134422302246,-6.3629150390625,13.702392578125,-14.007568359375
8.2499999,-4.630385875701904,-1.965639591217041,-8.647856712341309,-14.6331787109375,10.55908203125,-21.6064453125
8.2699999,-4.608838081359863,-2.099714994430542,-8.681375503540039,-9.1552734375,6.7596435546875,-25.115966796875
8.2899999,-4.548983097076416,-2.2146365642547607,-8.710105895996094,2.9754638671875,11.3677978515625,-25.909423828125
8.309999900000001,-4.477157115936279,-2.231395959854126,-8.779537200927734,5.157470703125,15.4266357421875,-31.0821533203125
8.3299999,-4.431667327880859,-2.1068975925445557,-8.913613319396973,-3.0670166015625,10.6964111328125,-37.689208984375
8.3499999,-4.41969633102417,-1.900996208190918,-9.033323287963867,-8.270263671875,12.2528076171875,-36.5753173828125
8.3699999,-4.426878929138184,-1.6519991159439087,-9.172186851501465,-5.462646484375,18.4173583984375,-31.890869140625
8.389999900000001,-4.443638324737549,-1.4460978507995605,-9.260771751403809,0.152587890625,21.7132568359375,-30.0750732421875
8.4099999,-4.462791919708252,-1.3934253454208374,-9.232041358947754,0.579833984375,21.54541015625,-29.96826171875
8.4299999,-4.49870491027832,-1.4963760375976562,-9.08838939666748,3.2196044921875,20.8892822265625,-30.0445556640625
8.4499999,-4.551377296447754,-1.7262194156646729,-8.889671325683594,3.47900390625,20.20263671875,-30.2581787109375
8.469999900000001,-4.594472885131836,-2.0398597717285156,-8.662221908569336,-0.152587890625,18.6309814453125,-31.8603515625
8.4899999,-4.592078685760498,-2.382230758666992,-8.458714485168457,1.4801025390625,14.0228271484375,-34.5458984375
8.5099999,-4.551377296447754,-2.719813108444214,-8.29590892791748,11.0321044921875,10.6201171875,-38.2232666015625
8.5299999,-4.4723687171936035,-2.9759926795959473,-8.248024940490723,11.1846923828125,7.99560546875,-41.4886474609375
8.549999900000001,-4.367023944854736,-3.19865345954895,-8.2312650680542,-0.0457763671875,7.6751708984375,-42.877197265625
8.569999900000001,-4.2544965744018555,-3.2776620388031006,-8.281543731689453,-10.07080078125,3.2958984375,-49.468994140625
8.5899999,-4.151545524597168,-3.222595453262329,-8.362946510314941,-10.1470947265625,-2.5482177734375,-52.337646484375
8.6099999,-4.000710964202881,-3.1100680828094482,-8.453926086425781,-0.1678466796875,-3.082275390625,-41.107177734375
8.629999900000001,-3.8067808151245117,-2.999934673309326,-8.607154846191406,2.1820068359375,-1.6937255859375,-34.5306396484375
8.649999900000001,-3.5889084339141846,-2.918531894683838,-8.774748802185059,-7.0343017578125,-1.739501953125,-42.8009033203125
8.6699999,-3.337517261505127,-2.9496564865112305,-8.944737434387207,-19.47021484375,-2.25830078125,-46.844482421875
8.6899999,-3.1507694721221924,-3.0166940689086914,-8.923190116882324,-26.947021484375,0.5950927734375,-45.5474853515625
8.709999900000001,-3.004723072052002,-3.095702886581421,-8.80587387084961,-23.2696533203125,-4.21142578125,-43.5333251953125
8.729999900000001,-2.889801502227783,-3.160346269607544,-8.686163902282715,-13.9923095703125,-13.9312744140625,-42.9229736328125
8.7499999,-2.786850690841675,-3.1747114658355713,-8.731653213500977,-12.5885009765625,-11.9781494140625,-42.938232421875
8.7699999,-2.693476915359497,-3.1076738834381104,-8.980650901794434,-23.2391357421875,-1.3885498046875,-40.771484375
8.7899999,-2.6815059185028076,-2.942473888397217,-9.282320022583008,-25.93994140625,7.5531005859375,-36.7279052734375
8.809999900000001,-2.7533318996429443,-2.717418909072876,-9.461885452270508,-24.90234375,5.7373046875,-33.50830078125
8.8299999,-2.9041666984558105,-2.540247917175293,-9.421183586120605,-22.64404296875,0.06103515625,-27.9541015625
8.8499999,-3.0358476638793945,-2.454056739807129,-9.229647636413574,-16.021728515625,-3.5552978515625,-21.759033203125
8.8699999,-3.114856481552124,-2.4636335372924805,-8.980650901794434,-11.90185546875,-4.45556640625,-20.721435546875
8.889999900000001,-3.0597896575927734,-2.612074136734009,-8.786720275878906,-10.2996826171875,-3.35693359375,-17.5628662109375
8.9099999,-2.9735984802246094,-2.741360902786255,-8.5903959274292,-11.6119384765625,-0.42724609375,-19.7296142578125
8.9299999,-2.827552318572998,-2.8634653091430664,-8.520963668823242,-12.1002197265625,-2.5177001953125,-18.12744140625
8.9499999,-2.698265314102173,-2.9496564865112305,-8.53532886505127,-6.8511962890625,-1.434326171875,-11.6729736328125
8.969999900000001,-2.6168625354766846,-2.978386878967285,-8.609549522399902,-0.9307861328125,2.25830078125,-8.9263916015625
8.9899999,-2.5546131134033203,-2.980781078338623,-8.71489429473877,-12.39013671875,-3.0364990234375,-13.0767822265625
9.0099999,-2.5234885215759277,-2.9257144927978516,-8.829815864562988,-27.03857421875,-7.87353515625,-16.6015625
9.0299999,-2.5067291259765625,-2.786850690841675,-8.9064302444458,-10.7574462890625,3.936767578125,-12.0391845703125
9.049999900000001,-2.4851813316345215,-2.5977089405059814,-9.01895809173584,-9.3536376953125,7.5836181640625,-6.3934326171875
9.069999900000001,-2.4444799423217773,-2.4396915435791016,-9.071630477905273,-21.1181640625,3.4027099609375,-6.65283203125
9.0899999,-2.3918075561523438,-2.2912509441375732,-9.069235801696777,-15.0909423828125,1.4495849609375,-9.33837890625
9.1099999,-2.274491548538208,-2.1715409755706787,-9.083600997924805,-6.072998046875,-1.2969970703125,-7.6904296875
9.129999900000001,-2.1475989818573,-2.027888774871826,-9.066842079162598,-1.6021728515625,5.523681640625,-6.3934326171875
9.149999900000001,-2.006340980529785,-1.867477297782898,-9.050082206726074,-2.9449462890625,12.786865234375,-4.7454833984375
9.1699999,-1.8938134908676147,-1.7142484188079834,-9.05247688293457,-7.87353515625,10.2691650390625,-4.82177734375
9.1899999,-1.8483237028121948,-1.6496049165725708,-8.990227699279785,-9.429931640625,5.7830810546875,-2.44140625
9.209999900000001,-1.845929503440857,-1.6950948238372803,-8.99740982055664,-8.697509765625,4.119873046875,0.885009765625
9.229999900000001,-1.9153614044189453,-1.8171991109848022,-9.069235801696777,-10.6658935546875,3.143310546875,0.823974609375
9.2499999,-2.0183119773864746,-2.051830768585205,-9.17936897277832,-14.8162841796875,5.126953125,1.7242431640625
9.2699999,-2.1571757793426514,-2.3319525718688965,-9.308655738830566,-14.6484375,4.150390625,1.9683837890625
9.2899999,-2.3295583724975586,-2.6144683361053467,-9.406818389892578,-11.8865966796875,0.9002685546875,0.1068115234375
9.309999900000001,-2.4588451385498047,-2.9017724990844727,-9.481039047241211,-6.5155029296875,-0.1068115234375,1.220703125
9.3299999,-2.5258827209472656,-3.1004912853240967,-9.557653427124023,-0.9918212890625,0.0762939453125,1.2664794921875
9.3499999,-2.5282769203186035,-3.1028854846954346,-9.758766174316406,2.1820068359375,2.62451171875,-3.4332275390625
9.3699999,-2.4396915435791016,-2.985569477081299,-10.08437728881836,9.429931640625,16.845703125,-3.7841796875
9.389999900000001,-2.296039342880249,-2.832340717315674,-10.35252857208252,-3.4637451171875,30.670166015625,-5.9356689453125
9.4099999,-2.1308395862579346,-2.6839001178741455,-10.505757331848145,-18.0206298828125,34.515380859375,-16.78466796875
9.4299999,-1.968033790588379,-2.5067291259765625,-10.577583312988281,-15.31982421875,35.0341796875,-17.27294921875
9.4499999,-1.886630892753601,-2.31758713722229,-10.376470565795898,6.53076171875,58.7615966796875,1.617431640625
9.469999900000001,-1.9057846069335938,-2.075772762298584,-10.129867553710938,12.1307373046875,66.6351318359375,11.90185546875
9.4899999,-2.03507137298584,-1.8363527059555054,-9.816226959228516,-10.43701171875,48.9654541015625,2.5177001953125
9.5099999,-2.121262788772583,-1.7932571172714233,-9.41639518737793,-25.1922607421875,36.773681640625,-0.91552734375
9.5299999,-2.1954829692840576,-1.6711528301239014,-9.169792175292969,-20.81298828125,29.6478271484375,1.9073486328125
9.549999900000001,-2.1763293743133545,-1.5179238319396973,-9.023746490478516,-16.5252685546875,26.4434814453125,8.544921875
9.569999900000001,-2.0159177780151367,-1.4245500564575195,-9.016563415527344,-22.9034423828125,19.500732421875,14.6026611328125
9.5899999,-1.8411411046981812,-1.3311761617660522,-8.920795440673828,-28.4881591796875,11.322021484375,2.4566650390625
9.6099999,-1.5969325304031372,-1.3742717504501343,-8.753201484680176,-31.4178466796875,1.983642578125,-7.7056884765625
9.629999900000001,-1.3311761617660522,-1.403002142906189,-8.669404029846191,-15.9912109375,-16.4337158203125,0.2899169921875
9.649999900000001,-1.0247182846069336,-1.3431471586227417,-8.81784439086914,8.544921875,-20.0653076171875,14.739990234375
9.6699999,-0.6703764796257019,-1.335964560508728,-9.162610054016113,-10.5743408203125,-10.345458984375,9.490966796875
9.6899999,-0.33758243918418884,-1.3192051649093628,-9.521739959716797,-25.543212890625,2.01416015625,-7.3394775390625
9.709999900000001,-0.14365209639072418,-1.3527239561080933,-9.648633003234863,-14.739990234375,1.4495849609375,-11.810302734375
9.729999900000001,-0.22266076505184174,-1.316810965538025,-9.543288230895996,-1.983642578125,-9.8419189453125,-6.04248046875
9.7499999,-0.5147533416748047,-1.2665326595306396,-9.275136947631836,5.401611328125,-16.8304443359375,2.2735595703125
9.7699999,-0.8307880163192749,-1.3096283674240112,-9.078812599182129,3.1585693359375,-16.571044921875,4.3792724609375
9.7899999,-0.9720458984375,-1.4700398445129395,-9.009381294250488,-5.06591796875,-16.5252685546875,-0.4425048828125
9.809999900000001,-0.8547300100326538,-1.6950948238372803,-9.093177795410156,4.5623779296875,-6.866455078125,-3.2501220703125
9.8299999,-0.586579442024231,-1.8076223134994507,-9.239224433898926,24.3072509765625,8.5906982421875,-0.5950927734375
9.8499999,-0.33039984107017517,-1.7262194156646729,-9.346963882446289,23.895263671875,16.998291015625,-0.48828125
9.8699999,-0.15801730751991272,-1.5490485429763794,-9.320627212524414,11.8255615234375,11.444091796875,0.8392333984375
9.889999900000001,-0.1388636976480484,-1.3239935636520386,-9.165003776550293,11.077880859375,7.843017578125,2.288818359375
9.9099999,-0.19632454216480255,-1.1516109704971313,-8.980650901794434,7.8277587890625,1.4190673828125,1.5411376953125
9.9299999,-0.2968810200691223,-1.1180921792984009,-8.822632789611816,1.9683837890625,-5.523681640625,0.0457763671875
9.9499999,-0.38546648621559143,-1.2497732639312744,-8.753201484680176,-0.762939453125,-14.312744140625,-0.7781982421875
9.969999900000001,-0.47165772318840027,-1.4867992401123047,-8.722076416015625,3.0517578125,-15.960693359375,-4.57763671875
9.9899999,-0.5410895943641663,-1.7477672100067139,-8.78193187713623,0.274658203125,-18.85986328125,-7.9345703125
10.0099999,-0.5985504388809204,-1.9129672050476074,-8.927978515625,1.312255859375,-21.78955078125,-5.767822265625
10.0299999,-0.6344634294509888,-1.9704279899597168,-9.126696586608887,16.7388916015625,-14.984130859375,2.044677734375
10.049999900000001,-0.6655880808830261,-1.9991583824157715,-9.279925346374512,34.7442626953125,-8.1787109375,8.758544921875
10.069999900000001,-0.7541735172271729,-2.013523578643799,-9.272743225097656,36.1480712890625,-20.7672119140625,3.4332275390625
10.0899999,-0.8643068075180054,-1.965639591217041,-9.330204010009766,-17.7154541015625,-57.373046875,-16.8609619140625
10.1099999,-1.0223240852355957,-1.802833914756775,-9.454702377319336,-41.259765625,-56.304931640625,-16.082763671875
10.129999900000001,-1.1468225717544556,-1.5921441316604614,-9.768342971801758,-11.1236572265625,-30.2581787109375,0.0457763671875
10.149999900000001,-1.2258312702178955,-1.4508862495422363,-10.18493366241455,-5.7830810546875,-14.5263671875,1.617431640625
10.1699999,-1.3335703611373901,-1.479616641998291,-10.390835762023926,-21.8505859375,-7.6904296875,-8.48388671875
10.1899999,-1.6855180263519287,-1.8507179021835327,-10.14902114868164,16.2353515625,0.5035400390625,5.950927734375
10.209999900000001,-1.843535304069519,-2.0039467811584473,-9.775525093078613,25.7568359375,3.4332275390625,9.124755859375
10.229999900000001,-1.920149803161621,-2.0829553604125977,-9.406818389892578,19.866943359375,-1.678466796875,4.3487548828125
10.2499999,-1.9321208000183105,-2.0853497982025146,-9.10993766784668,6.072998046875,-13.5345458984375,-5.3863525390625
10.2699999,-1.9153614044189453,-2.0254945755004883,-8.999804496765137,-6.134033203125,-19.8211669921875,-7.8125
10.2899999,-1.9249382019042969,-1.8602946996688843,-9.071630477905273,-2.5482177734375,-18.0816650390625,-0.335693359375
10.309999900000001,-1.9632453918457031,-1.6903064250946045,-9.289502143859863,3.47900390625,-14.9383544921875,4.6234130859375
10.3299999,-2.0183119773864746,-1.5921441316604614,-9.53849983215332,2.5787353515625,-17.2576904296875,3.5247802734375
10.3499999,-2.0685901641845703,-1.6208745241165161,-9.718064308166504,1.3275146484375,-19.34814453125,0.244140625
10.3699999,-2.1092917919158936,-1.7621324062347412,-9.799467086791992,1.190185546875,-16.8304443359375,-2.3345947265625
10.389999900000001,-2.1356279850006104,-1.8986018896102905,-9.813833236694336,-0.1068115234375,-14.862060546875,-3.2196044921875
10.4099999,-2.166752576828003,-1.968033790588379,-9.765948295593262,0.5035400390625,-14.4805908203125,-2.5177001953125
10.4299999,-2.2170307636260986,-1.968033790588379,-9.706093788146973,2.01416015625,-13.9923095703125,-0.6561279296875
10.4499999,-2.296039342880249,-1.9393033981323242,-9.63187313079834,2.9296875,-11.260986328125,0.48828125
10.469999900000001,-2.38462495803833,-1.9823989868164062,-9.531316757202148,2.5482177734375,-9.09423828125,0.18310546875
10.4899999,-2.477998733520508,-2.10210919380188,-9.418789863586426,1.220703125,-9.033203125,-3.2806396484375
10.5099999,-2.5737667083740234,-2.231395959854126,-9.294290542602539,-2.44140625,-10.6353759765625,-7.2174072265625
10.5299999,-2.650381326675415,-2.315192937850952,-9.222464561462402,-8.6517333984375,-11.9781494140625,-7.293701171875
10.549999900000001,-2.741360902786255,-2.2697031497955322,-9.150638580322266,-9.0179443359375,-7.6904296875,-4.913330078125
10.569999900000001,-2.8227639198303223,-2.169146776199341,-9.059659004211426,-5.0201416015625,-5.401611328125,-1.312255859375
10.5899999,-2.894589900970459,-2.054224967956543,-8.913613319396973,-0.8544921875,-9.8876953125,0.48828125
10.6099999,-2.9759926795959473,-1.987187385559082,-8.719682693481445,2.25830078125,-13.3056640625,0.6866455078125
10.629999900000001,-3.066972494125366,-1.9584569931030273,-8.516175270080566,1.678466796875,-14.1754150390625,0.54931640625
10.649999900000001,-3.1699230670928955,-1.9369091987609863,-8.429984092712402,-3.997802734375,-19.500732421875,2.0751953125
10.6699999,-3.2968156337738037,-1.9129672050476074,-8.360552787780762,-7.2021484375,-20.6146240234375,2.1820068359375
10.6899999,-3.421314239501953,-1.8986018896102905,-8.35336971282959,-7.720947265625,-27.5115966796875,2.86865234375
10.709999900000001,-3.514688014984131,-1.8962076902389526,-8.44195556640625,-5.9661865234375,-35.3546142578125,3.5400390625
10.729999900000001,-3.584120035171509,-1.9081788063049316,-8.595184326171875,-1.3427734375,-28.656005859375,4.39453125
10.7499999,-3.6176388263702393,-1.9297266006469727,-8.829815864562988,-0.274658203125,-22.186279296875,4.608154296875
10.7699999,-3.6391866207122803,-1.968033790588379,-9.062053680419922,-2.2735595703125,-21.270751953125,3.5552978515625
10.7899999,-3.663128614425659,-2.008735179901123,-9.160215377807617,-0.06103515625,-20.599365234375,2.01416015625
10.809999900000001,-3.706224203109741,-2.008735179901123,-9.126696586608887,0.8697509765625,-25.0701904296875,0.457763671875
10.8299999,-3.751713991165161,-1.9632453918457031,-9.047688484191895,0.579833984375,-30.94482421875,1.9378662109375
10.8499999,-3.821146011352539,-1.86508309841156,-8.942343711853027,1.983642578125,-27.4200439453125,2.8533935546875
10.8699999,-3.890577793121338,-1.7477672100067139,-8.932766914367676,-1.3427734375,-27.8167724609375,1.5411376953125
10.889999900000001,-3.9624037742614746,-1.6735470294952393,-8.942343711853027,-2.3345947265625,-28.106689453125,1.52587890625
10.9099999,-4.046200752258301,-1.6400281190872192,-8.96389102935791,-2.9754638671875,-26.3671875,2.3345947265625
10.9299999,-4.098873138427734,-1.644816517829895,-9.01895809173584,-7.2174072265625,-30.3192138671875,3.4027099609375
10.9499999,-4.175487995147705,-1.656787633895874,-8.987833023071289,-1.89208984375,-28.564453125,3.8604736328125
10.969999900000001,-4.242525577545166,-1.6831238269805908,-8.920795440673828,5.7220458984375,-28.1219482421875,5.4168701171875
10.9899999,-4.321534156799316,-1.6663644313812256,-8.793902397155762,7.720947265625,-31.25,5.9661865234375
11.0099999,-4.400542736053467,-1.6089035272598267,-8.62391471862793,1.2359619140625,-30.975341796875,5.8441162109375
11.0299999,-4.484339714050293,-1.5275006294250488,-8.453926086425781,-4.791259765625,-29.4342041015625,7.4005126953125
11.049999900000001,-4.565742492675781,-1.4628572463989258,-8.322244644165039,-0.4730224609375,-29.571533203125,9.58251953125
11.069999900000001,-4.651933670043945,-1.4700398445129395,-8.226476669311523,2.5787353515625,-31.31103515625,10.4827880859375
11.0899999,-4.750096321105957,-1.5442601442337036,-8.185775756835938,-1.9989013671875,-32.5164794921875,8.087158203125
11.1099999,-4.865017890930176,-1.6615760326385498,-8.20732307434082,-7.2174072265625,-34.5916748046875,5.55419921875
11.129999900000001,-4.972756862640381,-1.7525556087493896,-8.312667846679688,-3.997802734375,-34.2864990234375,5.0811767578125
11.149999900000001,-5.0685248374938965,-1.7956513166427612,-8.44195556640625,-2.471923828125,-30.1666259765625,4.669189453125
11.1699999,-5.130774021148682,-1.7884687185287476,-8.588001251220703,3.265380859375,-24.4140625,4.730224609375
11.1899999,-5.171475887298584,-1.7334020137786865,-8.664615631103516,8.2550048828125,-21.1029052734375,6.0882568359375
11.209999900000001,-5.183446884155273,-1.6663644313812256,-8.683769226074219,9.82666015625,-23.956298828125,6.6986083984375
11.229999900000001,-5.2049946784973145,-1.577778935432434,-8.62391471862793,3.6163330078125,-24.566650390625,3.7841796875
11.2499999,-5.231330871582031,-1.4963760375976562,-8.47547435760498,1.007080078125,-22.7813720703125,3.814697265625
11.2699999,-5.272032260894775,-1.4245500564575195,-8.281543731689453,2.3956298828125,-24.4293212890625,4.974365234375
11.2899999,-5.365406036376953,-1.3287819623947144,-8.08043098449707,-0.4119873046875,-28.594970703125,2.9754638671875
11.309999900000001,-5.501875400543213,-1.2114660739898682,-7.970297336578369,-3.936767578125,-31.6009521484375,5.218505859375
11.3299999,-5.681440830230713,-1.113303780555725,-7.903259754180908,2.9449462890625,-25.604248046875,12.7716064453125
11.3499999,-5.868188381195068,-1.1085153818130493,-7.888894557952881,9.4146728515625,-22.552490234375,17.5323486328125
11.3699999,-6.016628742218018,-1.2042834758758545,-7.915230751037598,7.62939453125,-30.5023193359375,16.143798828125
11.389999900000001,-6.124367713928223,-1.3742717504501343,-7.929595947265625,-0.885009765625,-33.7066650390625,13.1683349609375
11.4099999,-6.200982570648193,-1.5658079385757446,-7.9631147384643555,1.129150390625,-27.7862548828125,17.059326171875
11.4299999,-6.203376770019531,-1.7549498081207275,-8.056488990783691,5.5999755859375,-26.397705078125,21.759033203125
11.4499999,-6.212953567504883,-1.889025092124939,-8.111555099487305,-6.04248046875,-24.47509765625,11.749267578125
11.469999900000001,-6.191405773162842,-1.9943699836730957,-8.147468566894531,-6.195068359375,-21.2554931640625,6.011962890625
11.4899999,-6.234501361846924,-2.0470423698425293,-8.128314971923828,2.38037109375,-15.1214599609375,8.0108642578125
11.5099999,-6.282385349273682,-2.0159177780151367,-8.08043098449707,3.7841796875,-11.0931396484375,7.720947265625
11.5299999,-6.368576526641846,-1.9129672050476074,-7.987056732177734,-8.544921875,-14.801025390625,0.1678466796875
11.549999900000001,-6.418854713439941,-1.7884687185287476,-7.869740962982178,-8.4075927734375,-13.763427734375,-2.3956298828125
11.569999900000001,-6.440402507781982,-1.659181833267212,-7.781155586242676,-3.5400390625,-12.2528076171875,-0.946044921875
11.5899999,-6.45476770401001,-1.5203180313110352,-7.73087739944458,-4.7607421875,-13.1378173828125,-1.3580322265625
11.6099999,-6.452373504638672,-1.4269442558288574,-7.738059997558594,0.5645751953125,-11.0015869140625,0.1220703125
11.629999900000001,-6.4595561027526855,-1.3455413579940796,-7.771578788757324,6.988525390625,-8.8043212890625,2.2430419921875
11.649999900000001,-6.457161903381348,-1.3192051649093628,-7.850587368011475,8.3770751953125,-7.415771484375,3.1585693359375
11.6699999,-6.495469093322754,-1.2737152576446533,-7.91283655166626,4.9285888671875,-5.3558349609375,2.0294189453125
11.6899999,-6.6127848625183105,-1.2976573705673218,-7.9631147384643555,11.23046875,-1.3427734375,3.1585693359375
11.709999900000001,-6.7277069091796875,-1.4532804489135742,-7.920019149780273,20.294189453125,0.6866455078125,7.0037841796875
11.729999900000001,-6.840234279632568,-1.599326729774475,-7.757213592529297,11.53564453125,3.326416015625,0.244140625
11.7499999,-6.873753070831299,-1.6400281190872192,-7.536946773529053,-17.3492431640625,2.0904541015625,-10.5743408203125
11.7699999,-6.833051681518555,-1.5322890281677246,-7.134721279144287,-18.1732177734375,8.6822509765625,-6.744384765625
11.7899999,-6.782773494720459,-1.2641384601593018,-6.66785192489624,1.8768310546875,11.1846923828125,2.4871826171875
11.809999900000001,-6.775590896606445,-0.9433154463768005,-6.210559368133545,7.2174072265625,2.0751953125,2.9449462890625
11.8299999,-6.7923502922058105,-0.7038952708244324,-5.880159378051758,-4.180908203125,-8.36181640625,2.349853515625
11.8499999,-6.8162922859191895,-0.5578489899635315,-5.817910194396973,-10.6353759765625,-9.9945068359375,5.828857421875
11.8699999,-6.818686485290527,-0.48602294921875,-5.995080947875977,-1.007080078125,-6.7291259765625,11.627197265625
11.889999900000001,-6.8162922859191895,-0.5482721924781799,-6.342240333557129,5.31005859375,-9.368896484375,13.6260986328125
11.9099999,-6.8043212890625,-0.7829039692878723,-6.773196697235107,11.7645263671875,-13.5650634765625,13.9617919921875
11.9299999,-6.797138690948486,-1.0749965906143188,-7.208941459655762,0.5340576171875,-16.082763671875,10.07080078125
11.9499999,-6.787561893463135,-1.2713210582733154,-7.690176010131836,-10.528564453125,-17.974853515625,6.683349609375
11.969999900000001,-6.809109687805176,-1.2090718746185303,-8.195352554321289,9.3536376953125,-18.85986328125,14.068603515625
11.9899999,-6.811503887176514,-1.015141487121582,-8.796297073364258,42.5567626953125,-19.2413330078125,30.8990478515625
12.0099999,-6.756437301635742,-1.0749965906143188,-9.526528358459473,43.060302734375,-17.1966552734375,40.802001953125
12.0299999,-6.682217121124268,-1.3120225667953491,-10.591948509216309,-23.49853515625,-24.932861328125,21.728515625
12.049999900000001,-6.610390663146973,-1.7501614093780518,-12.466608047485352,-37.17041015625,-38.87939453125,14.129638671875
12.069999900000001,-6.48828649520874,-2.999934673309326,-15.808914184570312,90.5609130859375,-8.148193359375,54.840087890625
12.0899999,-6.45476770401001,-5.307945251464844,-21.86863899230957,37.90283203125,49.31640625,39.4287109375
12.1099999,-7.752425193786621,-7.333439826965332,-31.687259674072266,-171.722412109375,110.504150390625,-40.0848388671875
12.129999900000001,-10.78348445892334,-9.773131370544434,-41.829097747802734,-7.659912109375,348.4649658203125,-31.1737060546875
12.149999900000001,-16.431406021118164,-11.23598861694336,-50.283023834228516,95.6573486328125,499.9847412109375,-69.915771484375
12.1699999,-24.157495498657227,-10.237606048583984,-54.1807861328125,0.5035400390625,499.9847412109375,-141.9830322265625
12.1899999,-32.13497543334961,-8.470685958862305,-51.29337692260742,-5.7220458984375,499.9847412109375,-136.7950439453125
12.209999900000001,-38.58256149291992,-5.60722017288208,-43.25843811035156,55.450439453125,499.9847412109375,-115.4022216796875
12.229999900000001,-41.82191467285156,-2.231395959854126,-30.91632652282715,-32.4859619140625,499.9847412109375,-129.3182373046875
12.2499999,-41.12998962402344,0.6057330369949341,-16.086641311645508,-43.1365966796875,499.9847412109375,-102.23388671875
12.2699999,-37.01435852050781,2.9903578758239746,-1.558625340461731,40.557861328125,489.5172119140625,-63.690185546875
12.289999900000002,-30.521284103393555,4.400542736053467,10.077195167541504,21.78955078125,356.201171875,-31.8603515625
12.309999900000001,-23.314735412597656,4.932055473327637,16.71392250061035,18.0206298828125,276.3519287109375,-16.8609619140625
12.3299999,-16.58463478088379,4.290409564971924,18.52633285522461,19.1802978515625,238.1134033203125,-16.845703125
12.3499999,-11.010933876037598,3.0190882682800293,16.46492576599121,26.336669921875,182.4188232421875,-12.75634765625
12.3699999,-6.710947513580322,1.4628572463989258,12.617443084716797,34.8358154296875,144.3023681640625,-7.354736328125
12.389999900000001,-3.536235809326172,0.19153612852096558,8.485051155090332,11.7950439453125,132.32421875,-19.9432373046875
12.4099999,-1.1516109704971313,-0.6488286852836609,4.991910457611084,-20.538330078125,110.504150390625,-33.0352783203125
12.4299999,0.727837324142456,-0.9888052940368652,2.87064790725708,-4.82177734375,87.1429443359375,-26.702880859375
12.4499999,2.3127987384796143,-0.9289502501487732,1.8267759084701538,24.0631103515625,59.2041015625,-19.2108154296875
12.469999900000001,3.7205893993377686,-0.6368576288223267,1.414973258972168,27.191162109375,36.2091064453125,-22.7203369140625
12.4899999,4.99669885635376,-0.4620809257030487,1.381454348564148,6.4544677734375,35.552978515625,-26.031494140625
12.5099999,6.038176536560059,-0.30885201692581177,1.280897855758667,-5.584716796875,36.2396240234375,-29.052734375
12.5299999,6.833051681518555,-0.23702596127986908,1.235408067703247,19.287109375,28.900146484375,-26.824951171875
12.549999900000001,7.407660007476807,-0.1843535304069519,1.161187767982483,33.966064453125,17.364501953125,-24.993896484375
12.569999900000001,7.7763671875,-0.15801730751991272,0.8810662031173706,4.8370361328125,0.518798828125,-28.7933349609375
12.5899999,8.003816604614258,-0.0071826050989329815,0.40940847992897034,-16.17431640625,1.556396484375,-29.6173095703125
12.6099999,8.147468566894531,0.13168109953403473,-0.023942016065120697,-11.29150390625,17.4407958984375,-23.529052734375
12.629999900000001,8.248024940490723,0.47884035110473633,-0.3495534360408783,3.1585693359375,19.53125,-19.9737548828125
12.649999900000001,8.35336971282959,0.790086567401886,-0.2585737705230713,28.4423828125,14.495849609375,-12.8631591796875
12.6699999,8.396465301513672,1.0582371950149536,-0.1412578970193863,41.900634765625,5.3558349609375,-6.866455078125
12.6899999,8.451532363891602,1.0438719987869263,-0.033518824726343155,31.3262939453125,1.800537109375,-3.143310546875
12.709999900000001,8.53532886505127,0.7565677165985107,-0.014365210197865963,7.7972412109375,4.1351318359375,-11.3525390625
12.729999900000001,8.676587104797363,0.35434186458587646,-0.07661445438861847,-4.058837890625,-3.0670166015625,-22.918701171875
12.7499999,8.882488250732422,0.043095629662275314,-0.011971008032560349,0.6866455078125,-4.6539306640625,-27.191162109375
12.7699999,9.07641887664795,0.10773907601833344,-0.031124621629714966,5.889892578125,-10.0250244140625,-23.13232421875
12.789999900000002,9.246406555175781,0.5123591423034668,-0.17238251864910126,11.199951171875,-15.8233642578125,-12.39013671875
12.809999900000001,9.373299598693848,0.9289502501487732,-0.3495534360408783,22.674560546875,-12.1612548828125,-4.8065185546875
12.8299999,9.488221168518066,1.1803414821624756,-0.6320692300796509,6.7291259765625,-18.6614990234375,-7.62939453125
12.8499999,9.557653427124023,1.213860273361206,-0.7709329724311829,-24.0936279296875,-24.1241455078125,-18.798828125
12.8699999,9.560047149658203,1.1085153818130493,-0.9983820915222168,-14.70947265625,-27.1148681640625,-18.707275390625
12.889999900000001,9.514557838439941,1.015141487121582,-1.2401964664459229,-1.373291015625,-25.5889892578125,-9.185791015625
12.9099999,9.442731857299805,0.9145850539207458,-1.4772224426269531,-3.90625,-20.6146240234375,-8.209228515625
12.9299999,9.387664794921875,0.8164227604866028,-1.6879122257232666,-12.2833251953125,-27.130126953125,-15.9149169921875
12.9499999,9.349357604980469,0.7086837291717529,-1.6519991159439087,-1.983642578125,-27.4200439453125,-17.9901123046875
12.969999900000001,9.32541561126709,0.7230489253997803,-1.4987702369689941,28.1219482421875,-24.871826171875,-10.833740234375
12.9899999,9.299078941345215,0.7852981686592102,-1.1803414821624756,42.938232421875,-30.853271484375,-1.03759765625
13.0099999,9.23443603515625,0.8738836050033569,-0.9864110946655273,37.53662109375,-41.351318359375,-1.03759765625
13.0299999,9.093177795410156,0.9696516990661621,-0.9050082564353943,15.472412109375,-49.31640625,-3.7841796875
13.049999900000001,8.918401718139648,0.9193734526634216,-0.9193734526634216,16.11328125,-45.10498046875,-0.6256103515625
13.069999900000001,8.65982723236084,0.828393816947937,-0.993593692779541,19.6533203125,-51.1932373046875,-1.4801025390625
13.0899999,8.327033042907715,0.751779317855835,-1.1324573755264282,6.317138671875,-64.5294189453125,-8.5601806640625
13.1099999,7.989450931549072,0.706289529800415,-1.2210428714752197,2.2125244140625,-69.0460205078125,-6.2255859375
13.129999900000001,7.690176010131836,0.5961562395095825,-1.436521053314209,8.5601806640625,-73.1048583984375,3.0364990234375
13.149999900000001,7.489062786102295,0.5315127968788147,-1.8387469053268433,17.7764892578125,-73.7762451171875,3.1890869140625
13.1699999,7.424419403076172,0.4620809257030487,-2.190694570541382,4.0740966796875,-68.9544677734375,-6.8359375
13.1899999,7.3885064125061035,0.5770025849342346,-2.647987127304077,-13.85498046875,-73.5626220703125,-9.552001953125
13.209999900000001,7.340622425079346,0.849941611289978,-3.071760892868042,-19.500732421875,-84.1217041015625,1.312255859375
13.229999900000001,7.287950038909912,1.2018892765045166,-3.3949780464172363,-0.67138671875,-82.7789306640625,11.383056640625
13.2499999,7.206547260284424,1.460463047027588,-3.643975019454956,4.791259765625,-83.1298828125,8.23974609375
13.2699999,7.108384609222412,1.6519991159439087,-4.034229755401611,-1.9378662109375,-91.339111328125,7.6751708984375
13.289999900000002,7.0317702293396,1.623268723487854,-4.326322555541992,-4.1046142578125,-84.747314453125,18.4173583984375
13.309999900000001,6.916848659515381,1.4293384552001953,-4.620809078216553,-2.8076171875,-74.493408203125,19.134521484375
13.3299999,6.823474884033203,1.1013327836990356,-4.898536682128906,-8.4686279296875,-87.0819091796875,9.7503662109375
13.3499999,6.694188117980957,0.8020575642585754,-5.173870086669922,-3.7841796875,-97.16796875,6.866455078125
13.3699999,6.550535678863525,0.6416460275650024,-5.588066577911377,0.91552734375,-92.926025390625,17.303466796875
13.389999900000001,6.3949127197265625,0.6033388376235962,-6.0405707359313965,6.8817138671875,-81.0089111328125,28.3050537109375
13.4099999,6.31829833984375,0.5530605912208557,-6.493074893951416,0.9918212890625,-85.174560546875,23.681640625
13.4299999,6.2632317543029785,0.5267243981361389,-6.818686485290527,-8.6669921875,-94.6197509765625,11.2457275390625
13.4499999,6.215347766876221,0.49799394607543945,-7.1251444816589355,-10.5133056640625,-96.649169921875,14.617919921875
13.469999900000001,6.0836663246154785,0.5219359993934631,-7.436390399932861,2.105712890625,-88.043212890625,26.5960693359375
13.4899999,5.868188381195068,0.5051765441894531,-7.7428483963012695,0.1068115234375,-84.625244140625,24.566650390625
13.5099999,5.60722017288208,0.40462008118629456,-7.903259754180908,3.84521484375,-88.0584716796875,18.7835693359375
13.5299999,5.394136428833008,0.07422025501728058,-8.006210327148438,22.8729248046875,-90.850830078125,25.4364013671875
13.549999900000001,5.171475887298584,-0.17477671802043915,-7.972691535949707,35.9039306640625,-86.578369140625,30.8074951171875
13.569999900000001,4.977545261383057,-0.36152446269989014,-8.003816604614258,21.026611328125,-88.80615234375,23.7274169921875
13.5899999,4.829104900360107,-0.4213795065879822,-7.979874134063721,12.2833251953125,-97.5341796875,25.8331298828125
13.6099999,4.6734819412231445,-0.524330198764801,-7.939172744750977,40.1458740234375,-97.137451171875,37.750244140625
13.629999900000001,4.532223701477051,-0.5147533416748047,-7.967903137207031,39.4744873046875,-102.6153564453125,37.0025634765625
13.649999900000001,4.335899353027344,-0.5291185975074768,-7.99184513092041,-14.801025390625,-108.551025390625,25.5889892578125
13.6699999,4.0533833503723145,-0.5578489899635315,-8.109161376953125,-21.728515625,-114.715576171875,28.350830078125
13.6899999,3.6750996112823486,-0.6033388376235962,-8.339004516601562,17.9290771484375,-117.523193359375,36.2701416015625
13.709999900000001,3.2393548488616943,-0.646434485912323,-8.791508674621582,6.5460205078125,-119.049072265625,32.3486328125
13.729999900000001,2.782062292098999,-0.7589619159698486,-9.289502143859863,-22.6593017578125,-110.0311279296875,25.787353515625
13.7499999,2.3558945655822754,-0.8475474119186401,-9.715670585632324,-8.6669921875,-100.921630859375,28.7322998046875
13.7699999,1.9536685943603516,-1.0295066833496094,-9.847352027893066,24.4293212890625,-107.1014404296875,32.1807861328125
13.789999900000002,1.601720929145813,-1.3646949529647827,-9.615114212036133,48.7213134765625,-123.4283447265625,23.162841796875
13.809999900000001,1.1779472827911377,-1.824381709098816,-9.557653427124023,40.6036376953125,-148.62060546875,3.9520263671875
13.8299999,0.7326257228851318,-1.9823989868164062,-10.196905136108398,-20.6146240234375,-151.9012451171875,-2.8533935546875
13.8499999,0.24420857429504395,-1.889025092124939,-10.819397926330566,-27.130126953125,-100.616455078125,5.55419921875
13.8699999,-0.2298433631658554,-1.3982137441635132,-11.686098098754883,2.6702880859375,-85.3118896484375,13.580322265625
13.889999900000001,-0.5746083855628967,-0.9217676520347595,-11.954249382019043,15.777587890625,-106.62841796875,17.1966552734375
13.9099999,-0.7996633648872375,-0.8020575642585754,-11.552022933959961,27.2216796875,-102.6458740234375,13.763427734375
13.9299999,-0.9959878921508789,-0.9888052940368652,-10.982203483581543,24.566650390625,-99.7772216796875,3.0517578125
13.9499999,-1.237802267074585,-1.2018892765045166,-10.556035041809082,27.40478515625,-108.123779296875,-0.7781982421875
13.969999900000001,-1.5658079385757446,-1.290474772453308,-10.311826705932617,36.56005859375,-92.3614501953125,10.7879638671875
13.9899999,-2.0398597717285156,-1.1899182796478271,-10.237606048583984,21.4080810546875,-86.8682861328125,13.7786865234375
14.0099999,-2.427720546722412,-1.1204863786697388,-10.196905136108398,6.4544677734375,-87.6922607421875,23.6663818359375
14.0299999,-2.8227639198303223,-1.259350061416626,-10.11789608001709,13.2598876953125,-91.949462890625,20.3857421875
14.049999900000001,-3.1220390796661377,-1.5083470344543457,-10.08198356628418,3.11279296875,-93.1243896484375,12.664794921875
14.069999900000001,-3.380612850189209,-1.745373010635376,-10.292673110961914,-25.482177734375,-92.8802490234375,11.04736328125
14.0899999,-3.56017804145813,-1.8387469053268433,-10.536881446838379,-33.0963134765625,-77.7740478515625,15.8538818359375
14.1099999,-3.7636849880218506,-1.702277421951294,-10.711658477783203,-24.5513916015625,-73.2574462890625,8.2244873046875
14.129999900000001,-3.9001545906066895,-1.4437036514282227,-10.690110206604004,-13.73291015625,-75.653076171875,10.6964111328125
14.149999900000001,-4.015076160430908,-1.2856862545013428,-10.465055465698242,-28.6407470703125,-82.0465087890625,9.21630859375
14.1699999,-4.151545524597168,-1.1492167711257935,-10.15141487121582,-11.2152099609375,-73.54736328125,4.7607421875
14.1899999,-4.280832767486572,-1.070208191871643,-9.864110946655273,22.2625732421875,-61.1572265625,6.134033203125
14.209999900000001,-4.446032524108887,-1.01753568649292,-9.57441234588623,0.2288818359375,-66.741943359375,5.06591796875
14.229999900000001,-4.63517427444458,-0.9600749015808105,-9.308655738830566,-21.3165283203125,-74.5391845703125,2.5787353515625
14.2499999,-4.838681697845459,-0.9409212470054626,-9.100360870361328,-5.0506591796875,-76.9195556640625,-0.8087158203125
14.2699999,-5.039794445037842,-1.0247182846069336,-8.944737434387207,7.6751708984375,-79.40673828125,-4.7607421875
14.289999900000002,-5.252878665924072,-1.1085153818130493,-8.834604263305664,-21.026611328125,-93.3837890625,-16.6473388671875
14.309999900000001,-5.537788391113281,-1.05105459690094,-8.712499618530273,-76.019287109375,-118.65234375,-41.8701171875
14.3299999,-5.698200225830078,-0.8451532125473022,-8.607154846191406,-87.921142578125,-125.2899169921875,-29.5867919921875
14.3499999,-6.162675380706787,-1.0103530883789062,-8.561665534973145,-66.680908203125,-110.321044921875,52.886962890625
14.3699999,-6.3733649253845215,-0.9385270476341248,-8.525752067565918,-31.8756103515625,-100.006103515625,-11.322021484375
14.389999900000001,-6.818686485290527,-0.9744400978088379,-8.729259490966797,-33.0047607421875,-92.681884765625,-32.4554443359375
14.4099999,-7.139509677886963,-0.7733271718025208,-8.87051773071289,-53.2989501953125,-75.3936767578125,-17.364501953125
14.4299999,-7.357381820678711,-0.4118026793003082,-8.935160636901855,-23.49853515625,-53.6041259765625,-10.955810546875
14.4499999,-7.503427982330322,-0.17717093229293823,-8.655038833618164,-16.41845703125,-45.9442138671875,-20.263671875
14.469999900000001,-7.580042362213135,-0.031124621629714966,-8.214506149291992,-22.5830078125,-59.8602294921875,-33.203125
14.4899999,-7.618350028991699,0.2059013396501541,-7.592013359069824,-57.0831298828125,-78.2318115234375,-0.6103515625
14.5099999,-7.738059997558594,0.1173158809542656,-7.132327079772949,-83.282470703125,-64.605712890625,61.0809326171875
14.5299999,-7.800309181213379,0.2298433631658554,-6.739677906036377,-44.6014404296875,-46.4630126953125,-4.0283203125
14.549999900000001,-7.905653953552246,-0.05027823522686958,-6.385335922241211,-29.5257568359375,-36.6973876953125,-23.162841796875
14.569999900000001,-8.030152320861816,-0.08858546614646912,-6.217741966247559,-36.2548828125,-53.4210205078125,-11.65771484375
14.5899999,-8.178592681884766,0.090979665517807,-6.095637321472168,-32.6385498046875,-49.3927001953125,-7.6904296875
14.6099999,-8.346187591552734,0.3016694188117981,-6.052541732788086,-17.2576904296875,-32.77587890625,3.2806396484375
14.629999900000001,-8.449137687683105,0.42377370595932007,-6.057330131530762,-4.791259765625,-33.4625244140625,-6.9427490234375
14.649999900000001,-8.552088737487793,0.4620809257030487,-5.932831764221191,-19.073486328125,-44.6624755859375,-26.4739990234375
14.6699999,-8.650250434875488,0.47884035110473633,-5.774814605712891,-32.3486328125,-50.445556640625,-24.871826171875
14.6899999,-8.731653213500977,0.6416460275650024,-5.5976433753967285,-28.289794921875,-46.3409423828125,-11.4288330078125
14.709999900000001,-8.860940933227539,0.6991068720817566,-5.348646640777588,-33.9202880859375,-45.9747314453125,3.265380859375
14.729999900000001,-8.904036521911621,0.7829039692878723,-5.118803024291992,-40.4815673828125,-49.224853515625,-12.3291015625
14.7499999,-8.889671325683594,0.5913678407669067,-4.793191909790039,-68.5882568359375,-56.5185546875,-12.26806640625
14.7699999,-8.877699851989746,0.4165911078453064,-4.481945514678955,-79.4830322265625,-54.3670654296875,-11.322021484375
14.789999900000002,-8.911218643188477,0.3471592366695404,-4.271255970001221,-46.630859375,-49.7283935546875,-17.6239013671875
14.809999900000001,-9.011775016784668,0.3447650372982025,-4.046200752258301,-5.7830810546875,-35.09521484375,-15.2740478515625
14.8299999,-9.066842079162598,0.5315127968788147,-3.936067581176758,-1.434326171875,-28.900146484375,-22.5677490234375
14.8499999,-9.155426979064941,0.6775590777397156,-4.046200752258301,-34.5916748046875,-33.0352783203125,-16.510009765625
14.8699999,-9.193734169006348,0.7996633648872375,-4.022258758544922,7.9803466796875,3.509521484375,-14.984130859375
14.889999900000001,-9.265560150146484,0.9097966551780701,-4.027047157287598,41.717529296875,19.744873046875,-20.7366943359375
14.9099999,-9.296685218811035,0.8475474119186401,-3.974374771118164,21.7132568359375,-11.260986328125,-14.2364501953125
14.9299999,-9.299078941345215,0.7876923680305481,-3.7469255924224854,35.003662109375,-1.5106201171875,-7.0343017578125
14.9499999,-9.287108421325684,0.5841852426528931,-3.706224203109741,50.0030517578125,14.251708984375,-9.246826171875
14.969999900000001,-9.260771751403809,0.40462008118629456,-3.6104562282562256,34.48486328125,3.4027099609375,-14.7857666015625
14.9899999,-9.282320022583008,0.4165911078453064,-3.7421371936798096,0.9613037109375,-16.387939453125,-16.4642333984375
15.0099999,-9.318233489990234,0.4381389021873474,-3.737348794937134,-12.298583984375,-10.6201171875,9.002685546875
15.0299999,-9.279925346374512,0.5267243981361389,-3.8594532012939453,-1.7242431640625,-0.5645751953125,15.716552734375
15.049999900000001,-9.210494041442871,0.5602431893348694,-3.912125587463379,22.8271484375,2.74658203125,-3.3721923828125
15.069999900000001,-9.148244857788086,0.5841852426528931,-3.8977603912353516,40.8172607421875,12.298583984375,-2.2735595703125
15.0899999,-9.160215377807617,0.5841852426528931,-3.9480385780334473,11.0321044921875,0.457763671875,24.261474609375
15.1099999,-9.172186851501465,0.5195417404174805,-3.9169139862060547,18.341064453125,8.5601806640625,20.6146240234375
15.129999900000001,-9.11233139038086,0.22744916379451752,-3.8738183975219727,41.259765625,24.4293212890625,-4.1046142578125
15.149999900000001,-9.045293807983398,-0.08140286058187485,-3.711012601852417,33.6761474609375,20.93505859375,-17.486572265625
15.1699999,-8.935160636901855,-0.21308395266532898,-3.6798880100250244,16.78466796875,1.129150390625,0.48828125
15.1899999,-8.908824920654297,-0.08858546614646912,-3.4763808250427246,28.6712646484375,11.260986328125,20.3399658203125
15.209999900000001,-8.975862503051758,0.10773907601833344,-3.5673606395721436,25.5126953125,15.7012939453125,9.1705322265625
15.229999900000001,-9.01895809173584,0.33758243918418884,-3.6990416049957275,-5.1116943359375,-2.38037109375,-23.284912109375
15.2499999,-8.992621421813965,0.3280056416988373,-3.8546648025512695,-4.08935546875,19.53125,-16.082763671875
15.2699999,-8.863334655761719,0.22026655077934265,-4.050989151000977,9.58251953125,41.7022705078125,7.4310302734375
15.289999900000002,-8.698134422302246,0.1364694982767105,-4.314351558685303,25.8941650390625,38.5894775390625,23.0865478515625
15.309999900000001,-8.619126319885254,0.31364041566848755,-4.608838081359863,77.5146484375,51.361083984375,59.783935546875
15.3299999,-8.69334602355957,0.4908113479614258,-4.687847137451172,106.6436767578125,87.371826171875,102.935791015625
15.3499999,-8.786720275878906,0.7350199222564697,-4.876988887786865,57.3272705078125,51.8646240234375,78.8421630859375
15.3699999,-8.901641845703125,0.8954314589500427,-4.876988887786865,14.5111083984375,6.317138671875,46.6461181640625
15.389999900000001,-8.858546257019043,0.6727706789970398,-4.999093055725098,3.6163330078125,12.5579833984375,27.9998779296875
15.4099999,-8.702922821044922,0.4836287498474121,-5.200206279754639,100.1434326171875,35.6292724609375,40.6494140625
15.4299999,-8.540117263793945,0.3687070608139038,-5.5329999923706055,118.0419921875,44.0216064453125,25.2532958984375
15.4499999,-8.327033042907715,0.21547815203666687,-5.748478412628174,54.7332763671875,38.9862060546875,3.326416015625
15.469999900000001,-8.159439086914062,0.038307227194309235,-5.870582580566406,28.3050537109375,42.3736572265625,-17.5933837890625
15.4899999,-7.920019149780273,-0.33997663855552673,-5.940014362335205,28.472900390625,34.2864990234375,-34.1033935546875
15.5099999,-7.879317760467529,-0.5291185975074768,-6.069301128387451,43.243408203125,35.8123779296875,-55.5267333984375
15.5299999,-7.903259754180908,-0.6488286852836609,-6.071695327758789,15.44189453125,39.61181640625,-30.181884765625
15.549999900000001,-8.11634349822998,-0.5339069962501526,-5.925649166107178,-30.5328369140625,22.247314453125,8.23974609375
15.569999900000001,-8.293514251708984,-0.42377370595932007,-5.729324817657471,-58.4564208984375,-13.5345458984375,22.064208984375
15.5899999,-8.374917984008789,-0.3687070608139038,-5.559336185455322,-60.1959228515625,-30.3192138671875,21.9879150390625
15.6099999,-8.341399192810059,-0.3423708379268646,-5.384559631347656,-13.9617919921875,3.6468505859375,19.8822021484375
15.629999900000001,-8.22887134552002,-0.2561795711517334,-5.544970989227295,5.401611328125,12.4969482421875,25.6805419921875
15.649999900000001,-8.157045364379883,-0.13168109953403473,-5.6910176277160645,-21.820068359375,2.3956298828125,27.618408203125
15.6699999,-8.101978302001953,-0.11252748221158981,-5.6455278396606445,-25.8026123046875,15.350341796875,30.3192138671875
15.6899999,-8.030152320861816,-0.19393034279346466,-5.616796970367432,-4.9591064453125,6.04248046875,31.3262939453125
15.709999900000001,-7.9846625328063965,-0.2561795711517334,-5.504269599914551,4.7760009765625,-7.2784423828125,20.6146240234375
15.729999900000001,-7.927201747894287,-0.18914192914962769,-5.386953830718994,8.3160400390625,-1.9989013671875,17.7001953125
15.7499999,-7.876923561096191,0.004788403399288654,-5.281609058380127,24.5819091796875,10.7879638671875,20.1873779296875
15.7699999,-7.836222171783447,0.26575639843940735,-5.140350818634033,26.67236328125,2.105712890625,11.5509033203125
15.789999900000002,-7.807491779327393,0.5482721924781799,-5.0254292488098145,5.096435546875,-4.058837890625,-7.62939453125
15.809999900000001,-7.838616371154785,0.6751648783683777,-4.819528102874756,-14.556884765625,-4.058837890625,-18.8751220703125
15.8299999,-7.8960771560668945,0.6967126727104187,-4.6734819412231445,-8.8653564453125,-23.01025390625,-8.85009765625
15.8499999,-7.975085735321045,0.5937620401382446,-4.843470096588135,13.8702392578125,-54.4281005859375,-1.8310546875
15.869999900000002,-8.118738174438477,0.5003881454467773,-4.953603267669678,35.003662109375,-36.163330078125,0.1678466796875
15.889999900000001,-8.212111473083496,0.4141969084739685,-5.322310447692871,32.196044921875,-18.7835693359375,13.4124755859375
15.9099999,-8.324639320373535,0.42856210470199585,-5.652710437774658,23.13232421875,-35.7666015625,30.6396484375
15.9299999,-8.401253700256348,0.31364041566848755,-5.640739440917969,31.9366455078125,-33.38623046875,37.109375
15.9499999,-8.40843677520752,0.09576806426048279,-5.623979568481445,36.4227294921875,-55.4656982421875,27.2979736328125
15.969999900000001,-8.425195693969727,-0.09576806426048279,-5.549759387969971,37.6129150390625,-61.279296875,14.5111083984375
15.9899999,-8.44195556640625,-0.15801730751991272,-5.609614372253418,21.5911865234375,-32.5927734375,10.7269287109375
16.0099999,-8.508993148803711,-0.06703764945268631,-5.731719017028809,-8.6517333984375,-13.9312744140625,11.4898681640625
16.0299999,-8.588001251220703,0.08379705995321274,-5.78678560256958,-11.4898681640625,-6.8206787109375,8.392333984375
16.0499999,-8.669404029846191,0.10773907601833344,-5.571307182312012,-7.9498291015625,-7.01904296875,3.143310546875
16.0699999,-8.757989883422852,0.05506663769483566,-5.336675643920898,-12.7716064453125,-15.9454345703125,-3.1585693359375
16.089999900000002,-8.829815864562988,0.009576806798577309,-5.147533416748047,-5.0201416015625,-14.007568359375,-4.5166015625
16.109999900000002,-8.882488250732422,0.043095629662275314,-5.109226226806641,2.716064453125,-0.0457763671875,-2.6092529296875
16.1299999,-8.87291145324707,0.12210428714752197,-5.178658485412598,5.584716796875,8.36181640625,-2.6092529296875
16.1499999,-8.81784439086914,0.2082955539226532,-5.197812080383301,4.608154296875,10.7269287109375,-3.997802734375
16.1699999,-8.738836288452148,0.26096799969673157,-5.140350818634033,6.6070556640625,12.5885009765625,-1.9073486328125
16.1899999,-8.702922821044922,0.3280056416988373,-5.03021764755249,6.6986083984375,13.7481689453125,0.1983642578125
16.2099999,-8.712499618530273,0.40701428055763245,-4.924872875213623,8.392333984375,13.4429931640625,2.25830078125
16.2299999,-8.75080680847168,0.4429273009300232,-4.829104900360107,10.650634765625,11.3372802734375,5.2490234375
16.249999900000002,-8.78193187713623,0.3998316824436188,-4.6734819412231445,12.6495361328125,9.735107421875,5.859375
16.269999900000002,-8.78432559967041,0.2992752194404602,-4.577713489532471,-1.8310546875,-0.030517578125,2.38037109375
16.2899999,-8.755595207214355,0.16759411990642548,-4.491522312164307,-9.82666015625,-4.3487548828125,0.3662109375
16.3099999,-8.712499618530273,0.05985504388809204,-4.4723687171936035,6.40869140625,0,0.5645751953125
16.3299999,-8.662221908569336,0.019153613597154617,-4.572925090789795,11.871337890625,-0.9613037109375,-0.701904296875
16.3499999,-8.635885238647461,0.06703764945268631,-4.671087741851807,-2.0294189453125,-0.0152587890625,-4.39453125
16.3699999,-8.643068313598633,0.12928688526153564,-4.702212333679199,-6.927490234375,0.1220703125,-2.0904541015625
16.3899999,-8.65982723236084,0.22026655077934265,-4.7405195236206055,1.7547607421875,-7.537841796875,2.3651123046875
16.4099999,-8.695740699768066,0.3016694188117981,-4.716577529907227,7.4005126953125,-7.32421875,-0.1220703125
16.429999900000002,-8.707711219787598,0.3758896589279175,-4.6950297355651855,5.0201416015625,-2.6092529296875,-3.11279296875
16.4499999,-8.688557624816895,0.44532153010368347,-4.675876140594482,-3.72314453125,-0.8697509765625,-2.25830078125
16.4699999,-8.652645111083984,0.5267243981361389,-4.620809078216553,-1.7547607421875,-1.6021728515625,-0.274658203125
16.4899999,-8.62630844116211,0.5937620401382446,-4.54419469833374,3.021240234375,-3.35693359375,0.1373291015625
16.5099999,-8.621520042419434,0.6344634294509888,-4.496310710906982,2.960205078125,-4.1961669921875,1.2054443359375
16.5299999,-8.671798706054688,0.569819986820221,-4.321534156799316,-2.471923828125,-3.72314453125,3.4332275390625
16.5499999,-8.736441612243652,0.48602294921875,-4.23773717880249,3.0975341796875,-29.1595458984375,5.7830810546875
16.5699999,-8.801085472106934,0.45010992884635925,-4.170699596405029,19.317626953125,-44.830322265625,4.3792724609375
16.589999900000002,-8.848969459533691,0.395043283700943,-4.197035789489746,14.862060546875,-29.6783447265625,3.7841796875
16.609999900000002,-8.851364135742188,0.4572925269603729,-4.400542736053467,12.7716064453125,-18.218994140625,5.6304931640625
16.6299999,-8.83699893951416,0.507570743560791,-4.618414878845215,2.9144287109375,-8.1024169921875,5.9814453125
16.6499999,-8.813055992126465,0.5267243981361389,-4.795586109161377,-4.791259765625,-0.885009765625,6.927490234375
16.6699999,-8.793902397155762,0.4620809257030487,-4.793191909790039,-1.3580322265625,5.7373046875,6.439208984375
16.6899999,-8.801085472106934,0.3734954595565796,-4.759673118591309,-4.33349609375,1.2359619140625,3.204345703125
16.7099999,-8.83699893951416,0.2753331959247589,-4.642356872558594,-4.791259765625,-4.241943359375,0.8087158203125
16.7299999,-8.868123054504395,0.2059013396501541,-4.580107688903809,-1.3427734375,-3.662109375,1.9073486328125
16.749999900000002,-8.87051773071289,0.20111294090747833,-4.570530891418457,-2.9144287109375,-3.6773681640625,2.532958984375
16.769999900000002,-8.83939266204834,0.272938996553421,-4.592078685760498,-8.85009765625,-3.8909912109375,1.129150390625
16.7899999,-8.789113998413086,0.3663128614425659,-4.58968448638916,-11.4898681640625,-1.2359619140625,1.4190673828125
16.8099999,-8.753201484680176,0.4596867263317108,-4.5154643058776855,-4.119873046875,0.6866455078125,2.7313232421875
16.8299999,-8.736441612243652,0.5171475410461426,-4.4077253341674805,1.8463134765625,-4.8370361328125,2.9144287109375
16.8499999,-8.7484130859375,0.5339069962501526,-4.304774761199951,0.823974609375,-9.5977783203125,1.1444091796875
16.8699999,-8.774748802185059,0.49559974670410156,-4.261679172515869,0.67138671875,-7.7667236328125,0.54931640625
16.8899999,-8.813055992126465,0.47165772318840027,-4.290409564971924,3.3721923828125,-3.0364990234375,0.4730224609375
16.9099999,-8.851364135742188,0.4620809257030487,-4.371812343597412,4.7607421875,-2.0294189453125,1.6632080078125
16.929999900000002,-8.87291145324707,0.43095630407333374,-4.426878929138184,2.410888671875,-2.5177001953125,2.50244140625
16.9499999,-8.87291145324707,0.38067805767059326,-4.46518611907959,0.6103515625,-2.38037109375,0.579833984375
16.9699999,-8.87291145324707,0.35913026332855225,-4.489128112792969,1.6632080078125,-1.1138916015625,-2.471923828125
16.9899999,-8.880094528198242,0.3495534360408783,-4.5394062995910645,0.762939453125,0.3814697265625,-0.885009765625
17.0099999,-8.882488250732422,0.33758243918418884,-4.570530891418457,3.2806396484375,3.60107421875,3.265380859375
17.0299999,-8.89685344696045,0.363918662071228,-4.620809078216553,-1.8310546875,6.2255859375,2.227783203125
17.0499999,-8.901641845703125,0.38546648621559143,-4.584896087646484,-4.791259765625,8.1787109375,-0.06103515625
17.0699999,-8.908824920654297,0.3902548849582672,-4.4939165115356445,4.33349609375,5.7220458984375,1.7852783203125
17.089999900000002,-8.923190116882324,0.4596867263317108,-4.458003520965576,5.8135986328125,-0.946044921875,2.7923583984375
17.109999900000002,-8.939949035644531,0.5626373887062073,-4.443638324737549,2.899169921875,-0.6866455078125,3.9825439453125
17.1299999,-8.951920509338379,0.6200982332229614,-4.606443881988525,8.9569091796875,1.5716552734375,6.7291259765625
17.1499999,-8.983044624328613,0.6392518281936646,-5.066130638122559,13.6871337890625,-2.7008056640625,8.8958740234375
17.1699999,-9.038111686706543,0.6488286852836609,-5.839457988739014,5.7373046875,-3.11279296875,9.94873046875
17.1899999,-9.196128845214844,0.7254431247711182,-7.141903877258301,-15.80810546875,-6.4697265625,11.6119384765625
17.2099999,-9.643844604492188,0.45489832758903503,-9.521739959716797,11.566162109375,-26.4434814453125,13.824462890625
17.2299999,-10.680533409118652,-0.47644615173339844,-14.568717002868652,92.4530029296875,-46.2188720703125,0.30517578125
17.249999900000002,-12.770671844482422,-1.479616641998291,-22.41451644897461,-41.0919189453125,17.4407958984375,-27.8472900390625
17.269999900000002,-16.261417388916016,-2.516305923461914,-31.445446014404297,-99.8992919921875,246.2310791015625,-33.7371826171875
17.2899999,-21.62442970275879,-2.96162748336792,-40.418914794921875,-8.148193359375,413.543701171875,-34.454345703125
17.3099999,-28.773515701293945,-2.3774423599243164,-45.8465690612793,15.3045654296875,499.9847412109375,-40.4510498046875
17.3299999,-36.89704132080078,-1.4748282432556152,-46.22964096069336,5.523681640625,499.9847412109375,-38.39111328125
17.3499999,-44.364559173583984,-0.05506663769483566,-41.718963623046875,29.937744140625,499.9847412109375,-37.322998046875
17.3699999,-49.34449768066406,1.5298948287963867,-32.525230407714844,41.1376953125,499.9847412109375,-36.468505859375
17.3899999,-50.53441619873047,3.0382418632507324,-20.760122299194336,-65.0787353515625,499.9847412109375,-15.9912109375
17.409999900000003,-47.61827850341797,3.914519786834717,-7.649474620819092,-65.3076171875,499.9847412109375,12.3748779296875
17.429999900000002,-41.469966888427734,4.156333923339844,3.866635799407959,43.7469482421875,499.9847412109375,9.27734375
17.4499999,-33.50685119628906,3.576937437057495,12.897564888000488,61.431884765625,420.745849609375,-3.5400390625
17.4699999,-25.02419662475586,2.564189910888672,18.476055145263672,45.2117919921875,358.917236328125,5.462646484375
17.4899999,-17.168821334838867,1.5059528350830078,20.925323486328125,10.92529296875,306.0455322265625,11.90185546875
17.5099999,-10.465055465698242,0.363918662071228,21.19108009338379,5.1116943359375,245.391845703125,8.23974609375
17.5299999,-5.114014625549316,-0.5985504388809204,20.140024185180664,24.6124267578125,163.360595703125,-4.94384765625
17.5499999,-1.0773907899856567,-1.3742717504501343,18.17438507080078,38.2537841796875,92.1173095703125,-17.7459716796875
17.5699999,1.7621324062347412,-1.5897499322891235,15.19120979309082,21.2554931640625,41.046142578125,-26.123046875
17.589999900000002,3.708618402481079,-1.558625340461731,11.81059741973877,12.237548828125,31.2957763671875,-17.7459716796875
17.609999900000002,4.946420669555664,-1.1971008777618408,8.135497093200684,24.3377685546875,11.29150390625,-12.26806640625
17.6299999,5.781997203826904,-0.811634361743927,4.8267107009887695,39.8406982421875,-17.120361328125,-19.2108154296875
17.6499999,6.361393928527832,-0.49799394607543945,2.166752576828003,14.83154296875,-28.86962890625,-21.453857421875
17.6699999,6.689399719238281,-0.09576806426048279,-0.24899697303771973,-9.2926025390625,-30.2276611328125,-18.0816650390625
17.6899999,6.92881965637207,0.21787235140800476,-1.9369091987609863,12.5274658203125,-14.22119140625,-8.392333984375
17.7099999,7.0772600173950195,0.5315127968788147,-3.1866824626922607,34.60693359375,-9.5977783203125,-6.1492919921875
17.7299999,7.242460250854492,0.6823474764823914,-3.823540210723877,39.12353515625,-24.23095703125,-11.23046875
17.749999900000002,7.398083209991455,0.667982280254364,-4.077325344085693,29.5867919921875,-30.792236328125,-14.6331787109375
17.769999900000002,7.534552574157715,0.667982280254364,-4.218583583831787,11.2457275390625,-29.5562744140625,-12.8326416015625
17.7899999,7.675810813903809,0.6967126727104187,-4.302380561828613,3.0517578125,-27.5726318359375,-6.8817138671875
17.8099999,7.836222171783447,0.7038952708244324,-4.424484729766846,6.2713623046875,-33.0963134765625,-2.01416015625
17.8299999,8.020575523376465,0.6751648783683777,-4.455609321594238,-4.669189453125,-39.3218994140625,-3.1585693359375
17.8499999,8.202534675598145,0.5339069962501526,-4.618414878845215,-18.9971923828125,-41.3818359375,-4.8675537109375
17.8699999,8.322244644165039,0.3711012601852417,-4.829104900360107,-24.35302734375,-36.1175537109375,-3.5247802734375
17.8899999,8.379706382751465,0.2753331959247589,-5.171475887298584,-24.688720703125,-31.6162109375,-1.6326904296875
17.909999900000003,8.38449478149414,0.22266076505184174,-5.4444146156311035,-11.8255615234375,-26.5655517578125,-1.5869140625
17.929999900000002,8.339004516601562,0.22744916379451752,-5.710171222686768,-2.9754638671875,-31.9061279296875,-4.0435791015625
17.9499999,8.226476669311523,0.2825157940387726,-5.971138954162598,-11.688232421875,-34.24072265625,-4.94384765625
17.9699999,8.085219383239746,0.2968810200691223,-6.210559368133545,-14.923095703125,-25.9552001953125,-1.3275146484375
17.9899999,7.927201747894287,0.26336219906806946,-6.418854713439941,-4.39453125,-17.5628662109375,-0.3204345703125
18.0099999,7.802703380584717,0.17477671802043915,-6.495469093322754,-6.9580078125,-18.1884765625,-2.044677734375
18.0299999,7.714118003845215,0.07661445438861847,-6.426037311553955,-5.55419921875,-20.69091796875,-3.1280517578125
18.0499999,7.659051418304443,0.035913024097681046,-6.196194171905518,0.48828125,-18.1121826171875,-1.0528564453125
18.0699999,7.613561630249023,0.031124621629714966,-5.966350555419922,4.4097900390625,-16.6473388671875,0.8392333984375
18.089999900000002,7.594407558441162,0.05027823522686958,-5.75326681137085,9.246826171875,-19.256591796875,-0.732421875
18.109999900000002,7.587224960327148,0.028730420395731926,-5.585672378540039,-4.3792724609375,-20.660400390625,-3.204345703125
18.1299999,7.577648162841797,0.016759412363171577,-5.499481201171875,-21.8658447265625,-21.3165283203125,-4.852294921875
18.1499999,7.546523571014404,0.10295066982507706,-5.473145008087158,-11.322021484375,-21.6064453125,-6.0577392578125
18.1699999,7.489062786102295,0.23942017555236816,-5.477933406829834,4.2572021484375,-24.4598388671875,-4.730224609375
18.1899999,7.398083209991455,0.4381389021873474,-5.5545477867126465,6.2255859375,-28.62548828125,-1.9989013671875
18.2099999,7.268796443939209,0.5841852426528931,-5.647922039031982,-2.838134765625,-28.4881591796875,0.6256103515625
18.2299999,7.0988078117370605,0.6560112833976746,-5.726930618286133,3.11279296875,-27.2216796875,1.5106201171875
18.249999900000002,6.907271862030029,0.5578489899635315,-5.726930618286133,16.357421875,-29.8919677734375,-0.30517578125
18.269999900000002,6.691793918609619,0.38546648621559143,-5.623979568481445,20.9503173828125,-35.980224609375,-4.8980712890625
18.2899999,6.466738700866699,0.24181437492370605,-5.494692802429199,19.10400390625,-40.6494140625,-8.0413818359375
18.3099999,6.2201361656188965,0.16519992053508759,-5.317522048950195,11.993408203125,-41.3055419921875,-6.0272216796875
18.3299999,5.928043365478516,0.1843535304069519,-5.135562419891357,14.4195556640625,-44.219970703125,-4.39453125
18.3499999,5.5976433753967285,0.20350714027881622,-4.908113479614258,28.9764404296875,-50.72021484375,-7.2174072265625
18.3699999,5.212177276611328,0.181959331035614,-4.702212333679199,35.7818603515625,-60.11962890625,-9.21630859375
18.3899999,4.869806289672852,0.11252748221158981,-4.661510944366455,42.1295166015625,-68.206787109375,-4.6844482421875
18.409999900000003,4.575319290161133,-0.08379705995321274,-4.721365928649902,30.5938720703125,-63.720703125,-1.2664794921875
18.429999900000002,4.381389141082764,-0.26096799969673157,-4.90571928024292,5.615234375,-65.3076171875,-3.2958984375
18.4499999,4.302380561828613,-0.5051765441894531,-5.061342239379883,-11.0931396484375,-74.676513671875,-7.415771484375
18.4699999,4.266467571258545,-0.6248866319656372,-5.279214859008789,12.298583984375,-89.3402099609375,-9.5062255859375
18.4899999,4.261679172515869,-0.6751648783683777,-5.671864032745361,32.2113037109375,-99.6246337890625,-6.7901611328125
18.5099999,4.230554580688477,-0.6320692300796509,-6.301538944244385,24.658203125,-95.64208984375,-2.38037109375
18.5299999,4.141968727111816,-0.6440402865409851,-6.98628044128418,-5.4931640625,-90.484619140625,1.15966796875
18.5499999,4.02465295791626,-0.7086837291717529,-7.63989782333374,3.1890869140625,-96.13037109375,1.28173828125
18.5699999,3.8522706031799316,-0.730231523513794,-8.197746276855469,25.3753662109375,-105.1788330078125,0.335693359375
18.589999900000002,3.6511576175689697,-0.751779317855835,-8.671798706054688,24.84130859375,-100.7843017578125,3.23486328125
18.609999900000002,3.4141316413879395,-0.7829039692878723,-9.160215377807617,9.0179443359375,-92.5750732421875,6.53076171875
18.6299999,3.1531636714935303,-0.849941611289978,-9.593565940856934,-2.1820068359375,-90.301513671875,5.340576171875
18.6499999,2.87064790725708,-0.8331822156906128,-9.995792388916016,3.0670166015625,-93.6279296875,4.0130615234375
18.6699999,2.585737943649292,-0.7110779285430908,-10.383652687072754,25.0396728515625,-94.635009765625,11.444091796875
18.6899999,2.319981336593628,-0.507570743560791,-10.778696060180664,50.7354736328125,-86.4105224609375,23.5748291015625
18.7099999,2.0398597717285156,-0.4405331015586853,-11.065999984741211,32.3333740234375,-77.178955078125,29.0679931640625
18.7299999,1.766920804977417,-0.7182605266571045,-11.243170738220215,26.5655517578125,-84.716796875,24.6124267578125
18.749999900000002,1.4748282432556152,-1.2114660739898682,-11.23598861694336,55.4656982421875,-94.05517578125,14.4195556640625
18.769999900000002,1.158793568611145,-1.7693150043487549,-11.341333389282227,43.060302734375,-96.8170166015625,12.6495361328125
18.7899999,0.8188169598579407,-2.140416383743286,-11.578359603881836,-17.8070068359375,-83.3282470703125,13.85498046875
18.8099999,0.4668693244457245,-2.2409727573394775,-11.96861457824707,-57.3883056640625,-69.3511962890625,12.7410888671875
18.8299999,0.1843535304069519,-2.126051187515259,-12.368446350097656,-25.3753662109375,-64.5904541015625,11.077880859375
18.8499999,-0.026336219161748886,-1.8794482946395874,-12.63899040222168,9.490966796875,-57.220458984375,12.8936767578125
18.8699999,-0.1412578970193863,-1.522712230682373,-12.660538673400879,23.2391357421875,-44.2352294921875,15.289306640625
18.8899999,-0.1867477297782898,-1.2066776752471924,-12.504915237426758,8.72802734375,-40.8172607421875,19.3023681640625
18.909999900000003,-0.1867477297782898,-0.912190854549408,-12.164938926696777,5.6304931640625,-43.5791015625,24.5513916015625
18.929999900000002,-0.1843535304069519,-0.7733271718025208,-11.623848915100098,1.4495849609375,-39.3829345703125,25.1922607421875
18.9499999,-0.2082955539226532,-0.727837324142456,-11.001357078552246,-3.5858154296875,-40.374755859375,26.5960693359375
18.9699999,-0.31124621629714966,-0.790086567401886,-10.500968933105469,3.0059814453125,-45.9136962890625,28.0609130859375
18.9899999,-0.49559974670410156,-0.9097966551780701,-10.141838073730469,4.9285888671875,-42.3583984375,29.9072265625
19.0099999,-0.7230489253997803,-1.0295066833496094,-9.979032516479492,-10.8184814453125,-32.3028564453125,32.04345703125
19.0299999,-0.9409212470054626,-1.113303780555725,-9.880870819091797,-16.0369873046875,-30.242919921875,31.8145751953125
19.0499999,-1.1109095811843872,-1.2282254695892334,-9.706093788146973,-4.9591064453125,-36.9873046875,30.792236328125
19.0699999,-1.2713210582733154,-1.2689268589019775,-9.5624418258667,-15.9454345703125,-46.3409423828125,27.1759033203125
19.089999900000002,-1.3910311460494995,-1.2473790645599365,-9.461885452270508,-30.029296875,-42.41943359375,27.4505615234375
19.109999900000002,-1.556231141090393,-1.1516109704971313,-9.409213066101074,-28.6102294921875,-35.003662109375,31.7840576171875
19.1299999,-1.745373010635376,-0.9888052940368652,-9.459490776062012,-5.43212890625,-42.236328125,34.027099609375
19.1499999,-1.968033790588379,-0.8690952062606812,-9.473855972290039,18.096923828125,-46.0968017578125,31.2957763671875
19.1699999,-2.207453966140747,-0.8403648138046265,-9.53849983215332,6.378173828125,-43.3197021484375,28.717041015625
19.1899999,-2.3965959548950195,-0.8762778043746948,-9.636661529541016,1.9989013671875,-35.308837890625,26.702880859375
19.2099999,-2.5258827209472656,-0.9050082564353943,-9.694122314453125,5.157470703125,-31.951904296875,23.223876953125
19.2299999,-2.5929205417633057,-0.8690952062606812,-9.684545516967773,7.1563720703125,-34.8968505859375,20.4925537109375
19.249999900000002,-2.6240451335906982,-0.8331822156906128,-9.567230224609375,15.777587890625,-35.70556640625,23.37646484375
19.269999900000002,-2.6575639247894287,-0.871489405632019,-9.378087997436523,28.3966064453125,-35.125732421875,22.5830078125
19.2899999,-2.719813108444214,-1.0127472877502441,-9.191340446472168,38.57421875,-37.750244140625,17.4713134765625
19.3099999,-2.846705913543701,-1.1276689767837524,-9.078812599182129,38.26904296875,-42.0379638671875,14.46533203125
19.3299999,-3.0142998695373535,-1.2473790645599365,-9.05247688293457,41.3055419921875,-39.7796630859375,20.0958251953125
19.3499999,-3.2130186557769775,-1.3215993642807007,-9.119514465332031,24.1546630859375,-34.576416015625,22.7813720703125
19.3699999,-3.375824451446533,-1.4652514457702637,-9.272743225097656,-21.42333984375,-31.8603515625,18.4173583984375
19.3899999,-3.4524388313293457,-1.647210717201233,-9.493009567260742,-3.0975341796875,-27.801513671875,13.8092041015625
19.409999900000003,-3.4308910369873047,-1.766920804977417,-9.550470352172852,61.21826171875,-14.8162841796875,11.7034912109375
19.429999900000002,-3.3231520652770996,-1.702277421951294,-9.605537414550781,63.8427734375,-21.3165283203125,16.1895751953125
19.4499999,-3.1699230670928955,-1.5107412338256836,-9.50737476348877,25.93994140625,-28.7628173828125,21.0113525390625
19.4699999,-3.002328872680664,-1.2952631711959839,-9.387664794921875,7.1868896484375,-29.5562744140625,21.1944580078125
19.4899999,-2.8562827110290527,-1.1085153818130493,-9.287108421325684,25.9246826171875,-25.115966796875,19.561767578125
19.5099999,-2.7916390895843506,-1.072602391242981,-9.21288776397705,41.0003662109375,-22.3388671875,25.0091552734375
19.5299999,-2.762908697128296,-1.173158884048462,-9.229647636413574,29.8919677734375,-27.2064208984375,33.1878662109375
19.5499999,-2.8107926845550537,-1.381454348564148,-9.301473617553711,-11.688232421875,-23.0560302734375,25.390625
19.5699999,-2.8802247047424316,-1.6855180263519287,-9.5624418258667,-23.1170654296875,-12.0849609375,15.350341796875
19.589999900000002,-2.9448680877685547,-1.7980455160140991,-9.823410034179688,-1.4190673828125,6.927490234375,5.43212890625
19.609999900000002,-3.069366693496704,-1.802833914756775,-9.926360130310059,-31.4483642578125,18.0206298828125,-1.9683837890625
19.6299999,-3.179499864578247,-1.6543933153152466,-10.06043529510498,-51.20849609375,3.631591796875,3.814697265625
19.6499999,-3.375824451446533,-1.3623007535934448,-9.710882186889648,40.7562255859375,10.3759765625,10.345458984375
19.6699999,-3.4787750244140625,-1.3455413579940796,-9.48343276977539,82.0770263671875,-3.5552978515625,26.9317626953125
19.6899999,-3.552995204925537,-1.4173674583435059,-9.148244857788086,56.182861328125,-16.4794921875,27.374267578125
19.7099999,-3.5051112174987793,-1.625662922859192,-8.959102630615234,23.345947265625,-16.510009765625,15.7928466796875
19.7299999,-3.44765043258667,-1.8602946996688843,-8.978256225585938,-1.5411376953125,-15.9759521484375,11.749267578125
19.749999900000002,-3.4308910369873047,-1.9297266006469727,-9.095572471618652,14.5111083984375,-17.39501953125,20.4315185546875
19.769999900000002,-3.4955344200134277,-1.9728221893310547,-9.155426979064941,14.862060546875,-23.3612060546875,29.388427734375
19.7899999,-3.6391866207122803,-2.0254945755004883,-9.157821655273438,18.463134765625,-31.0211181640625,29.205322265625
19.8099999,-3.797203779220581,-2.183511972427368,-8.978256225585938,28.228759765625,-26.9775390625,19.5770263671875
19.8299999,-3.9217023849487305,-2.33913516998291,-8.848969459533691,5.6304931640625,-30.0445556640625,14.4805908203125
19.8499999,-3.957615375518799,-2.3918075561523438,-8.779537200927734,-10.2386474609375,-37.841796875,21.5606689453125
19.8699999,-3.955221176147461,-2.3726539611816406,-8.769960403442383,-10.80322265625,-32.7911376953125,22.247314453125
19.8899999,-3.974374771118164,-2.3558945655822754,-8.796297073364258,-3.0670166015625,-28.778076171875,17.02880859375
19.909999900000003,-4.1180267333984375,-2.363077163696289,-8.789113998413086,23.6358642578125,-29.9530029296875,12.6953125
19.929999900000002,-4.383783340454102,-2.4660277366638184,-8.676587104797363,48.736572265625,-28.167724609375,11.0626220703125
19.9499999,-4.8722004890441895,-2.367865562438965,-8.760383605957031,47.0123291015625,-26.763916015625,-0.6866455078125
19.9699999,-5.1810526847839355,-2.3942017555236816,-8.868123054504395,1.8157958984375,-28.1982421875,7.8582763671875
19.9899999,-5.408501625061035,-2.3582887649536133,-9.196128845214844,-30.364990234375,-24.5208740234375,12.4664306640625
20.0099999,-5.418078422546387,-2.3750481605529785,-9.469067573547363,-3.2958984375,-15.6402587890625,4.3792724609375
20.0299999,-5.3127336502075195,-2.432508945465088,-9.667786598205566,6.195068359375,-10.7574462890625,4.4708251953125
20.0499999,-5.2672438621521,-2.492363929748535,-9.57441234588623,-4.7149658203125,-7.7362060546875,8.5601806640625
