# Time (seconds),Accel_X,Accel_Y,Accel_Z,Gyro_X,Gyro_Y,Gyro_Z
0.0099999,2.0398597717285156,-9.07641887664795,-2.985569477081299,-68.7103271484375,-1.800537109375,-5.8746337890625
0.029999900000000003,2.1140801906585693,-8.559270858764648,-3.3494882583618164,17.1356201171875,35.70556640625,3.7689208984375
0.0499999,2.1787235736846924,-8.60236644744873,-3.339911460876465,49.896240234375,42.449951171875,8.087158203125
0.0699999,2.2649147510528564,-8.702922821044922,-3.071760892868042,-24.810791015625,26.8096923828125,-4.1961669921875
0.08999990000000001,2.3056161403656006,-8.863334655761719,-2.87064790725708,7.2784423828125,19.3023681640625,-19.83642578125
0.10999990000000001,2.451662540435791,-9.062053680419922,-2.583343744277954,45.22705078125,34.5458984375,0.9307861328125
0.1299999,2.5043349266052246,-9.095572471618652,-2.5450363159179688,20.8740234375,36.68212890625,6.5765380859375
0.14999990000000002,2.564189910888672,-9.114726066589355,-2.43011474609375,-16.6778564453125,38.0859375,3.875732421875
0.1699999,2.6240451335906982,-9.222464561462402,-2.5234885215759277,-29.5867919921875,30.33447265625,16.632080078125
0.1899999,2.5546131134033203,-9.220070838928223,-2.4899697303771973,-53.5736083984375,28.86962890625,10.8642578125
0.20999990000000002,2.4827871322631836,-9.308655738830566,-2.126051187515259,-68.9849853515625,43.304443359375,16.7694091796875
0.2299999,2.38462495803833,-9.361329078674316,-2.073378562927246,26.6571044921875,7.293701171875,24.505615234375
0.2499999,2.276885747909546,-9.318233489990234,-2.078166961669922,-8.1787109375,-16.1285400390625,13.1683349609375
0.2699999,2.229001760482788,-9.394847869873047,-2.1164743900299072,-77.6519775390625,22.430419921875,20.9808349609375
0.28999990000000003,2.183511972427368,-9.445125579833984,-2.4588451385498047,-13.0462646484375,18.2342529296875,24.0325927734375
0.3099999,2.145204782485962,-9.445125579833984,-2.7078421115875244,47.2259521484375,-10.589599609375,4.3182373046875
0.3299999,2.1308395862579346,-9.564835548400879,-2.7988216876983643,14.34326171875,-1.9989013671875,8.026123046875
0.34999990000000003,2.0901381969451904,-9.50498104095459,-2.782062292098999,-9.9639892578125,14.0838623046875,7.9803466796875
0.3699999,2.1116859912872314,-9.583989143371582,-2.8131868839263916,67.8863525390625,0.457763671875,6.34765625
0.3899999,2.1045033931732178,-9.57441234588623,-2.6431987285614014,112.2894287109375,-8.1939697265625,-2.532958984375
0.40999990000000003,2.1332337856292725,-9.624691009521484,-2.4899697303771973,109.3902587890625,6.6986083984375,-5.096435546875
0.4299999,2.1595699787139893,-9.641449928283691,-2.3343467712402344,82.122802734375,10.345458984375,3.814697265625
0.4499999,2.183511972427368,-9.612719535827637,-2.1739351749420166,50.5218505859375,-4.5166015625,2.0294189453125
0.4699999,2.2218191623687744,-9.603142738342285,-2.0925323963165283,57.830810546875,-11.0931396484375,2.62451171875
0.4899999,2.2433669567108154,-9.615114212036133,-2.032677173614502,53.558349609375,8.60595703125,7.38525390625
0.5099999,2.2457611560821533,-9.583989143371582,-2.0231003761291504,35.2783203125,29.693603515625,4.3792724609375
0.5299999,2.1978771686553955,-9.569623947143555,-1.8507179021835327,10.6201171875,27.0233154296875,4.425048828125
0.5499999,2.1284453868865967,-9.53849983215332,-1.3551181554794312,-1.4190673828125,21.728515625,3.875732421875
0.5699999,1.98958158493042,-9.399636268615723,-0.7038952708244324,-5.9967041015625,-0.5950927734375,0.518798828125
0.5899998999999999,1.9273324012756348,-9.346963882446289,-0.24420857429504395,14.312744140625,-18.2037353515625,17.822265625
0.6099998999999999,1.8267759084701538,-9.27034854888916,-0.10773907601833344,-5.67626953125,-19.8822021484375,24.6429443359375
0.6299999,1.8267759084701538,-9.255983352661133,-0.4572925269603729,-42.572021484375,-10.8489990234375,21.331787109375
0.6499999,1.800439715385437,-9.301473617553711,-0.9696516990661621,-52.55126953125,-0.7781982421875,27.679443359375
0.6699999,1.7573440074920654,-9.363722801208496,-1.3623007535934448,-41.351318359375,2.471923828125,31.4788818359375
0.6899999,1.7094600200653076,-9.495404243469238,-1.6184803247451782,18.1427001953125,1.2359619140625,20.4620361328125
0.7099999,1.659181833267212,-9.526528358459473,-1.5107412338256836,33.538818359375,7.659912109375,4.08935546875
0.7299998999999999,1.580173134803772,-9.548076629638672,-1.115697979927063,43.1060791015625,7.62939453125,12.4969482421875
0.7499998999999999,1.4676456451416016,-9.476250648498535,-0.9074024558067322,99.9908447265625,-27.52685546875,34.423828125
0.7699999,1.357512354850769,-9.5624418258667,-0.6727706789970398,132.4310302734375,-7.26318359375,39.0777587890625
0.7899999,1.292868971824646,-9.847352027893066,-0.44532153010368347,36.68212890625,31.25,9.307861328125
0.8099999,1.2497732639312744,-10.146626472473145,-0.524330198764801,-16.2200927734375,-4.425048828125,-23.6663818359375
0.8299999,1.2832920551300049,-10.357316970825195,-0.5674257874488831,-13.153076171875,-22.8271484375,-19.134521484375
0.8499998999999999,1.3072341680526733,-10.345345497131348,-0.5386953949928284,-35.8734130859375,6.317138671875,3.3721923828125
0.8699998999999999,1.3287819623947144,-10.170568466186523,-0.5291185975074768,-46.661376953125,21.1029052734375,-2.9449462890625
0.8899999,1.3838485479354858,-10.067618370056152,-0.38307225704193115,-25.1617431640625,7.5225830078125,-18.341064453125
0.9099999,1.4173674583435059,-9.921571731567383,-0.14604631066322327,-31.1279296875,-3.1890869140625,-26.55029296875
0.9299999,1.4317326545715332,-9.75397777557373,-0.11971008777618408,-54.26025390625,-8.5296630859375,-16.0369873046875
0.9499999,1.4532804489135742,-9.653421401977539,-0.38307225704193115,-51.69677734375,-4.5013427734375,4.5318603515625
0.9699998999999999,1.4532804489135742,-9.500192642211914,-0.7038952708244324,-34.271240234375,18.341064453125,-3.0059814453125
0.9899998999999999,1.4963760375976562,-9.490615844726562,-0.9672574996948242,-28.3660888671875,20.3399658203125,-7.781982421875
1.0099999,1.534683346748352,-9.509769439697266,-1.0414776802062988,-16.29638671875,5.5694580078125,-1.5106201171875
1.0299999,1.5490485429763794,-9.497797966003418,-0.9552865028381348,-21.514892578125,-1.9073486328125,-2.8839111328125
1.0499999,1.5634137392044067,-9.524134635925293,-0.9169792532920837,-22.3236083984375,-4.5928955078125,-2.8839111328125
1.0699999,1.5753847360610962,-9.548076629638672,-1.0199298858642578,-19.0887451171875,-6.3934326171875,-3.662109375
1.0899999,1.601720929145813,-9.576807022094727,-1.1851298809051514,-14.6942138671875,1.1138916015625,-4.638671875
1.1099999,1.6280571222305298,-9.588777542114258,-1.4077905416488647,-8.3160400390625,4.669189453125,-4.4097900390625
1.1299999,1.6543933153152466,-9.576807022094727,-1.6424223184585571,-3.509521484375,0.5950927734375,-3.3111572265625
1.1499999,1.6759412288665771,-9.579200744628906,-1.7693150043487549,-5.5999755859375,6.439208984375,-1.40380859375
1.1699998999999999,1.680729627609253,-9.57441234588623,-1.8483237028121948,-8.7127685546875,9.33837890625,-0.9613037109375
1.1899998999999999,1.6831238269805908,-9.57441234588623,-1.86508309841156,-8.1024169921875,4.6234130859375,-1.6632080078125
1.2099999,1.6831238269805908,-9.564835548400879,-1.843535304069519,-8.23974609375,2.593994140625,-1.3275146484375
1.2299999,1.6831238269805908,-9.536105155944824,-1.8195933103561401,-9.33837890625,4.364013671875,-2.197265625
1.2499999,1.6974890232086182,-9.5408935546875,-1.8531121015548706,-5.9814453125,4.608154296875,0.8697509765625
1.2699999,1.7142484188079834,-9.548076629638672,-1.8938134908676147,-4.730224609375,5.3863525390625,0.9002685546875
1.2899999,1.7381904125213623,-9.581595420837402,-1.941697597503662,-4.69970703125,6.2255859375,-1.0528564453125
1.3099999,1.7549498081207275,-9.617507934570312,-1.9273324012756348,-9.613037109375,6.7596435546875,-1.617431640625
1.3299999,1.7621324062347412,-9.627084732055664,-1.900996208190918,-5.340576171875,3.2806396484375,-2.6397705078125
1.3499999,1.7549498081207275,-9.610325813293457,-1.8363527059555054,1.6021728515625,1.7242431640625,-2.8839111328125
1.3699999,1.7477672100067139,-9.583989143371582,-1.7908629179000854,3.021240234375,1.46484375,-1.7547607421875
1.3899999,1.7405846118927002,-9.550470352172852,-1.8195933103561401,3.8299560546875,0.1373291015625,-1.77001953125
1.4099999,1.7357962131500244,-9.531316757202148,-1.8602946996688843,2.38037109375,3.387451171875,-3.936767578125
1.4299998999999999,1.7334020137786865,-9.512163162231445,-1.8626888990402222,-0.48828125,8.3160400390625,-3.509521484375
1.4499999,1.7262194156646729,-9.495404243469238,-1.8363527059555054,0.7171630859375,3.4332275390625,-2.197265625
1.4699999,1.7190368175506592,-9.464279174804688,-1.7357962131500244,-0.518798828125,-0.457763671875,-1.9073486328125
1.4899999,1.723825216293335,-9.459490776062012,-1.678335428237915,-0.1678466796875,-2.899169921875,-0.457763671875
1.5099999,1.723825216293335,-9.433155059814453,-1.656787633895874,-0.18310546875,-0.67138671875,-2.0904541015625
1.5299999,1.7334020137786865,-9.421183586120605,-1.7190368175506592,-1.9989013671875,0.3662109375,-2.0599365234375
1.5499999,1.7477672100067139,-9.425971984863281,-1.7812861204147339,0.762939453125,2.593994140625,1.2054443359375
1.5699999,1.7573440074920654,-9.428366661071777,-1.8100165128707886,-2.4871826171875,3.570556640625,0.4425048828125
1.5899999,1.7621324062347412,-9.425971984863281,-1.8291701078414917,-1.5716552734375,-0.48828125,-2.4871826171875
1.6099999,1.7693150043487549,-9.442731857299805,-1.7956513166427612,-2.0904541015625,0.091552734375,-0.5035400390625
1.6299999,1.764526605606079,-9.442731857299805,-1.8100165128707886,-0.8697509765625,-0.3204345703125,1.0528564453125
1.6499999,1.7597382068634033,-9.445125579833984,-1.8339585065841675,-2.6092529296875,0.0762939453125,0.152587890625
1.6699999,1.7573440074920654,-9.454702377319336,-1.843535304069519,-5.6915283203125,2.8533935546875,0.3662109375
1.6899998999999999,1.764526605606079,-9.485827445983887,-1.8387469053268433,-4.57763671875,1.6021728515625,2.3193359375
1.7099999,1.764526605606079,-9.502586364746094,-1.8483237028121948,-3.7078857421875,-3.143310546875,1.03759765625
1.7299999,1.764526605606079,-9.528923034667969,-1.8195933103561401,-3.326416015625,1.2359619140625,0.0152587890625
1.7499999,1.7693150043487549,-9.57441234588623,-1.802833914756775,0.274658203125,4.3182373046875,1.922607421875
1.7699999,1.766920804977417,-9.59835433959961,-1.7812861204147339,0.9613037109375,-0.6256103515625,0.2593994140625
1.7899999,1.7693150043487549,-9.619902610778809,-1.7764976024627686,-1.251220703125,-4.6539306640625,-2.0294189453125
1.8099999,1.766920804977417,-9.59835433959961,-1.8100165128707886,-1.9683837890625,-1.708984375,-2.13623046875
1.8299999,1.7621324062347412,-9.543288230895996,-1.8722656965255737,-1.0223388671875,2.655029296875,-0.79345703125
1.8499999,1.7621324062347412,-9.490615844726562,-1.941697597503662,1.0833740234375,1.2359619140625,1.068115234375
1.8699999,1.7717092037200928,-9.454702377319336,-1.9584569931030273,0.5035400390625,1.03759765625,0.1068115234375
1.8899999,1.7884687185287476,-9.445125579833984,-1.9776105880737305,2.0751953125,0.1068115234375,-1.3885498046875
1.9099999,1.8052281141281128,-9.442731857299805,-1.965639591217041,2.4566650390625,2.4566650390625,-0.823974609375
1.9299998999999999,1.8171991109848022,-9.440337181091309,-1.9512743949890137,-0.274658203125,3.021240234375,0.457763671875
1.9499999,1.824381709098816,-9.442731857299805,-1.944091796875,-0.823974609375,0.1373291015625,0.518798828125
1.9699999,1.8315643072128296,-9.452308654785156,-1.9129672050476074,-2.0904541015625,1.46484375,0.244140625
1.9899999,1.843535304069519,-9.495404243469238,-1.9153614044189453,-2.960205078125,1.2054443359375,1.2359619140625
2.0099999,1.8483237028121948,-9.509769439697266,-1.9129672050476074,-3.84521484375,1.8157958984375,-0.0457763671875
2.0299999,1.8579005002975464,-9.545681953430176,-1.900996208190918,-5.096435546875,2.3345947265625,0.335693359375
2.0499999,1.8579005002975464,-9.567230224609375,-1.889025092124939,-3.9825439453125,0.762939453125,0.9002685546875
2.0699999,1.845929503440857,-9.557653427124023,-1.8746598958969116,-0.3509521484375,1.0986328125,-0.79345703125
2.0899999,1.8363527059555054,-9.557653427124023,-1.8602946996688843,1.6632080078125,2.50244140625,0.518798828125
2.1099999,1.824381709098816,-9.533711433410645,-1.8602946996688843,0.1678466796875,1.6021728515625,1.678466796875
2.1299999,1.8171991109848022,-9.533711433410645,-1.8411411046981812,-0.5340576171875,1.190185546875,1.2664794921875
2.1499999,1.8124107122421265,-9.536105155944824,-1.824381709098816,0.8392333984375,0.30517578125,0.18310546875
2.1699999,1.8124107122421265,-9.557653427124023,-1.8291701078414917,3.204345703125,-1.2054443359375,-0.152587890625
2.1899999,1.800439715385437,-9.552865028381348,-1.8291701078414917,3.875732421875,1.983642578125,-0.518798828125
2.2099999,1.7932571172714233,-9.557653427124023,-1.821987509727478,4.852294921875,3.082275390625,-0.0152587890625
2.2299999,1.7717092037200928,-9.521739959716797,-1.8195933103561401,10.0860595703125,0.5950927734375,-0.946044921875
2.2499999,1.7597382068634033,-9.500192642211914,-1.800439715385437,13.4429931640625,1.2969970703125,-0.1220703125
2.2699999,1.7501614093780518,-9.47146224975586,-1.7717092037200928,11.0931396484375,3.692626953125,1.434326171875
2.2899999,1.7501614093780518,-9.469067573547363,-1.7573440074920654,8.8348388671875,2.01416015625,1.6326904296875
2.3099999,1.7525556087493896,-9.469067573547363,-1.7118542194366455,8.026123046875,0.1373291015625,0.1068115234375
2.3299999,1.7549498081207275,-9.490615844726562,-1.6831238269805908,15.533447265625,1.1138916015625,0.4730224609375
2.3499999,1.7621324062347412,-9.512163162231445,-1.6711528301239014,16.17431640625,1.1444091796875,1.28173828125
2.3699999,1.764526605606079,-9.519346237182617,-1.6711528301239014,16.571044921875,2.5787353515625,-0.7171630859375
2.3899999,1.7741034030914307,-9.543288230895996,-1.6615760326385498,11.53564453125,2.716064453125,-0.5950927734375
2.4099999,1.778891921043396,-9.560047149658203,-1.659181833267212,13.8702392578125,1.4495849609375,-0.274658203125
2.4299999,1.7812861204147339,-9.583989143371582,-1.623268723487854,7.4615478515625,1.5411376953125,-0.8697509765625
2.4499999,1.7764976024627686,-9.59596061706543,-1.5873557329177856,3.84521484375,2.6397705078125,-1.77001953125
2.4699999,1.7693150043487549,-9.593565940856934,-1.5275006294250488,-1.1138916015625,1.6632080078125,-1.068115234375
2.4899999,1.7501614093780518,-9.557653427124023,-1.4844050407409668,5.67626953125,-0.2899169921875,-0.335693359375
2.5099999,1.7477672100067139,-9.567230224609375,-1.434126853942871,8.8653564453125,1.7852783203125,2.50244140625
2.5299999,1.742978811264038,-9.555258750915527,-1.4269442558288574,4.7149658203125,1.1138916015625,0.2288818359375
2.5499999,1.7501614093780518,-9.581595420837402,-1.403002142906189,-1.0833740234375,1.5869140625,-1.251220703125
2.5699999,1.764526605606079,-9.610325813293457,-1.3958195447921753,-2.3345947265625,0.640869140625,0.6256103515625
2.5899999,1.7764976024627686,-9.612719535827637,-1.3934253454208374,-0.5035400390625,-1.0528564453125,-0.5340576171875
2.6099999,1.7860745191574097,-9.605537414550781,-1.381454348564148,-1.6326904296875,1.5411376953125,-1.373291015625
2.6299999,1.7932571172714233,-9.593565940856934,-1.3862427473068237,-2.38037109375,2.0751953125,-0.5035400390625
2.6499999,1.7860745191574097,-9.560047149658203,-1.3910311460494995,-0.6866455078125,-0.3814697265625,0.2288818359375
2.6699999,1.7741034030914307,-9.53849983215332,-1.3742717504501343,0.18310546875,0.4119873046875,0.2593994140625
2.6899999,1.7693150043487549,-9.531316757202148,-1.381454348564148,0.1678466796875,-0.152587890625,1.0223388671875
2.7099999,1.766920804977417,-9.533711433410645,-1.400607943534851,0.6256103515625,-0.4730224609375,0.396728515625
2.7299999,1.7741034030914307,-9.550470352172852,-1.4245500564575195,1.64794921875,1.7547607421875,0.640869140625
2.7499999,1.7764976024627686,-9.564835548400879,-1.4484920501708984,3.1890869140625,2.685546875,0.91552734375
2.7699999,1.7693150043487549,-9.57201862335205,-1.414973258972168,3.448486328125,4.3792724609375,2.0599365234375
2.7899999,1.7717092037200928,-9.607931137084961,-1.3623007535934448,3.021240234375,1.7852783203125,3.90625
2.8099999,1.7621324062347412,-9.617507934570312,-1.2952631711959839,0.79345703125,-1.89208984375,0.9307861328125
2.8299999,1.766920804977417,-9.655815124511719,-1.2425906658172607,2.1209716796875,-0.1220703125,0.91552734375
2.8499999,1.7717092037200928,-9.696516990661621,-1.2306196689605713,5.7525634765625,1.7242431640625,2.0904541015625
2.8699999,1.7717092037200928,-9.720458984375,-1.2282254695892334,5.18798828125,1.861572265625,0.091552734375
2.8899999,1.7764976024627686,-9.75397777557373,-1.237802267074585,6.5155029296875,0.640869140625,0.06103515625
2.9099999,1.7836803197860718,-9.785101890563965,-1.2330138683319092,8.697509765625,1.0833740234375,0.9613037109375
2.9299999,1.7860745191574097,-9.797073364257812,-1.2330138683319092,4.9285888671875,0.8392333984375,-0.762939453125
2.9499999,1.7932571172714233,-9.813833236694336,-1.2186486721038818,6.072998046875,1.4495849609375,-1.8768310546875
2.9699999,1.7908629179000854,-9.799467086791992,-1.2090718746185303,6.0577392578125,0.579833984375,-2.7313232421875
2.9899999,1.7884687185287476,-9.782708168029785,-1.1803414821624756,9.063720703125,1.5411376953125,-2.13623046875
3.0099999,1.7836803197860718,-9.751583099365234,-1.1444283723831177,10.7574462890625,2.838134765625,-1.7547607421875
3.0299999,1.7860745191574097,-9.758766174316406,-1.1085153818130493,12.5274658203125,1.7242431640625,-2.685546875
3.0499999,1.824381709098816,-9.873687744140625,-1.048660397529602,26.7791748046875,4.3182373046875,-4.6539306640625
3.0699999,1.920149803161621,-10.232817649841309,-0.9552865028381348,77.789306640625,17.3797607421875,-12.7105712890625
3.0899999,2.032677173614502,-10.630255699157715,-0.849941611289978,128.2501220703125,26.1383056640625,-35.614013671875
3.1099999,2.1739351749420166,-11.075576782226562,-0.6775590777397156,99.1363525390625,21.7132568359375,-55.8929443359375
3.1299999,2.4396915435791016,-11.824962615966797,-0.304063618183136,47.698974609375,24.7955322265625,-55.84716796875
3.1499999,2.6599581241607666,-12.476184844970703,0.23942017555236816,35.400390625,15.289306640625,-109.9700927734375
3.1699999,2.875436305999756,-12.990938186645508,0.9169792532920837,27.618408203125,-14.4195556640625,-185.699462890625
3.1899999,3.0789434909820557,-13.390769958496094,1.745373010635376,40.283203125,-19.2413330078125,-193.756103515625
3.2099999,3.1196448802948,-13.132196426391602,2.4588451385498047,42.96875,-39.00146484375,-209.89990234375
3.2299999,3.1747114658355713,-12.504915237426758,3.0406360626220703,46.0052490234375,-71.3958740234375,-237.579345703125
3.2499999,3.2848446369171143,-11.769895553588867,3.450044631958008,46.539306640625,-94.9554443359375,-233.2000732421875
3.2699999,3.2632968425750732,-10.232817649841309,3.421314239501953,75.5157470703125,-118.499755859375,-261.41357421875
3.2899999,3.3039982318878174,-8.010998725891113,2.9879636764526367,84.5184326171875,-124.0386962890625,-242.7520751953125
3.3099999,3.4524388313293457,-5.6191911697387695,2.3247697353363037,66.46728515625,-110.1531982421875,-116.058349609375
3.3299999000000002,3.778050184249878,-3.339911460876465,1.6208745241165161,53.4515380859375,-115.325927734375,-49.4842529296875
3.3499999,4.2951979637146,-1.9177556037902832,1.091755986213684,93.841552734375,-130.096435546875,-47.9736328125
3.3699999,4.9152960777282715,-1.6136919260025024,0.6200982332229614,118.865966796875,-148.712158203125,-17.364501953125
3.3899999,5.410895824432373,-1.9057846069335938,0.1173158809542656,93.0023193359375,-148.7579345703125,25.848388671875
3.4099999,5.698200225830078,-2.3942017555236816,-0.5123591423034668,61.4166259765625,-130.9661865234375,45.257568359375
3.4299999,5.918466567993164,-3.294421434402466,-1.0965443849563599,31.524658203125,-119.3389892578125,74.3560791015625
3.4499999,5.983109951019287,-4.1156325340271,-1.455674648284912,-22.0489501953125,-132.8887939453125,77.6824951171875
3.4699999,5.935225963592529,-4.8482584953308105,-1.7501614093780518,7.4462890625,-145.8892822265625,64.4378662109375
3.4899999,5.69580602645874,-5.161899089813232,-1.9536685943603516,35.8428955078125,-135.6201171875,85.8612060546875
3.5099999,5.2696380615234375,-5.262455463409424,-2.1068975925445557,8.7432861328125,-111.6943359375,127.1820068359375
3.5299999,4.876988887786865,-5.762843608856201,-2.0805611610412598,-44.8455810546875,-119.7662353515625,163.9862060546875
3.5499999,4.467580318450928,-6.402095317840576,-1.8698714971542358,-52.9327392578125,-149.90234375,120.78857421875
3.5699999,4.101267337799072,-7.16584587097168,-1.764526605606079,-6.6070556640625,-178.9398193359375,84.8388671875
3.5899999,3.670311212539673,-7.632715225219727,-2.094926595687866,45.22705078125,-171.69189453125,117.4774169921875
3.6099999,3.0885202884674072,-7.524975776672363,-2.7988216876983643,27.7557373046875,-140.777587890625,159.60693359375
3.6299999,2.4420857429504395,-7.4316020011901855,-3.600879430770874,-21.1639404296875,-123.3062744140625,171.08154296875
3.6499999,1.7980455160140991,-7.548917770385742,-4.24970817565918,-38.3453369140625,-147.76611328125,159.8663330078125
3.6699999,1.1563993692398071,-7.90086555480957,-4.884171485900879,34.6832275390625,-164.0472412109375,159.7747802734375
3.6899999,0.6009446382522583,-8.523358345031738,-5.602431774139404,69.305419921875,-117.5689697265625,181.854248046875
3.7099999,-0.08858546614646912,-8.544905662536621,-6.335057735443115,36.1175537109375,-44.2352294921875,175.1251220703125
3.7299999,-0.7805097699165344,-8.592789649963379,-7.103596210479736,61.8896484375,-12.14599609375,197.845458984375
3.7499999,-1.5490485429763794,-8.38449478149414,-7.438784599304199,74.9359130859375,19.34814453125,247.3907470703125
3.7699999,-2.387019157409668,-8.259995460510254,-7.309497833251953,63.2781982421875,68.939208984375,244.3389892578125
3.7899999,-3.0621838569641113,-8.853757858276367,-6.430825710296631,30.0445556640625,104.1412353515625,255.828857421875
3.8099999,-3.6391866207122803,-9.528923034667969,-5.568912982940674,12.02392578125,58.3648681640625,214.752197265625
3.8299999000000002,-3.9600095748901367,-10.697293281555176,-4.6255974769592285,29.11376953125,52.42919921875,186.370849609375
3.8499999,-4.199429988861084,-11.477803230285645,-4.244919776916504,22.4609375,104.3243408203125,158.38623046875
3.8699999,-4.335899353027344,-12.066776275634766,-4.3622355461120605,68.115234375,148.590087890625,126.89208984375
3.8899999,-4.458003520965576,-12.265495300292969,-4.580107688903809,94.879150390625,174.6063232421875,95.88623046875
3.9099999,-4.5394062995910645,-12.344504356384277,-4.752490520477295,113.0828857421875,179.931640625,51.1016845703125
3.9299999,-4.606443881988525,-12.315773963928223,-4.599261283874512,74.1119384765625,195.5108642578125,1.9989013671875
3.9499999,-4.651933670043945,-12.258312225341797,-4.4077253341674805,34.8358154296875,203.9947509765625,-35.3240966796875
3.9699999,-4.730942726135254,-11.975796699523926,-4.189853191375732,54.6112060546875,207.5958251953125,-55.6488037109375
3.9899999,-4.728548526763916,-11.568782806396484,-3.6367924213409424,9.521484375,245.5902099609375,-61.5234375
4.0099999,-4.639962673187256,-10.99896240234375,-2.959233283996582,-74.5391845703125,239.5477294921875,-75.5767822265625
4.029999900000001,-4.323928356170654,-10.577583312988281,-2.032677173614502,-96.2066650390625,209.1217041015625,-81.54296875
4.0499999,-3.818751811981201,-10.127472877502441,-1.2689268589019775,-84.04541015625,167.6483154296875,-91.2628173828125
4.069999900000001,-3.138798475265503,-9.859322547912598,-0.8379706144332886,-65.673828125,134.6893310546875,-80.6884765625
4.0899999000000005,-2.3319525718688965,-9.737217903137207,-0.9289502501487732,58.1512451171875,131.1187744140625,-71.10595703125
4.1099999,-1.6831238269805908,-9.244012832641602,-1.4413094520568848,130.9814453125,112.1368408203125,-94.268798828125
4.1299999000000005,-1.094150185585022,-8.834604263305664,-1.800439715385437,138.36669921875,103.1341552734375,-82.672119140625
4.1499999,-0.6727706789970398,-8.334216117858887,-1.8100165128707886,159.8052978515625,95.611572265625,-31.3873291015625
4.1699999000000005,-0.3926490843296051,-7.766790390014648,-1.522712230682373,156.4178466796875,42.4652099609375,-29.8919677734375
4.1899999,-0.08140286058187485,-7.728483200073242,-1.1516109704971313,132.4462890625,-6.6680908203125,-22.857666015625
4.209999900000001,0.19871874153614044,-7.910442352294922,-1.0893617868423462,104.4921875,-2.86865234375,-14.2669677734375
4.2299999,0.4692635238170624,-8.360552787780762,-1.37906014919281,105.8807373046875,25.2227783203125,-12.5579833984375
4.249999900000001,0.6847416758537292,-8.779537200927734,-1.6280571222305298,92.6513671875,43.975830078125,-11.0931396484375
4.2699999,0.8259995579719543,-9.057265281677246,-1.5969325304031372,50.35400390625,18.951416015625,-12.02392578125
4.289999900000001,0.8954314589500427,-9.196128845214844,-1.1324573755264282,22.6593017578125,-3.5552978515625,2.0751953125
4.3099999,0.9026140570640564,-9.227252960205078,-0.608127236366272,20.2484130859375,-15.2130126953125,10.955810546875
4.329999900000001,0.9050082564353943,-9.29189682006836,-0.2777273952960968,29.9530029296875,-17.333984375,7.904052734375
4.3499999,0.9409212470054626,-9.476250648498535,-0.26575639843940735,38.14697265625,-3.814697265625,6.072998046875
4.369999900000001,0.9768342971801758,-9.682151794433594,-0.40462008118629456,-2.9144287109375,2.1820068359375,1.007080078125
4.3899999,1.015141487121582,-9.849745750427246,-0.545877993106842,-13.336181640625,-0.152587890625,-2.838134765625
4.409999900000001,1.0295066833496094,-9.923966407775879,-0.6153098344802856,-6.0882568359375,-13.00048828125,-0.6561279296875
4.4299999,1.0007762908935547,-9.914389610290527,-0.6057330369949341,-8.2244873046875,-11.199951171875,2.0751953125
4.449999900000001,0.9576807022094727,-9.780313491821289,-0.569819986820221,-9.70458984375,0.030517578125,0.5340576171875
4.4699999,0.9074024558067322,-9.679757118225098,-0.5674257874488831,2.25830078125,-6.317138671875,1.7547607421875
4.489999900000001,0.8810662031173706,-9.624691009521484,-0.5386953949928284,30.4718017578125,-6.8511962890625,6.4239501953125
4.5099999,0.8667010068893433,-9.603142738342285,-0.545877993106842,21.026611328125,-8.4381103515625,0.8697509765625
4.529999900000001,0.8643068075180054,-9.639056205749512,-0.6224924325942993,0.0762939453125,-8.636474609375,-1.52587890625
4.5499999,0.8547300100326538,-9.6989107131958,-0.6560112833976746,-9.735107421875,0.48828125,3.3111572265625
4.569999900000001,0.8355764150619507,-9.694122314453125,-0.6392518281936646,4.852294921875,1.2664794921875,2.685546875
4.5899999000000005,0.828393816947937,-9.761159896850586,-0.5578489899635315,36.1785888671875,-2.410888671875,3.6468505859375
4.609999900000001,0.8643068075180054,-9.830592155456543,-0.4165911078453064,26.214599609375,-1.3885498046875,3.2806396484375
4.6299999000000005,0.8690952062606812,-9.81143856048584,-0.30885201692581177,4.5318603515625,-5.5389404296875,-0.5035400390625
4.6499999,0.8810662031173706,-9.84256362915039,-0.1843535304069519,7.8277587890625,-2.685546875,7.8277587890625
4.6699999000000005,0.8738836050033569,-9.864110946655273,-0.08619125932455063,12.4664306640625,-5.462646484375,13.7939453125
4.6899999,0.8427590131759644,-9.909601211547852,-0.021547814831137657,22.430419921875,-5.7830810546875,3.0670166015625
4.709999900000001,0.8427590131759644,-10.029311180114746,0.028730420395731926,-4.8370361328125,-5.523681640625,-1.6937255859375
4.7299999,0.849941611289978,-10.105925559997559,-0.023942016065120697,-15.716552734375,-8.85009765625,-0.701904296875
4.749999900000001,0.8595184087753296,-10.108319282531738,-0.08858546614646912,-1.3427734375,-4.852294921875,-1.739501953125
4.7699999,0.8619126081466675,-10.043676376342773,-0.16759411990642548,-5.9661865234375,-1.6326904296875,-2.7313232421875
4.789999900000001,0.8643068075180054,-9.983820915222168,-0.21787235140800476,-8.8043212890625,-0.244140625,-0.579833984375
4.8099999,0.8427590131759644,-9.871294021606445,-0.2082955539226532,2.899169921875,1.708984375,-3.204345703125
4.829999900000001,0.8188169598579407,-9.813833236694336,-0.1388636976480484,-2.471923828125,-1.77001953125,-1.4495849609375
4.8499999,0.7876923680305481,-9.785101890563965,-0.05506663769483566,-10.1776123046875,-5.8441162109375,1.0223388671875
4.869999900000001,0.7637503147125244,-9.780313491821289,0.009576806798577309,-1.52587890625,-5.859375,-1.983642578125
4.8899999,0.7565677165985107,-9.832986831665039,0.05506663769483566,-1.6021728515625,-7.99560546875,-1.8768310546875
4.909999900000001,0.7613561153411865,-9.8784761428833,0.0694318488240242,14.007568359375,-11.0626220703125,-1.4190673828125
4.9299999,0.7661445140838623,-9.904812812805176,0.033518824726343155,18.4478759765625,-16.8609619140625,-4.1351318359375
4.949999900000001,0.7613561153411865,-9.8784761428833,-0.07900865375995636,17.425537109375,-15.289306640625,-5.828857421875
4.9699999,0.7613561153411865,-9.859322547912598,-0.2346317619085312,1.434326171875,-8.8653564453125,-1.9378662109375
4.989999900000001,0.7565677165985107,-9.818621635437012,-0.38067805767059326,-10.345458984375,-2.0599365234375,-1.4801025390625
5.0099999,0.7637503147125244,-9.787496566772461,-0.4668693244457245,-8.087158203125,-2.2735595703125,-4.9591064453125
5.029999900000001,0.7733271718025208,-9.78989028930664,-0.49799394607543945,-6.6680908203125,-4.9285888671875,-3.4027099609375
5.0499999,0.7805097699165344,-9.749189376831055,-0.4596867263317108,-1.9683837890625,1.9989013671875,-3.2501220703125
5.069999900000001,0.7805097699165344,-9.720458984375,-0.3998316824436188,-5.035400390625,5.31005859375,-2.0751953125
5.0899999000000005,0.7829039692878723,-9.701305389404297,-0.30885201692581177,-4.913330078125,2.1514892578125,-0.0152587890625
5.109999900000001,0.790086567401886,-9.691728591918945,-0.2106897532939911,-1.9378662109375,-1.495361328125,-1.0986328125
5.1299999000000005,0.8044517636299133,-9.720458984375,-0.16519992053508759,-2.74658203125,-4.08935546875,-0.1220703125
5.1499999,0.8188169598579407,-9.72285270690918,-0.2059013396501541,0.701904296875,-1.1444091796875,-0.946044921875
5.1699999000000005,0.8355764150619507,-9.734824180603027,-0.2849099934101105,0.2899169921875,4.5623779296875,0.0762939453125
5.1899999,0.8475474119186401,-9.739612579345703,-0.3495534360408783,4.9285888671875,7.4920654296875,-0.244140625
5.209999900000001,0.8571242094039917,-9.744400978088379,-0.3423708379268646,4.4708251953125,6.0882568359375,-0.4730224609375
5.2299999,0.8547300100326538,-9.718064308166504,-0.2849099934101105,3.5552978515625,2.044677734375,-1.129150390625
5.249999900000001,0.8523358106613159,-9.713275909423828,-0.1867477297782898,-4.7454833984375,2.1514892578125,3.2196044921875
5.2699999,0.8403648138046265,-9.68694019317627,-0.10773907601833344,-6.011962890625,1.9989013671875,3.9825439453125
5.289999900000001,0.8451532125473022,-9.725247383117676,-0.08858546614646912,3.60107421875,0.5340576171875,3.570556640625
5.3099999,0.8523358106613159,-9.78989028930664,-0.090979665517807,5.9356689453125,4.150390625,2.2430419921875
5.329999900000001,0.8643068075180054,-9.86650562286377,-0.11252748221158981,-1.89208984375,6.6070556640625,0.1220703125
5.3499999,0.871489405632019,-9.93354320526123,-0.12449848651885986,-3.0975341796875,4.69970703125,1.0833740234375
5.369999900000001,0.8643068075180054,-9.93593692779541,-0.090979665517807,-0.213623046875,3.875732421875,0.2593994140625
5.3899999,0.8595184087753296,-9.952696800231934,-0.009576806798577309,-1.6937255859375,3.6163330078125,2.9144287109375
5.409999900000001,0.8475474119186401,-9.931148529052734,0.05267243832349777,-1.28173828125,-0.48828125,1.5869140625
5.4299999,0.8403648138046265,-9.926360130310059,0.07422025501728058,7.62939453125,-2.50244140625,-0.091552734375
5.449999900000001,0.8475474119186401,-9.952696800231934,0.06703764945268631,1.7852783203125,0.67138671875,2.197265625
5.4699999,0.849941611289978,-9.938331604003906,0,-3.753662109375,-0.2899169921875,-0.8087158203125
5.489999900000001,0.8571242094039917,-9.950302124023438,-0.038307227194309235,-1.190185546875,0.3204345703125,-0.9307861328125
5.5099999,0.8667010068893433,-9.955090522766113,-0.05267243832349777,0.3509521484375,-0.3814697265625,0.42724609375
5.529999900000001,0.8619126081466675,-9.928754806518555,-0.05267243832349777,6.2713623046875,-2.50244140625,-1.434326171875
5.5499999,0.8667010068893433,-9.931148529052734,-0.11252748221158981,3.4332275390625,-5.37109375,-0.4730224609375
5.569999900000001,0.8690952062606812,-9.921571731567383,-0.14365209639072418,-6.16455078125,2.5177001953125,0.9307861328125
5.5899999000000005,0.871489405632019,-9.904812812805176,-0.19632454216480255,-6.3323974609375,4.3792724609375,-2.13623046875
5.609999900000001,0.8810662031173706,-9.921571731567383,-0.1867477297782898,0.518798828125,0.48828125,-0.885009765625
5.6299999000000005,0.8810662031173706,-9.919178009033203,-0.14365209639072418,-3.631591796875,-1.0223388671875,-1.5869140625
5.6499999,0.8834604024887085,-9.940725326538086,-0.11013327538967133,-9.21630859375,-1.6326904296875,-1.8157958984375
5.6699999000000005,0.8930372595787048,-9.995792388916016,-0.13168109953403473,-9.6282958984375,-0.4119873046875,-1.3580322265625
5.6899999,0.9193734526634216,-10.108319282531738,-0.22266076505184174,-6.4544677734375,2.99072265625,-4.33349609375
5.709999900000001,0.9744400978088379,-10.32858657836914,-0.3519476354122162,-8.5906982421875,8.8958740234375,-10.040283203125
5.7299999,1.0606313943862915,-10.615890502929688,-0.33758243918418884,-7.5225830078125,22.8729248046875,-20.1873779296875
5.749999900000001,1.1540051698684692,-10.903194427490234,-0.26575639843940735,4.45556640625,15.3045654296875,-35.21728515625
5.7699999,1.256955862045288,-11.065999984741211,-0.14365209639072418,17.608642578125,2.471923828125,-46.3714599609375
5.789999900000001,1.359906554222107,-11.075576782226562,0.004788403399288654,21.9573974609375,12.6190185546875,-49.1943359375
5.8099999,1.501164436340332,-11.010933876037598,0.0454898327589035,20.172119140625,19.683837890625,-48.3245849609375
5.829999900000001,1.6639702320098877,-10.924742698669434,-0.023942016065120697,34.149169921875,17.2882080078125,-58.013916015625
5.8499999,1.8626888990402222,-10.903194427490234,-0.15322890877723694,35.491943359375,24.9786376953125,-71.8536376953125
5.869999900000001,2.056619167327881,-10.92953109741211,-0.1843535304069519,0.18310546875,41.3360595703125,-78.4149169921875
5.8899999,2.2601263523101807,-10.970232009887695,-0.004788403399288654,-7.049560546875,48.5382080078125,-86.3800048828125
5.909999900000001,2.451662540435791,-11.025299072265625,0.5339069962501526,2.1820068359375,32.8521728515625,-98.358154296875
5.9299999,2.6360161304473877,-10.994174003601074,1.3934253454208374,-6.8511962890625,5.43212890625,-121.5667724609375
5.949999900000001,2.8634653091430664,-11.125855445861816,2.38462495803833,1.9989013671875,-25.1312255859375,-127.8839111328125
5.9699999,3.0597896575927734,-11.161767959594727,3.023876667022705,57.525634765625,-67.5201416015625,-152.435302734375
5.989999900000001,3.24414324760437,-11.137825965881348,3.3734302520751953,67.32177734375,-89.630126953125,-184.478759765625
6.0099999,3.2824504375457764,-10.620678901672363,3.2848446369171143,63.232421875,-102.783203125,-200.3021240234375
6.029999900000001,3.3303346633911133,-9.715670585632324,3.0190882682800293,93.9788818359375,-127.0294189453125,-179.5501708984375
6.0499999,3.3877954483032227,-8.736441612243652,2.8371291160583496,133.392333984375,-142.2882080078125,-134.6588134765625
6.069999900000001,3.4955344200134277,-7.817068576812744,2.851494312286377,120.4986572265625,-177.06298828125,-137.420654296875
6.0899999000000005,3.6320040225982666,-6.931213855743408,2.6192567348480225,211.12060546875,-217.3919677734375,-167.8924560546875
6.109999900000001,3.7253777980804443,-5.9735331535339355,1.9704279899597168,236.51123046875,-226.6387939453125,-124.664306640625
6.1299999000000005,3.840299606323242,-4.9152960777282715,0.8882488012313843,141.7388916015625,-179.8248291015625,-39.398193359375
6.149999900000001,3.9624037742614746,-3.758896589279175,-0.44771572947502136,64.0106201171875,-140.0604248046875,-5.4473876953125
6.1699999000000005,4.129997730255127,-2.8227639198303223,-1.5179238319396973,43.701171875,-123.71826171875,12.5579833984375
6.1899999,4.244919776916504,-2.3247697353363037,-2.011129379272461,35.5987548828125,-113.4490966796875,78.8726806640625
6.209999900000001,4.242525577545166,-2.164358377456665,-2.185906171798706,71.4263916015625,-106.6436767578125,137.0697021484375
6.2299999,4.19224739074707,-2.691082715988159,-2.0614075660705566,63.78173828125,-94.05517578125,163.726806640625
6.249999900000001,4.098873138427734,-3.708618402481079,-1.8531121015548706,33.538818359375,-85.845947265625,165.130615234375
6.2699999,3.909731388092041,-4.927267074584961,-1.6879122257232666,50.0640869140625,-94.78759765625,166.168212890625
6.289999900000001,3.6990416049957275,-6.358999729156494,-1.53707754611969,50.7965087890625,-91.6290283203125,207.7178955078125
6.3099999,3.359065055847168,-7.515398979187012,-1.5825673341751099,40.191650390625,-81.8023681640625,211.3494873046875
6.329999900000001,2.9472622871398926,-8.449137687683105,-1.824381709098816,37.41455078125,-66.1163330078125,183.074951171875
6.3499999,2.537853717803955,-9.334992408752441,-2.051830768585205,23.223876953125,-35.247802734375,195.2362060546875
6.369999900000001,2.097320795059204,-9.919178009033203,-2.075772762298584,-13.275146484375,-23.4527587890625,197.9827880859375
6.3899999,1.577778935432434,-10.146626472473145,-1.965639591217041,-26.397705078125,-50.201416015625,166.56494140625
6.409999900000001,1.0223240852355957,-10.307038307189941,-1.7621324062347412,3.9825439453125,-56.3201904296875,171.5240478515625
6.4299999,0.40222588181495667,-10.225635528564453,-1.8722656965255737,38.421630859375,-31.402587890625,193.267822265625
6.449999900000001,-0.26336219906806946,-10.139444351196289,-2.2170307636260986,19.8211669921875,6.5765380859375,191.8792724609375
6.4699999,-0.8738836050033569,-10.249577522277832,-2.6623523235321045,2.4871826171875,37.2161865234375,183.5479736328125
6.489999900000001,-1.5155296325683594,-10.381258964538574,-3.045424461364746,-6.2713623046875,41.046142578125,173.5992431640625
6.5099999,-2.142810583114624,-10.453084945678711,-3.490746021270752,38.8946533203125,55.5267333984375,168.45703125
6.529999900000001,-2.695871114730835,-10.919954299926758,-3.8522706031799316,91.156005859375,126.2054443359375,194.000244140625
6.5499999,-3.141192674636841,-11.48259162902832,-3.711012601852417,3.0670166015625,190.5975341796875,166.3970947265625
6.569999900000001,-3.450044631958008,-12.160150527954102,-3.4404678344726562,8.270263671875,157.0587158203125,91.9647216796875
6.5899999000000005,-3.579331636428833,-12.931083679199219,-2.9328970909118652,67.5201416015625,127.777099609375,66.34521484375
6.609999900000001,-3.7205893993377686,-13.402741432189941,-2.387019157409668,49.25537109375,186.34033203125,54.412841796875
6.6299999000000005,-3.892971992492676,-13.366827964782715,-2.2888567447662354,47.1038818359375,215.545654296875,-2.3040771484375
6.649999900000001,-4.041412353515625,-13.251906394958496,-1.8794482946395874,32.40966796875,225.372314453125,-28.3660888671875
6.6699999000000005,-4.151545524597168,-12.763489723205566,-0.9816226959228516,4.547119140625,209.869384765625,-40.802001953125
6.6899999,-4.168305397033691,-12.1194486618042,0.19153612852096558,4.486083984375,159.1033935546875,-63.53759765625
6.709999900000001,-3.9671921730041504,-11.647790908813477,1.1827356815338135,30.4718017578125,121.002197265625,-66.375732421875
6.7299999,-3.6391866207122803,-11.3269681930542,1.843535304069519,21.697998046875,130.8135986328125,-78.0792236328125
6.749999900000001,-3.160346269607544,-11.32457447052002,1.9057846069335938,10.650634765625,121.5057373046875,-96.6339111328125
6.7699999,-2.6384103298187256,-11.343728065490723,1.7094600200653076,26.6265869140625,92.1783447265625,-116.6839599609375
6.789999900000001,-2.0853497982025146,-11.468226432800293,1.5658079385757446,16.1895751953125,78.5369873046875,-122.1771240234375
6.8099999,-1.5849615335464478,-11.537657737731934,1.3000515699386597,13.7176513671875,59.9365234375,-125.396728515625
6.829999900000001,-1.173158884048462,-11.429919242858887,0.7038952708244324,46.81396484375,35.64453125,-142.76123046875
6.8499999,-0.8355764150619507,-11.106701850891113,0.10534487664699554,34.7900390625,56.82373046875,-147.0489501953125
6.869999900000001,-0.5003881454467773,-10.639832496643066,-0.16519992053508759,-13.2904052734375,92.3919677734375,-126.7242431640625
6.8899999,-0.24420857429504395,-9.818621635437012,-0.05506663769483566,-26.2603759765625,52.398681640625,-124.755859375
6.909999900000001,0,-8.676587104797363,0.181959331035614,-5.5694580078125,-18.341064453125,-127.4566650390625
6.9299999,0.31842881441116333,-7.965508937835693,0.35434186458587646,4.1046142578125,-2.0904541015625,-61.09619140625
6.949999900000001,0.6536170840263367,-7.343016624450684,0.26815059781074524,3.8604736328125,53.619384765625,-37.384033203125
6.9699999,1.0295066833496094,-7.141903877258301,0.038307227194309235,13.397216796875,33.4930419921875,-62.68310546875
6.989999900000001,1.3742717504501343,-7.161057472229004,-0.019153613597154617,29.5867919921875,-3.936767578125,-47.8668212890625
7.0099999,1.6376339197158813,-7.264008045196533,0.014365210197865963,10.650634765625,-3.9215087890625,-7.4920654296875
7.029999900000001,1.8076223134994507,-7.417236804962158,-0.06224924325942993,-0.396728515625,12.7716064453125,11.7645263671875
7.0499999,1.9512743949890137,-7.728483200073242,-0.2537853717803955,7.171630859375,12.1307373046875,-1.373291015625
7.069999900000001,2.121262788772583,-8.243236541748047,-0.42856210470199585,16.8304443359375,5.55419921875,-1.5716552734375
7.0899999000000005,2.2457611560821533,-8.681375503540039,-0.4118026793003082,5.6610107421875,14.129638671875,5.401611328125
7.109999900000001,2.3127987384796143,-8.947132110595703,-0.38067805767059326,1.129150390625,4.0740966796875,7.3394775390625
7.1299999000000005,2.3511061668395996,-9.165003776550293,-0.28969839215278625,4.0130615234375,-9.8114013671875,14.0838623046875
7.149999900000001,2.3535003662109375,-9.289502143859863,-0.19632454216480255,-0.244140625,-7.9193115234375,13.0462646484375
7.1699999000000005,2.3582887649536133,-9.466673851013184,-0.2825157940387726,5.126953125,-6.3934326171875,10.80322265625
7.1899999,2.365471363067627,-9.672574996948242,-0.44771572947502136,1.0986328125,-2.86865234375,8.97216796875
7.209999900000001,2.3558945655822754,-9.761159896850586,-0.6440402865409851,-13.5345458984375,-0.335693359375,0.18310546875
7.2299999,2.363077163696289,-9.840168952941895,-0.7422025203704834,-11.16943359375,6.317138671875,3.0975341796875
7.249999900000001,2.3558945655822754,-9.835380554199219,-0.7230489253997803,-7.6141357421875,5.8135986328125,7.8125
7.2699999,2.3511061668395996,-9.801861763000488,-0.6631938815116882,-7.3699951171875,-4.8065185546875,3.5858154296875
7.289999900000001,2.3487119674682617,-9.801861763000488,-0.5434837937355042,-13.7481689453125,-1.617431640625,4.0740966796875
7.3099999,2.3295583724975586,-9.77791976928711,-0.49320554733276367,-15.44189453125,0.274658203125,3.8604736328125
7.329999900000001,2.300827741622925,-9.751583099365234,-0.47405192255973816,-1.861572265625,-2.3040771484375,3.1585693359375
7.3499999,2.27209734916687,-9.732429504394531,-0.5482721924781799,11.6424560546875,-2.4261474609375,4.0283203125
7.369999900000001,2.250549554824829,-9.710882186889648,-0.5602431893348694,5.4931640625,8.11767578125,1.2359619140625
7.3899999,2.2361843585968018,-9.68694019317627,-0.5841852426528931,-2.166748046875,7.049560546875,-0.1983642578125
7.409999900000001,2.233790159225464,-9.651026725769043,-0.5434837937355042,3.60107421875,-3.0975341796875,0.9002685546875
7.4299999,2.22660756111145,-9.59596061706543,-0.4118026793003082,4.1046142578125,-2.166748046875,2.7313232421875
7.449999900000001,2.207453966140747,-9.512163162231445,-0.3232172429561615,-1.983642578125,-4.180908203125,2.6702880859375
7.4699999,2.190694570541382,-9.47146224975586,-0.2753331959247589,-5.92041015625,-7.75146484375,5.6915283203125
7.489999900000001,2.161964178085327,-9.430760383605957,-0.24660277366638184,-12.39013671875,-4.5318603515625,6.561279296875
7.5099999,2.1356279850006104,-9.430760383605957,-0.2777273952960968,-6.65283203125,-6.1492919921875,4.730224609375
7.529999900000001,2.126051187515259,-9.509769439697266,-0.35913026332855225,-3.5552978515625,-8.4686279296875,5.6304931640625
7.5499999,2.1116859912872314,-9.591172218322754,-0.4644751250743866,-6.2255859375,-3.997802734375,1.2664794921875
7.569999900000001,2.0877439975738525,-9.62947940826416,-0.5363011956214905,-14.4195556640625,3.0059814453125,-4.6234130859375
7.5899999000000005,2.0446481704711914,-9.59835433959961,-0.5793967843055725,-11.2457275390625,-0.732421875,-1.8157958984375
7.609999900000001,2.0039467811584473,-9.550470352172852,-0.5506663918495178,-3.7689208984375,-6.04248046875,7.0037841796875
7.6299999000000005,1.9752163887023926,-9.50737476348877,-0.5291185975074768,-0.7171630859375,-7.8582763671875,5.645751953125
7.649999900000001,1.9823989868164062,-9.567230224609375,-0.6153098344802856,-2.6702880859375,-8.392333984375,2.044677734375
7.6699999000000005,2.011129379272461,-9.713275909423828,-0.7445967197418213,-12.176513671875,-3.7384033203125,1.556396484375
7.6899999,2.027888774871826,-9.81143856048584,-0.9074024558067322,-7.9498291015625,1.3275146484375,-1.861572265625
7.709999900000001,2.0231003761291504,-9.830592155456543,-0.9959878921508789,-7.1868896484375,0.3509521484375,-3.1585693359375
7.7299999,2.006340980529785,-9.797073364257812,-1.0031704902648926,-11.627197265625,-2.777099609375,1.861572265625
7.749999900000001,1.9752163887023926,-9.691728591918945,-0.9744400978088379,-10.9405517578125,-5.92041015625,2.716064453125
7.7699999,1.9608511924743652,-9.646238327026367,-1.0079588890075684,-5.615234375,-8.1939697265625,2.3040771484375
7.789999900000001,1.965639591217041,-9.639056205749512,-1.0893617868423462,1.9989013671875,-0.732421875,0.9002685546875
7.8099999,1.9800047874450684,-9.658209800720215,-1.1755530834197998,-11.1236572265625,4.547119140625,-1.007080078125
7.829999900000001,1.98958158493042,-9.667786598205566,-1.2186486721038818,-16.2811279296875,0.4730224609375,-1.3275146484375
7.8499999,1.987187385559082,-9.624691009521484,-1.1971008777618408,-9.2620849609375,-4.180908203125,-1.0986328125
7.869999900000001,1.9800047874450684,-9.57201862335205,-1.1420341730117798,-0.18310546875,-2.25830078125,1.0223388671875
7.8899999,1.965639591217041,-9.521739959716797,-1.1324573755264282,-2.8533935546875,-0.274658203125,1.678466796875
7.909999900000001,1.9536685943603516,-9.476250648498535,-1.161187767982483,-4.8065185546875,0.213623046875,-0.3204345703125
7.9299999,1.9560627937316895,-9.495404243469238,-1.1899182796478271,-6.927490234375,1.4190673828125,2.1209716796875
7.949999900000001,1.9584569931030273,-9.519346237182617,-1.2306196689605713,-7.38525390625,1.40380859375,1.922607421875
7.9699999,1.9800047874450684,-9.59596061706543,-1.2473790645599365,-9.09423828125,0.732421875,0.701904296875
7.989999900000001,2.0015525817871094,-9.66539192199707,-1.2330138683319092,-4.913330078125,4.058837890625,-2.9754638671875
8.0099999,2.0254945755004883,-9.715670585632324,-1.2042834758758545,-6.65283203125,2.7618408203125,-3.84521484375
8.0299999,2.027888774871826,-9.703699111938477,-1.1444283723831177,-7.568359375,-0.4730224609375,-2.655029296875
8.049999900000001,2.0207061767578125,-9.651026725769043,-1.1061211824417114,3.3721923828125,-1.4495849609375,-0.3814697265625
8.069999900000001,1.9991583824157715,-9.576807022094727,-1.0821791887283325,7.8277587890625,-1.129150390625,1.0223388671875
8.0899999,1.9847931861877441,-9.528923034667969,-1.048660397529602,2.25830078125,-1.1444091796875,1.2054443359375
8.1099999,1.9752163887023926,-9.493009567260742,-1.070208191871643,3.0059814453125,-6.7901611328125,1.3275146484375
8.129999900000001,1.9823989868164062,-9.526528358459473,-1.1276689767837524,4.302978515625,-8.48388671875,3.570556640625
8.149999900000001,1.9919757843017578,-9.603142738342285,-1.2832920551300049,-3.4637451171875,-4.0130615234375,1.5411376953125
8.1699999,2.0015525817871094,-9.672574996948242,-1.4413094520568848,-1.983642578125,5.523681640625,-4.302978515625
8.1899999,2.0015525817871094,-9.6989107131958,-1.5322890281677246,2.716064453125,8.880615234375,-5.3253173828125
8.2099999,1.98958158493042,-9.667786598205566,-1.4484920501708984,4.180908203125,5.7373046875,-0.54931640625
8.229999900000001,1.968033790588379,-9.564835548400879,-1.290474772453308,-1.312255859375,-3.631591796875,0.79345703125
8.2499999,1.9632453918457031,-9.524134635925293,-1.1420341730117798,-2.0751953125,-7.171630859375,2.4566650390625
8.2699999,1.965639591217041,-9.50498104095459,-1.1468225717544556,2.1209716796875,-3.8909912109375,-0.1373291015625
8.2899999,1.9752163887023926,-9.524134635925293,-1.2042834758758545,0.30517578125,4.1961669921875,-1.708984375
8.309999900000001,1.9823989868164062,-9.519346237182617,-1.2952631711959839,-1.5869140625,5.0048828125,-0.946044921875
8.3299999,1.98958158493042,-9.514557838439941,-1.292868971824646,0.0152587890625,1.617431640625,2.5634765625
8.3499999,1.9919757843017578,-9.500192642211914,-1.2306196689605713,0.2593994140625,-0.1220703125,1.434326171875
8.3699999,1.9991583824157715,-9.50498104095459,-1.1803414821624756,5.7830810546875,-1.46484375,-0.67138671875
8.389999900000001,2.006340980529785,-9.536105155944824,-1.1348515748977661,2.25830078125,0.7171630859375,0.2593994140625
8.4099999,2.011129379272461,-9.552865028381348,-1.1109095811843872,-1.28173828125,1.556396484375,0.640869140625
8.4299999,2.013523578643799,-9.564835548400879,-1.0893617868423462,-2.6397705078125,-1.3580322265625,-0.4730224609375
8.4499999,2.008735179901123,-9.564835548400879,-1.05105459690094,-3.6163330078125,-1.861572265625,0.2899169921875
8.469999900000001,1.9919757843017578,-9.536105155944824,-1.0414776802062988,-5.3253173828125,-2.960205078125,0.8087158203125
8.4899999,1.9847931861877441,-9.536105155944824,-1.0606313943862915,-5.8135986328125,-3.5400390625,4.180908203125
8.5099999,1.9776105880737305,-9.557653427124023,-1.1276689767837524,-9.2315673828125,-4.0740966796875,3.936767578125
8.5299999,1.9752163887023926,-9.583989143371582,-1.1971008777618408,-10.772705078125,-1.8463134765625,-0.518798828125
8.549999900000001,1.965639591217041,-9.627084732055664,-1.259350061416626,-12.6800537109375,-1.15966796875,-0.2593994140625
8.569999900000001,1.941697597503662,-9.615114212036133,-1.314416766166687,-7.14111328125,-3.0059814453125,1.3885498046875
8.5899999,1.9081788063049316,-9.583989143371582,-1.3263877630233765,-5.7830810546875,-0.9765625,2.1209716796875
8.6099999,1.889025092124939,-9.557653427124023,-1.359906554222107,-11.0931396484375,-2.6397705078125,2.838134765625
8.629999900000001,1.8938134908676147,-9.567230224609375,-1.3934253454208374,-11.260986328125,-3.47900390625,3.204345703125
8.649999900000001,1.9105730056762695,-9.59835433959961,-1.4508862495422363,-6.0577392578125,-2.8076171875,1.4801025390625
8.6699999,1.9345149993896484,-9.653421401977539,-1.5418659448623657,-1.953125,-3.2501220703125,0.335693359375
8.6899999,1.9536685943603516,-9.703699111938477,-1.6328455209732056,3.2958984375,0.5035400390625,0.3814697265625
8.709999900000001,1.9512743949890137,-9.6989107131958,-1.6903064250946045,0.54931640625,2.5482177734375,-2.3345947265625
8.729999900000001,1.946485996246338,-9.701305389404297,-1.6855180263519287,3.23486328125,1.8463134765625,-0.152587890625
8.7499999,1.922544002532959,-9.643844604492188,-1.6184803247451782,3.2958984375,-0.30517578125,-0.67138671875
8.7699999,1.8986018896102905,-9.593565940856934,-1.5466543436050415,2.62451171875,-3.448486328125,-0.48828125
8.7899999,1.8842366933822632,-9.550470352172852,-1.5418659448623657,7.598876953125,-2.1820068359375,0.67138671875
8.809999900000001,1.8794482946395874,-9.548076629638672,-1.5490485429763794,2.4261474609375,4.08935546875,1.312255859375
8.8299999,1.8818424940109253,-9.543288230895996,-1.5658079385757446,-1.1444091796875,5.5389404296875,-2.6397705078125
8.8499999,1.8914192914962769,-9.548076629638672,-1.5131354331970215,1.0223388671875,2.9449462890625,-2.166748046875
8.8699999,1.900996208190918,-9.555258750915527,-1.4173674583435059,-1.800537109375,-1.3580322265625,0.1983642578125
8.889999900000001,1.900996208190918,-9.531316757202148,-1.3503297567367554,3.5858154296875,-3.3111572265625,0.3814697265625
8.9099999,1.9033904075622559,-9.531316757202148,-1.3742717504501343,5.43212890625,-1.4190673828125,-1.5411376953125
8.9299999,1.8986018896102905,-9.5408935546875,-1.381454348564148,-4.1046142578125,6.622314453125,-0.54931640625
8.9499999,1.886630892753601,-9.509769439697266,-1.4053963422775269,-4.45556640625,3.9215087890625,-2.532958984375
8.969999900000001,1.8818424940109253,-9.509769439697266,-1.37906014919281,4.5318603515625,-3.3416748046875,0.640869140625
8.9899999,1.8722656965255737,-9.469067573547363,-1.316810965538025,1.7547607421875,-1.8463134765625,0.67138671875
9.0099999,1.8722656965255737,-9.466673851013184,-1.357512354850769,1.0833740234375,-4.1046142578125,0.42724609375
9.0299999,1.8818424940109253,-9.493009567260742,-1.4293384552001953,6.53076171875,-0.3814697265625,2.2125244140625
9.049999900000001,1.8938134908676147,-9.526528358459473,-1.4939818382263184,2.2125244140625,5.0506591796875,-0.0457763671875
9.069999900000001,1.9057846069335938,-9.555258750915527,-1.5298948287963867,4.08935546875,2.349853515625,-1.2969970703125
9.0899999,1.9105730056762695,-9.5624418258667,-1.4915876388549805,3.997802734375,-0.579833984375,0.1068115234375
9.1099999,1.9153614044189453,-9.552865028381348,-1.4245500564575195,10.07080078125,0.6103515625,1.7547607421875
9.129999900000001,1.9177556037902832,-9.552865028381348,-1.357512354850769,8.5906982421875,0.9765625,1.3580322265625
9.149999900000001,1.920149803161621,-9.548076629638672,-1.3192051649093628,6.072998046875,-1.2664794921875,0.5340576171875
9.1699999,1.9345149993896484,-9.581595420837402,-1.278503656387329,3.570556640625,-1.03759765625,2.62451171875
9.1899999,1.9297266006469727,-9.57441234588623,-1.2234370708465576,1.7242431640625,0.2288818359375,2.349853515625
9.209999900000001,1.9321208000183105,-9.59596061706543,-1.1755530834197998,1.9378662109375,-3.2501220703125,2.4566650390625
9.229999900000001,1.922544002532959,-9.615114212036133,-1.1779472827911377,7.87353515625,-6.2255859375,3.1280517578125
9.2499999,1.920149803161621,-9.653421401977539,-1.2114660739898682,4.5623779296875,-1.3427734375,1.4495849609375
9.2699999,1.9177556037902832,-9.696516990661621,-1.2832920551300049,-1.2969970703125,4.150390625,-0.8697509765625
9.2899999,1.9129672050476074,-9.715670585632324,-1.3120225667953491,-5.6304931640625,4.2877197265625,-2.2735595703125
9.309999900000001,1.900996208190918,-9.696516990661621,-1.2665326595306396,-1.0223388671875,2.4566650390625,-1.1444091796875
9.3299999,1.886630892753601,-9.651026725769043,-1.1827356815338135,1.2664794921875,-1.7242431640625,0.640869140625
9.3499999,1.8722656965255737,-9.607931137084961,-1.139639973640442,1.40380859375,-4.1656494140625,0.5950927734375
9.3699999,1.86508309841156,-9.600749015808105,-1.1779472827911377,-2.960205078125,-1.8310546875,-0.0762939453125
9.389999900000001,1.8531121015548706,-9.581595420837402,-1.259350061416626,-4.21142578125,3.448486328125,-2.3345947265625
9.4099999,1.8411411046981812,-9.555258750915527,-1.316810965538025,-0.1678466796875,5.7830810546875,-1.7547607421875
9.4299999,1.824381709098816,-9.519346237182617,-1.3024457693099976,1.1749267578125,2.3956298828125,2.4566650390625
9.4499999,1.8076223134994507,-9.488221168518066,-1.2641384601593018,2.3040771484375,-4.119873046875,2.5787353515625
9.469999900000001,1.8052281141281128,-9.48343276977539,-1.2425906658172607,4.2266845703125,-2.6092529296875,0.6561279296875
9.4899999,1.8100165128707886,-9.50737476348877,-1.256955862045288,0.6103515625,3.0059814453125,0.79345703125
9.5099999,1.8100165128707886,-9.516951560974121,-1.316810965538025,-1.861572265625,2.105712890625,0.946044921875
9.5299999,1.8148049116134644,-9.536105155944824,-1.338358759880066,-0.1678466796875,1.2969970703125,1.9683837890625
9.549999900000001,1.8100165128707886,-9.543288230895996,-1.3215993642807007,0.152587890625,2.593994140625,1.4495849609375
9.569999900000001,1.8100165128707886,-9.57201862335205,-1.3239935636520386,3.814697265625,-0.823974609375,0.9002685546875
9.5899999,1.8100165128707886,-9.603142738342285,-1.2976573705673218,1.5411376953125,1.52587890625,1.4495849609375
9.6099999,1.8124107122421265,-9.619902610778809,-1.292868971824646,0.6103515625,3.509521484375,-0.1068115234375
9.629999900000001,1.8148049116134644,-9.622296333312988,-1.2737152576446533,3.35693359375,2.716064453125,0.30517578125
9.649999900000001,1.821987509727478,-9.62947940826416,-1.2449848651885986,3.997802734375,1.6021728515625,2.2735595703125
9.6699999,1.8291701078414917,-9.63187313079834,-1.2210428714752197,-1.9073486328125,1.068115234375,1.953125
9.6899999,1.845929503440857,-9.672574996948242,-1.1971008777618408,-2.3345947265625,2.899169921875,1.4495849609375
9.709999900000001,1.8626888990402222,-9.708487510681152,-1.170764684677124,0.946044921875,3.4942626953125,-0.2593994140625
9.729999900000001,1.8794482946395874,-9.737217903137207,-1.139639973640442,3.6468505859375,1.068115234375,-0.79345703125
9.7499999,1.8818424940109253,-9.732429504394531,-1.1300631761550903,3.4332275390625,-0.3814697265625,-0.213623046875
9.7699999,1.8770540952682495,-9.715670585632324,-1.115697979927063,3.143310546875,2.25830078125,0.518798828125
9.7899999,1.86508309841156,-9.679757118225098,-1.113303780555725,1.1749267578125,3.4027099609375,0.06103515625
9.809999900000001,1.8531121015548706,-9.658209800720215,-1.0989385843276978,2.1820068359375,1.5106201171875,-0.6256103515625
9.8299999,1.8483237028121948,-9.646238327026367,-1.0438719987869263,2.5177001953125,1.5106201171875,0.0762939453125
9.8499999,1.8483237028121948,-9.651026725769043,-1.015141487121582,6.3629150390625,-0.6103515625,-0.2593994140625
9.8699999,1.8483237028121948,-9.658209800720215,-1.0079588890075684,5.5389404296875,-1.0833740234375,-1.0986328125
9.889999900000001,1.8507179021835327,-9.674968719482422,-1.0319008827209473,-1.5869140625,0.4730224609375,-1.1749267578125
9.9099999,1.843535304069519,-9.667786598205566,-1.0558429956436157,-4.1656494140625,2.5177001953125,-1.5869140625
9.9299999,1.8339585065841675,-9.651026725769043,-1.0678139925003052,-4.7149658203125,0.1068115234375,-1.2969970703125
9.9499999,1.8195933103561401,-9.627084732055664,-1.0821791887283325,2.2735595703125,-2.44140625,-0.30517578125
9.969999900000001,1.802833914756775,-9.57201862335205,-1.0773907899856567,4.2266845703125,0.9918212890625,-1.4801025390625
9.9899999,1.7932571172714233,-9.548076629638672,-1.0869675874710083,2.7923583984375,1.0986328125,0.9918212890625
10.0099999,1.7836803197860718,-9.509769439697266,-1.1013327836990356,-1.007080078125,-1.7547607421875,1.068115234375
10.0299999,1.7908629179000854,-9.528923034667969,-1.113303780555725,0.42724609375,-2.410888671875,2.288818359375
10.049999900000001,1.800439715385437,-9.560047149658203,-1.1276689767837524,1.7547607421875,0.4425048828125,1.0528564453125
10.069999900000001,1.8076223134994507,-9.593565940856934,-1.161187767982483,3.96728515625,0.579833984375,-0.946044921875
10.0899999,1.8148049116134644,-9.624691009521484,-1.170764684677124,1.4190673828125,0.946044921875,0.762939453125
10.1099999,1.8124107122421265,-9.62947940826416,-1.1755530834197998,-0.6561279296875,0,1.4495849609375
10.129999900000001,1.8052281141281128,-9.622296333312988,-1.1994950771331787,-1.8310546875,-0.8697509765625,0.213623046875
10.149999900000001,1.800439715385437,-9.627084732055664,-1.194706678390503,-0.1983642578125,3.35693359375,0.3204345703125
10.1699999,1.7932571172714233,-9.622296333312988,-1.1875240802764893,2.4566650390625,4.45556640625,0.1983642578125
10.1899999,1.7908629179000854,-9.62947940826416,-1.1324573755264282,1.495361328125,2.7923583984375,1.312255859375
10.209999900000001,1.7932571172714233,-9.658209800720215,-1.05105459690094,1.678466796875,0.457763671875,1.190185546875
10.229999900000001,1.8148049116134644,-9.734824180603027,-0.9744400978088379,2.3193359375,-0.823974609375,0.1373291015625
10.2499999,1.8579005002975464,-9.885659217834473,-0.9433154463768005,5.3253173828125,0.8392333984375,-3.082275390625
10.2699999,1.9249382019042969,-10.103530883789062,-0.9576807022094727,11.7034912109375,5.3558349609375,-9.3841552734375
10.2899999,2.032677173614502,-10.433931350708008,-1.0773907899856567,26.7333984375,9.3536376953125,-19.47021484375
10.309999900000001,2.1739351749420166,-10.836156845092773,-1.3024457693099976,58.41064453125,22.0947265625,-35.2020263671875
10.3299999,2.346317768096924,-11.209651947021484,-1.5825673341751099,49.041748046875,39.7491455078125,-60.577392578125
10.3499999,2.5450363159179688,-11.590330123901367,-1.7812861204147339,16.998291015625,57.403564453125,-77.81982421875
10.3699999,2.7892448902130127,-11.966219902038574,-1.7836803197860718,10.0860595703125,73.760986328125,-95.7183837890625
10.389999900000001,3.002328872680664,-12.172121047973633,-1.5849615335464478,6.4239501953125,80.62744140625,-135.833740234375
10.4099999,3.2082302570343018,-12.157755851745605,-1.0127472877502441,-33.02001953125,76.3397216796875,-162.0025634765625
10.4299999,3.3901896476745605,-11.887211799621582,-0.23702596127986908,4.8828125,76.385498046875,-158.5693359375
10.4499999,3.529053211212158,-11.219228744506836,0.7374141216278076,40.6494140625,48.583984375,-163.0859375
10.469999900000001,3.6798880100250244,-10.20648193359375,1.778891921043396,31.8756103515625,15.13671875,-174.2401123046875
10.4899999,3.892971992492676,-9.169792175292969,2.6647465229034424,51.3153076171875,-10.162353515625,-152.03857421875
10.5099999,4.230554580688477,-8.365341186523438,3.339911460876465,66.5740966796875,-29.84619140625,-122.00927734375
10.5299999,4.616020679473877,-7.898471355438232,3.734954595565796,69.671630859375,-54.779052734375,-124.0081787109375
10.549999900000001,4.999093055725098,-7.747636795043945,3.907337188720703,84.1217041015625,-88.0279541015625,-150.0091552734375
10.569999900000001,5.240907669067383,-7.443572998046875,3.9863457679748535,113.1134033203125,-113.3880615234375,-169.25048828125
10.5899999,5.25527286529541,-6.715735912322998,4.108449935913086,133.30078125,-143.73779296875,-142.15087890625
10.6099999,5.044582843780518,-5.542576789855957,4.19224739074707,212.4786376953125,-196.59423828125,-90.3167724609375
10.629999900000001,4.750096321105957,-4.173093795776367,4.017470359802246,296.4019775390625,-246.27685546875,-34.6221923828125
10.649999900000001,4.422090530395508,-3.19865345954895,3.2776620388031006,327.1484375,-254.5623779296875,38.1927490234375
10.6699999,4.158728122711182,-2.717418909072876,1.7381904125213623,294.097900390625,-225.830078125,88.3941650390625
10.6899999,4.129997730255127,-2.9927520751953125,-0.15562310814857483,206.23779296875,-155.7769775390625,115.4327392578125
10.709999900000001,4.292803764343262,-3.892971992492676,-1.6041151285171509,62.0574951171875,-103.4088134765625,128.2958984375
10.729999900000001,4.517858505249023,-4.989516258239746,-2.3535003662109375,41.6259765625,-110.9619140625,109.2376708984375
10.7499999,4.671087741851807,-5.817910194396973,-2.432508945465088,81.512451171875,-139.16015625,98.968505859375
10.7699999,4.580107688903809,-6.382941722869873,-2.276885747909546,60.0433349609375,-112.9913330078125,145.8282470703125
10.7899999,4.28322696685791,-6.593631267547607,-2.2409727573394775,7.0648193359375,-65.093994140625,177.6580810546875
10.809999900000001,3.8546648025512695,-6.71334171295166,-2.2002713680267334,-63.17138671875,-38.1317138671875,172.5006103515625
10.8299999,3.397372245788574,-7.010222434997559,-2.006340980529785,-61.8743896484375,-56.2896728515625,186.5386962890625
10.8499999,3.00711727142334,-7.649474620819092,-1.764526605606079,11.383056640625,-70.0531005859375,209.3658447265625
10.8699999,2.518700122833252,-8.109161376953125,-1.7908629179000854,35.5072021484375,-56.5185546875,181.4422607421875
10.889999900000001,1.9919757843017578,-8.669404029846191,-2.43011474609375,67.9779052734375,-23.468017578125,179.931640625
10.9099999,1.501164436340332,-9.3828763961792,-2.8443117141723633,-16.632080078125,44.43359375,225.4791259765625
10.9299999,0.9696516990661621,-9.86889934539795,-3.1100680828094482,-48.88916015625,45.684814453125,194.5648193359375
10.9499999,0.4668693244457245,-10.393229484558105,-2.9161376953125,16.2353515625,17.1356201171875,159.2559814453125
10.969999900000001,-0.026336219161748886,-10.78348445892334,-2.4803929328918457,37.353515625,44.73876953125,170.013427734375
10.9899999,-0.6129156351089478,-10.924742698669434,-2.279279947280884,8.4381103515625,74.676513671875,186.676025390625
11.0099999,-1.278503656387329,-10.83855152130127,-2.3367409706115723,1.3580322265625,87.5396728515625,175.140380859375
11.0299999,-1.9345149993896484,-10.910377502441406,-2.3918075561523438,-1.3580322265625,105.28564453125,180.7098388671875
11.049999900000001,-2.604891538619995,-10.96304988861084,-2.4660277366638184,17.4560546875,126.8157958984375,180.6793212890625
11.069999900000001,-3.2632968425750732,-11.049241065979004,-2.5450363159179688,40.130615234375,153.7017822265625,161.7584228515625
11.0899999,-3.869029998779297,-11.24795913696289,-2.6623523235321045,38.7420654296875,176.8035888671875,153.7628173828125
11.1099999,-4.388571739196777,-11.621455192565918,-2.7102363109588623,35.15625,205.01708984375,142.8375244140625
11.129999900000001,-4.6950297355651855,-12.212822914123535,-2.691082715988159,71.563720703125,234.5428466796875,107.0404052734375
11.149999900000001,-4.675876140594482,-13.15853214263916,-2.1308395862579346,75.3936767578125,264.0533447265625,59.417724609375
11.1699999,-4.434061527252197,-14.068328857421875,-1.170764684677124,31.494140625,232.269287109375,-4.7607421875
11.1899999,-4.108449935913086,-14.267047882080078,0.047884032130241394,43.9453125,185.333251953125,-73.3795166015625
11.209999900000001,-3.7828385829925537,-13.797784805297852,1.41257905960083,35.64453125,159.9884033203125,-79.6661376953125
11.229999900000001,-3.5960910320281982,-12.442666053771973,2.516305923461914,9.8114013671875,131.927490234375,-64.27001953125
11.2499999,-3.4356794357299805,-10.807426452636719,2.940079689025879,11.993408203125,81.2835693359375,-65.2008056640625
11.2699999,-3.1244332790374756,-10.014945983886719,2.561795711517334,17.7001953125,59.8297119140625,-45.6390380859375
11.2899999,-2.734178304672241,-9.99339771270752,1.4269442558288574,-17.39501953125,93.353271484375,-82.58056640625
11.309999900000001,-2.2816741466522217,-10.790667533874512,0,-76.3092041015625,130.340576171875,-150.299072265625
11.3299999,-1.8938134908676147,-11.595118522644043,-0.9097966551780701,-122.7569580078125,140.3656005859375,-185.2874755859375
11.3499999,-1.623268723487854,-11.683704376220703,-1.0127472877502441,-98.9227294921875,116.2261962890625,-177.764892578125
11.3699999,-1.2737152576446533,-11.463438034057617,-0.6727706789970398,-77.69775390625,58.135986328125,-128.082275390625
11.389999900000001,-0.8427590131759644,-11.018115997314453,-0.5554547905921936,19.775390625,58.197021484375,-124.4964599609375
11.4099999,-0.3926490843296051,-10.438719749450684,-0.5530605912208557,42.6025390625,95.1995849609375,-179.107666015625
11.4299999,0.05746084079146385,-9.725247383117676,-0.6703764796257019,34.24072265625,93.8568115234375,-168.792724609375
11.4499999,0.31842881441116333,-8.520963668823242,-0.4644751250743866,36.6363525390625,39.73388671875,-103.1494140625
11.469999900000001,0.5315127968788147,-7.091625213623047,-0.12210428714752197,49.7894287109375,-16.54052734375,-56.2896728515625
11.4899999,0.8236053586006165,-6.098031520843506,0.07900865375995636,57.3272705078125,-11.7340087890625,-20.69091796875
11.5099999,1.259350061416626,-5.884947776794434,-0.2585737705230713,58.319091796875,0.823974609375,-4.6539306640625
11.5299999,1.7884687185287476,-6.514622688293457,-0.8259995579719543,55.5877685546875,12.451171875,0.7476806640625
11.549999900000001,2.252943754196167,-7.357381820678711,-1.3455413579940796,32.9742431640625,19.7601318359375,-15.350341796875
11.569999900000001,2.6431987285614014,-8.372523307800293,-1.5466543436050415,23.193359375,15.167236328125,-8.3770751953125
11.5899999,2.853888511657715,-9.023746490478516,-1.4293384552001953,0.67138671875,-2.2125244140625,0.640869140625
11.6099999,2.892195701599121,-9.301473617553711,-1.1492167711257935,-1.5869140625,-19.7906494140625,-5.615234375
11.629999900000001,2.8634653091430664,-9.373299598693848,-0.9313444495201111,19.1802978515625,-16.7236328125,1.373291015625
11.649999900000001,2.779668092727661,-9.306262016296387,-0.8212111592292786,16.6473388671875,-2.349853515625,11.627197265625
11.6699999,2.6815059185028076,-9.162610054016113,-0.9217676520347595,0.5950927734375,-4.6234130859375,8.941650390625
11.6899999,2.631227731704712,-9.138668060302734,-0.9816226959228516,-4.150390625,-4.7454833984375,12.2528076171875
11.709999900000001,2.6192567348480225,-9.23443603515625,-1.015141487121582,-8.026123046875,-0.518798828125,16.29638671875
11.729999900000001,2.6192567348480225,-9.370905876159668,-1.0462661981582642,-13.458251953125,-7.2174072265625,3.2196044921875
11.7499999,2.607285737991333,-9.500192642211914,-1.072602391242981,-10.4522705078125,-6.7291259765625,-5.9967041015625
11.7699999,2.5713725090026855,-9.526528358459473,-1.1085153818130493,-17.02880859375,-5.126953125,0.67138671875
11.7899999,2.5234885215759277,-9.485827445983887,-1.1276689767837524,4.08935546875,4.08935546875,10.040283203125
11.809999900000001,2.4803929328918457,-9.404424667358398,-1.1468225717544556,12.8326416015625,2.4871826171875,4.8828125
11.8299999,2.4803929328918457,-9.423578262329102,-1.1683704853057861,5.523681640625,0.06103515625,2.13623046875
11.8499999,2.497152328491211,-9.476250648498535,-1.1971008777618408,8.2855224609375,7.354736328125,0.79345703125
11.8699999,2.516305923461914,-9.524134635925293,-1.1851298809051514,-0.4119873046875,13.1378173828125,1.3427734375
11.889999900000001,2.5330653190612793,-9.560047149658203,-1.072602391242981,-6.1492919921875,9.2926025390625,5.1116943359375
11.9099999,2.5330653190612793,-9.5408935546875,-0.9433154463768005,-0.2593994140625,-0.8697509765625,4.08935546875
11.9299999,2.5522189140319824,-9.581595420837402,-0.8619126081466675,10.4217529296875,-2.8228759765625,4.33349609375
11.9499999,2.5665841102600098,-9.615114212036133,-0.8427590131759644,1.9989013671875,6.2103271484375,1.1138916015625
11.969999900000001,2.5761611461639404,-9.636661529541016,-0.871489405632019,-3.35693359375,6.53076171875,-3.0975341796875
11.9899999,2.5737667083740234,-9.622296333312988,-0.9097966551780701,0.274658203125,-1.861572265625,0.06103515625
12.0099999,2.5450363159179688,-9.536105155944824,-0.8762778043746948,7.32421875,-0.885009765625,3.4942626953125
12.0299999,2.5019407272338867,-9.435548782348633,-0.8403648138046265,9.7198486328125,3.2958984375,4.5623779296875
12.049999900000001,2.470816135406494,-9.390059471130371,-0.8212111592292786,9.6435546875,2.3345947265625,7.232666015625
12.069999900000001,2.449268341064453,-9.394847869873047,-0.727837324142456,1.15966796875,0.1373291015625,5.706787109375
12.0899999,2.4612393379211426,-9.50498104095459,-0.6871358752250671,4.9285888671875,-5.889892578125,4.1351318359375
12.1099999,2.4684219360351562,-9.603142738342285,-0.6871358752250671,11.53564453125,-7.4462890625,-1.3275146484375
12.129999900000001,2.473210334777832,-9.655815124511719,-0.6536170840263367,-1.1138916015625,3.3416748046875,-4.638671875
12.149999900000001,2.470816135406494,-9.672574996948242,-0.6751648783683777,5.1727294921875,0.9307861328125,0.1678466796875
12.1699999,2.4444799423217773,-9.57201862335205,-0.6799532771110535,16.9525146484375,-5.462646484375,-1.5716552734375
12.1899999,2.449268341064453,-9.560047149658203,-0.6272808313369751,13.671875,1.220703125,0.6866455078125
12.209999900000001,2.4636335372924805,-9.555258750915527,-0.6488286852836609,21.1029052734375,4.180908203125,-1.7242431640625
12.229999900000001,2.4875755310058594,-9.57441234588623,-0.6416460275650024,12.14599609375,0.8544921875,-7.50732421875
12.2499999,2.5019407272338867,-9.564835548400879,-0.5841852426528931,8.5296630859375,3.7689208984375,-3.9520263671875
12.2699999,2.5019407272338867,-9.528923034667969,-0.4836287498474121,1.6021728515625,2.2125244140625,3.692626953125
12.289999900000002,2.499546527862549,-9.516951560974121,-0.40462008118629456,-0.0457763671875,-3.875732421875,5.5694580078125
12.309999900000001,2.499546527862549,-9.560047149658203,-0.40462008118629456,0.7171630859375,-2.5787353515625,0.79345703125
12.3299999,2.5019407272338867,-9.66299819946289,-0.43095630407333374,-10.1318359375,6.6986083984375,-2.3040771484375
12.3499999,2.47560453414917,-9.6989107131958,-0.5051765441894531,-8.85009765625,7.75146484375,-4.69970703125
12.3699999,2.425326347351074,-9.648633003234863,-0.49320554733276367,-12.51220703125,2.899169921875,-2.99072265625
12.389999900000001,2.3750481605529785,-9.552865028381348,-0.4141969084739685,-7.26318359375,0.5950927734375,3.0364990234375
12.4099999,2.3343467712402344,-9.423578262329102,-0.3878606855869293,1.7852783203125,-6.6680908203125,2.9296875
12.4299999,2.3511061668395996,-9.406818389892578,-0.4381389021873474,2.50244140625,-6.6375732421875,3.7689208984375
12.4499999,2.406172752380371,-9.481039047241211,-0.5291185975074768,-2.7008056640625,1.5869140625,3.570556640625
12.469999900000001,2.470816135406494,-9.59596061706543,-0.6536170840263367,-4.913330078125,-0.2593994140625,-2.471923828125
12.4899999,2.5282769203186035,-9.706093788146973,-0.7565677165985107,-1.1749267578125,-4.425048828125,-4.608154296875
12.5099999,2.5522189140319824,-9.734824180603027,-0.7589619159698486,1.4190673828125,2.0294189453125,-3.204345703125
12.5299999,2.5258827209472656,-9.641449928283691,-0.727837324142456,-0.8697509765625,2.50244140625,-4.119873046875
12.549999900000001,2.4827871322631836,-9.497797966003418,-0.7230489253997803,8.2855224609375,-5.7830810546875,-1.2054443359375
12.569999900000001,2.4396915435791016,-9.368511199951172,-0.730231523513794,2.0904541015625,-3.9825439453125,2.6092529296875
12.5899999,2.4229321479797363,-9.332598686218262,-0.7829039692878723,-8.30078125,3.814697265625,3.4942626953125
12.6099999,2.43011474609375,-9.370905876159668,-0.7972691655158997,-12.725830078125,7.781982421875,-0.244140625
12.629999900000001,2.451662540435791,-9.445125579833984,-0.7230489253997803,-7.5225830078125,2.105712890625,-2.7923583984375
12.649999900000001,2.4684219360351562,-9.50498104095459,-0.5602431893348694,-2.4566650390625,-3.6773681640625,0.67138671875
12.6699999,2.4803929328918457,-9.552865028381348,-0.40940847992897034,2.2735595703125,-6.1187744140625,4.8065185546875
12.6899999,2.492363929748535,-9.593565940856934,-0.3663128614425659,11.9476318359375,-4.5928955078125,2.2735595703125
12.709999900000001,2.5067291259765625,-9.66299819946289,-0.43335050344467163,8.23974609375,-2.166748046875,-1.2054443359375
12.729999900000001,2.516305923461914,-9.682151794433594,-0.5123591423034668,-5.9814453125,1.89208984375,-3.753662109375
12.7499999,2.513911724090576,-9.670180320739746,-0.5506663918495178,-4.21142578125,1.15966796875,-1.52587890625
12.7699999,2.497152328491211,-9.588777542114258,-0.524330198764801,1.3885498046875,-5.55419921875,-0.9002685546875
12.789999900000002,2.4851813316345215,-9.524134635925293,-0.47884035110473633,6.4697265625,-9.4146728515625,1.0833740234375
12.809999900000001,2.4827871322631836,-9.493009567260742,-0.4572925269603729,8.4686279296875,-4.6539306640625,1.0223388671875
12.8299999,2.4803929328918457,-9.481039047241211,-0.524330198764801,6.500244140625,-4.5928955078125,-1.953125
12.8499999,2.4827871322631836,-9.502586364746094,-0.5961562395095825,1.556396484375,-2.9296875,-2.197265625
12.8699999,2.473210334777832,-9.493009567260742,-0.6416460275650024,-1.220703125,-0.7476806640625,-1.983642578125
12.889999900000001,2.425326347351074,-9.399636268615723,-0.6871358752250671,5.9661865234375,-6.5765380859375,-0.06103515625
12.9099999,2.406172752380371,-9.354146003723145,-0.7158663272857666,3.7689208984375,-1.15966796875,2.3956298828125
12.9299999,2.3989901542663574,-9.332598686218262,-0.7733271718025208,-4.2266845703125,3.1280517578125,1.5411376953125
12.9499999,2.4013843536376953,-9.354146003723145,-0.828393816947937,-2.01416015625,1.6326904296875,1.52587890625
12.969999900000001,2.410961151123047,-9.385271072387695,-0.8331822156906128,1.9378662109375,2.6702880859375,0.640869140625
12.9899999,2.427720546722412,-9.442731857299805,-0.7422025203704834,-4.1656494140625,6.1187744140625,3.204345703125
13.0099999,2.4372973442077637,-9.473855972290039,-0.7374141216278076,-0.640869140625,-0.3662109375,1.77001953125
13.0299999,2.4588451385498047,-9.5624418258667,-0.7134721279144287,-2.410888671875,0.6561279296875,2.685546875
13.049999900000001,2.4684219360351562,-9.615114212036133,-0.6799532771110535,-6.8817138671875,12.4359130859375,0.3814697265625
13.069999900000001,2.4660277366638184,-9.636661529541016,-0.6560112833976746,-4.82177734375,7.9193115234375,-1.64794921875
13.0899999,2.4588451385498047,-9.627084732055664,-0.5770025849342346,3.2501220703125,-0.48828125,2.6397705078125
13.1099999,2.4468741416931152,-9.600749015808105,-0.5339069962501526,-2.593994140625,-2.9144287109375,6.256103515625
13.129999900000001,2.432508945465088,-9.57441234588623,-0.6200982332229614,-10.5133056640625,-1.129150390625,2.7008056640625
13.149999900000001,2.425326347351074,-9.576807022094727,-0.8140285611152649,-17.88330078125,3.6163330078125,0.7476806640625
13.1699999,2.410961151123047,-9.555258750915527,-0.9696516990661621,-10.0250244140625,16.693115234375,3.448486328125
13.1899999,2.403778553009033,-9.528923034667969,-0.950498104095459,-9.9334716796875,18.12744140625,5.4473876953125
13.209999900000001,2.3989901542663574,-9.528923034667969,-0.9097966551780701,-4.1961669921875,-0.2899169921875,5.3253173828125
13.229999900000001,2.3965959548950195,-9.5408935546875,-0.7876923680305481,-6.3323974609375,-3.2501220703125,-0.18310546875
13.2499999,2.3942017555236816,-9.567230224609375,-0.7206547260284424,-10.3912353515625,8.697509765625,-1.190185546875
13.2699999,2.3726539611816406,-9.567230224609375,-0.751779317855835,1.6937255859375,6.3934326171875,1.3885498046875
13.289999900000002,2.341529369354248,-9.531316757202148,-0.7469909191131592,5.2032470703125,2.7008056640625,2.4871826171875
13.309999900000001,2.315192937850952,-9.478644371032715,-0.727837324142456,2.8839111328125,2.6702880859375,2.593994140625
13.3299999,2.3056161403656006,-9.488221168518066,-0.7110779285430908,-4.5318603515625,2.3651123046875,4.9591064453125
13.3499999,2.296039342880249,-9.495404243469238,-0.7876923680305481,-3.448486328125,-2.2430419921875,2.3040771484375
13.3699999,2.298433542251587,-9.521739959716797,-0.8379706144332886,0.9002685546875,6.2103271484375,1.312255859375
13.389999900000001,2.293645143508911,-9.536105155944824,-0.8427590131759644,-2.960205078125,13.2598876953125,4.8828125
13.4099999,2.2912509441375732,-9.545681953430176,-0.8523358106613159,-4.2724609375,1.8157958984375,5.2490234375
13.4299999,2.3080103397369385,-9.612719535827637,-0.7661445140838623,3.11279296875,0.335693359375,4.913330078125
13.4499999,2.3080103397369385,-9.641449928283691,-0.7254431247711182,5.0811767578125,3.4027099609375,-3.23486328125
13.469999900000001,2.3127987384796143,-9.670180320739746,-0.7565677165985107,2.716064453125,2.38037109375,-3.0517578125
13.4899999,2.293645143508911,-9.617507934570312,-0.7637503147125244,7.9498291015625,8.5601806640625,2.8076171875
13.5099999,2.2577321529388428,-9.50737476348877,-0.7350199222564697,5.2947998046875,7.9803466796875,4.791259765625
13.5299999,2.2361843585968018,-9.44752025604248,-0.6631938815116882,8.2855224609375,0.396728515625,7.1258544921875
13.549999900000001,2.2218191623687744,-9.425971984863281,-0.6320692300796509,12.02392578125,-4.7607421875,4.9591064453125
13.569999900000001,2.2170307636260986,-9.452308654785156,-0.5913678407669067,4.730224609375,0.518798828125,3.1280517578125
13.5899999,2.22660756111145,-9.5408935546875,-0.646434485912323,9.9334716796875,3.2958984375,5.6304931640625
13.6099999,2.22660756111145,-9.591172218322754,-0.7613561153411865,15.4571533203125,-2.4261474609375,2.2125244140625
13.629999900000001,2.2242133617401123,-9.62947940826416,-0.768538773059845,5.6610107421875,5.889892578125,-0.701904296875
13.649999900000001,2.212242364883423,-9.643844604492188,-0.7422025203704834,-2.2735595703125,7.0037841796875,1.77001953125
13.6699999,2.1930887699127197,-9.619902610778809,-0.7565677165985107,3.082275390625,-6.011962890625,1.800537109375
13.6899999,2.1787235736846924,-9.627084732055664,-0.6655880808830261,2.7618408203125,2.105712890625,1.5869140625
13.709999900000001,2.166752576828003,-9.617507934570312,-0.6177040338516235,-4.669189453125,7.0343017578125,-2.3651123046875
13.729999900000001,2.145204782485962,-9.591172218322754,-0.5937620401382446,3.265380859375,-2.1820068359375,-2.8839111328125
13.7499999,2.1356279850006104,-9.583989143371582,-0.5315127968788147,4.669189453125,-3.5400390625,1.9683837890625
13.7699999,2.121262788772583,-9.567230224609375,-0.5195417404174805,1.6021728515625,-0.1068115234375,3.387451171875
13.789999900000002,2.1140801906585693,-9.555258750915527,-0.5602431893348694,-2.960205078125,-1.2969970703125,-0.4425048828125
13.809999900000001,2.1308395862579346,-9.615114212036133,-0.6177040338516235,-3.0364990234375,0.9918212890625,2.9296875
13.8299999,2.142810583114624,-9.62947940826416,-0.6368576288223267,-5.889892578125,3.082275390625,2.1820068359375
13.8499999,2.161964178085327,-9.667786598205566,-0.6631938815116882,-3.35693359375,0.946044921875,0.91552734375
13.8699999,2.1811177730560303,-9.713275909423828,-0.6368576288223267,1.251220703125,2.532958984375,2.1514892578125
13.889999900000001,2.190694570541382,-9.725247383117676,-0.6009446382522583,0.732421875,4.547119140625,-0.4119873046875
13.9099999,2.1930887699127197,-9.720458984375,-0.5626373887062073,-1.3885498046875,2.716064453125,0.244140625
13.9299999,2.190694570541382,-9.715670585632324,-0.5315127968788147,1.220703125,0.4425048828125,2.8076171875
13.9499999,2.183511972427368,-9.6989107131958,-0.507570743560791,2.7923583984375,3.47900390625,1.6937255859375
13.969999900000001,2.1787235736846924,-9.684545516967773,-0.5674257874488831,1.220703125,1.922607421875,-1.3427734375
13.9899999,2.185906171798706,-9.710882186889648,-0.5985504388809204,-6.3323974609375,4.9591064453125,1.312255859375
14.0099999,2.1763293743133545,-9.684545516967773,-0.5841852426528931,-5.8746337890625,6.8817138671875,-0.457763671875
14.0299999,2.164358377456665,-9.648633003234863,-0.5722141861915588,3.1890869140625,-1.9073486328125,-2.3193359375
14.049999900000001,2.1547815799713135,-9.622296333312988,-0.5099649429321289,11.29150390625,-2.9754638671875,1.3275146484375
14.069999900000001,2.126051187515259,-9.545681953430176,-0.45489832758903503,3.875732421875,0.91552734375,0
14.0899999,2.1116859912872314,-9.493009567260742,-0.5123591423034668,11.4898681640625,-4.2266845703125,0.3662109375
14.1099999,2.1045033931732178,-9.435548782348633,-0.5123591423034668,17.486572265625,0.48828125,4.08935546875
14.129999900000001,2.1164743900299072,-9.421183586120605,-0.5770025849342346,5.2642822265625,-0.54931640625,6.134033203125
14.149999900000001,2.1475989818573,-9.485827445983887,-0.6009446382522583,5.0811767578125,0.091552734375,5.7525634765625
14.1699999,2.183511972427368,-9.586383819580078,-0.5937620401382446,3.753662109375,3.47900390625,0.396728515625
14.1899999,2.205059766769409,-9.694122314453125,-0.5554547905921936,-1.9683837890625,2.3956298828125,-4.5318603515625
14.209999900000001,2.188300371170044,-9.720458984375,-0.47405192255973816,-1.190185546875,1.190185546875,-4.3487548828125
14.229999900000001,2.1499931812286377,-9.658209800720215,-0.38067805767059326,3.4942626953125,2.349853515625,-0.7476806640625
14.2499999,2.1116859912872314,-9.59835433959961,-0.2753331959247589,3.23486328125,2.532958984375,3.570556640625
14.2699999,2.0877439975738525,-9.5624418258667,-0.2753331959247589,2.532958984375,-3.0975341796875,1.5716552734375
14.289999900000002,2.0877439975738525,-9.588777542114258,-0.26575639843940735,-5.2490234375,1.3580322265625,-1.4190673828125
14.309999900000001,2.0853497982025146,-9.605537414550781,-0.2585737705230713,-9.4451904296875,6.65283203125,-2.593994140625
14.3299999,2.0829553604125977,-9.603142738342285,-0.31364041566848755,-3.448486328125,-2.9144287109375,0.701904296875
14.3499999,2.0829553604125977,-9.576807022094727,-0.3256114423274994,-2.9754638671875,-2.50244140625,4.486083984375
14.3699999,2.094926595687866,-9.564835548400879,-0.35434186458587646,-4.7607421875,5.2947998046875,4.0130615234375
14.389999900000001,2.1116859912872314,-9.581595420837402,-0.42377370595932007,-0.6103515625,2.9449462890625,1.7852783203125
14.4099999,2.145204782485962,-9.66299819946289,-0.45489832758903503,-1.953125,-0.7781982421875,2.7923583984375
14.4299999,2.1595699787139893,-9.739612579345703,-0.4812345504760742,1.03759765625,1.3580322265625,1.0528564453125
14.4499999,2.161964178085327,-9.804255485534668,-0.5171475410461426,5.7220458984375,4.4403076171875,-3.2196044921875
14.469999900000001,2.1475989818573,-9.801861763000488,-0.47405192255973816,1.953125,8.97216796875,-3.23486328125
14.4899999,2.1332337856292725,-9.787496566772461,-0.49320554733276367,-2.5177001953125,0.67138671875,0.5950927734375
14.5099999,2.1499931812286377,-9.84495735168457,-0.6105214357376099,-1.0833740234375,-1.6021728515625,0.946044921875
14.5299999,2.183511972427368,-9.943120002746582,-0.8259995579719543,-14.7705078125,14.0838623046875,-11.6729736328125
14.549999900000001,2.248155355453491,-10.077195167541504,-0.9744400978088379,-33.5235595703125,33.111572265625,-21.026611328125
14.569999900000001,2.3295583724975586,-10.24000072479248,-0.993593692779541,-30.45654296875,27.2216796875,-17.6239013671875
14.5899999,2.4396915435791016,-10.42195987701416,-0.9313444495201111,-9.1400146484375,10.5133056640625,-22.39990234375
14.6099999,2.5761611461639404,-10.649409294128418,-0.8379706144332886,-2.227783203125,21.1334228515625,-40.0848388671875
14.629999900000001,2.7676970958709717,-10.96304988861084,-0.8379706144332886,1.861572265625,42.694091796875,-57.647705078125
14.649999900000001,2.985569477081299,-11.288661003112793,-0.8259995579719543,3.2806396484375,44.219970703125,-70.6939697265625
14.6699999,3.157952070236206,-11.372458457946777,-0.6488286852836609,16.2353515625,40.008544921875,-93.4906005859375
14.6899999,3.2800562381744385,-11.188104629516602,-0.5482721924781799,16.0675048828125,29.1900634765625,-107.147216796875
14.709999900000001,3.4356794357299805,-10.96544361114502,-0.4165911078453064,8.8958740234375,29.9530029296875,-93.963623046875
14.729999900000001,3.581725835800171,-10.620678901672363,-0.22744916379451752,16.204833984375,53.466796875,-99.212646484375
14.7499999,3.758896589279175,-10.232817649841309,0.004788403399288654,46.234130859375,41.9464111328125,-130.67626953125
14.7699999,3.9432501792907715,-9.775525093078613,0.6009446382522583,41.0919189453125,30.57861328125,-130.4473876953125
14.789999900000002,4.137180328369141,-9.241618156433105,1.1755530834197998,27.7099609375,8.1329345703125,-110.2142333984375
14.809999900000001,4.426878929138184,-9.033323287963867,1.5131354331970215,33.3404541015625,-16.4337158203125,-97.0001220703125
14.8299999,4.750096321105957,-8.916007041931152,1.7094600200653076,47.698974609375,-10.1165771484375,-134.674072265625
14.8499999,5.03021764755249,-8.676587104797363,1.5538369417190552,65.2313232421875,-15.6097412109375,-167.6483154296875
14.8699999,5.231330871582031,-8.006210327148438,1.290474772453308,70.6329345703125,-29.205322265625,-133.6517333984375
14.889999900000001,5.398924827575684,-7.096413612365723,1.1635819673538208,64.3310546875,-15.5792236328125,-74.0966796875
14.9099999,5.674258232116699,-6.428431510925293,1.1563993692398071,59.0667724609375,-18.4326171875,-64.63623046875
14.9299999,6.045359134674072,-6.258443355560303,1.37906014919281,63.04931640625,-39.8712158203125,-98.69384765625
14.9499999,6.406883716583252,-6.287173748016357,1.824381709098816,62.56103515625,-60.211181640625,-121.2005615234375
14.969999900000001,6.617573261260986,-6.14831018447876,2.279279947280884,63.17138671875,-75.7904052734375,-95.1690673828125
14.9899999,6.636727333068848,-5.547365188598633,2.5785553455352783,62.9730224609375,-97.137451171875,-67.108154296875
15.0099999,6.5696892738342285,-4.750096321105957,2.695871114730835,77.484130859375,-112.4725341796875,-51.0101318359375
15.0299999,6.531382083892822,-4.14915132522583,2.6815059185028076,112.7166748046875,-117.3553466796875,-26.30615234375
15.049999900000001,6.469132900238037,-3.7660791873931885,2.580949544906616,165.8172607421875,-131.0882568359375,-5.4931640625
15.069999900000001,6.423643112182617,-3.641580820083618,2.075772762298584,165.771484375,-178.9398193359375,7.7056884765625
15.0899999,6.320692539215088,-3.5242648124694824,1.5131354331970215,112.1368408203125,-168.6553955078125,22.2320556640625
15.1099999,6.145915985107422,-3.421314239501953,0.545877993106842,94.0704345703125,-147.3388671875,59.87548828125
15.129999900000001,5.932831764221191,-3.224989652633667,-0.42616790533065796,71.0296630859375,-147.674560546875,95.2911376953125
15.149999900000001,5.69580602645874,-3.222595453262329,-1.0319008827209473,60.5010986328125,-123.71826171875,127.62451171875
15.1699999,5.453991413116455,-3.6080620288848877,-1.3311761617660522,68.267822265625,-121.7193603515625,149.59716796875
15.1899999,5.193023681640625,-4.355052947998047,-1.3479355573654175,71.624755859375,-137.2528076171875,152.5115966796875
15.209999900000001,4.867412090301514,-5.288791656494141,-1.338358759880066,70.00732421875,-137.3443603515625,150.8636474609375
15.229999900000001,4.46518611907959,-6.165069580078125,-1.4460978507995605,68.29833984375,-117.218017578125,156.1737060546875
15.2499999,4.000710964202881,-6.84981107711792,-1.7334020137786865,55.4656982421875,-100.7080078125,175.811767578125
15.2699999,3.4763808250427246,-7.321468830108643,-2.049436569213867,38.3453369140625,-95.52001953125,187.9730224609375
15.289999900000002,2.920926094055176,-7.704541206359863,-2.2433669567108154,22.3388671875,-92.5445556640625,191.864013671875
15.309999900000001,2.3750481605529785,-8.17141056060791,-2.2864625453948975,24.71923828125,-87.0208740234375,203.6590576171875
15.3299999,1.845929503440857,-8.746018409729004,-2.1164743900299072,58.10546875,-72.7996826171875,204.864501953125
15.3499999,1.2665326595306396,-9.255983352661133,-2.094926595687866,85.5865478515625,-73.944091796875,186.8133544921875
15.3699999,0.6560112833976746,-9.715670585632324,-2.319981336593628,82.6568603515625,-57.586669921875,187.6678466796875
15.389999900000001,0.016759412363171577,-10.1753568649292,-2.8562827110290527,43.6553955078125,-12.847900390625,212.8753662109375
15.4099999,-0.689530074596405,-10.431536674499512,-3.6128504276275635,11.322021484375,26.4739990234375,201.0955810546875
15.4299999,-1.381454348564148,-10.690110206604004,-4.120420932769775,24.2767333984375,75.4241943359375,184.417724609375
15.4499999,-1.9584569931030273,-11.022904396057129,-3.9839515686035156,11.444091796875,111.7401123046875,193.9239501953125
15.469999900000001,-2.518700122833252,-11.18092155456543,-3.315969467163086,-13.336181640625,99.395751953125,183.9599609375
15.4899999,-2.9472622871398926,-11.32457447052002,-2.559401512145996,12.26806640625,69.183349609375,164.9017333984375
15.5099999,-3.2848446369171143,-11.57596492767334,-1.4389152526855469,5.4931640625,114.7613525390625,165.9698486328125
15.5299999,-3.6774938106536865,-11.45146656036377,-0.9385270476341248,14.0838623046875,111.328125,135.9710693359375
15.549999900000001,-4.084507942199707,-11.279084205627441,-0.8619126081466675,67.3828125,89.385986328125,128.173828125
15.569999900000001,-4.587290287017822,-10.96304988861084,-1.2282254695892334,41.412353515625,131.7291259765625,144.4091796875
15.5899999,-5.078101634979248,-10.836156845092773,-1.8076223134994507,22.369384765625,183.868408203125,139.434814453125
15.6099999,-5.434837818145752,-11.015722274780273,-2.365471363067627,33.3709716796875,196.380615234375,106.01806640625
15.629999900000001,-5.688623428344727,-11.578359603881836,-2.4612393379211426,85.63232421875,195.037841796875,64.697265625
15.649999900000001,-5.705382823944092,-12.167332649230957,-2.4899697303771973,142.9443359375,205.9173583984375,15.93017578125
15.6699999,-5.564124584197998,-12.959814071655273,-2.2242133617401123,83.4503173828125,213.8671875,-6.744384765625
15.6899999,-5.202600479125977,-13.838485717773438,-1.7286136150360107,45.5322265625,203.6285400390625,-54.7943115234375
15.709999900000001,-4.836287498474121,-14.36521053314209,-0.6536170840263367,57.9833984375,197.08251953125,-157.0587158203125
15.729999900000001,-4.522646903991699,-14.223952293395996,0.5674257874488831,79.1473388671875,131.5155029296875,-219.54345703125
15.7499999,-4.3861775398254395,-12.921506881713867,1.5969325304031372,82.6873779296875,95.062255859375,-205.8868408203125
15.7699999,-4.2760443687438965,-10.869675636291504,2.075772762298584,40.71044921875,93.5516357421875,-155.8685302734375
15.789999900000002,-3.912125587463379,-8.999804496765137,2.0254945755004883,-20.01953125,88.6688232421875,-114.4866943359375
15.809999900000001,-3.2321722507476807,-7.95832633972168,1.8531121015548706,-6.805419921875,67.962646484375,-120.269775390625
15.8299999,-2.389413356781006,-7.735665798187256,1.742978811264038,41.1224365234375,44.891357421875,-148.956298828125
15.8499999,-1.5322890281677246,-7.99184513092041,1.4508862495422363,71.71630859375,17.76123046875,-138.4429931640625
15.869999900000002,-0.7805097699165344,-8.53532886505127,1.1085153818130493,64.8040771484375,25.604248046875,-93.6279296875
15.889999900000001,-0.2322375625371933,-8.884882926940918,0.6200982332229614,27.130126953125,31.2652587890625,-94.207763671875
15.9099999,0.19871874153614044,-9.131484985351562,0.23702596127986908,13.12255859375,13.6566162109375,-111.51123046875
15.9299999,0.5027823448181152,-9.083600997924805,0.22505496442317963,32.196044921875,9.09423828125,-85.205078125
15.9499999,0.6392518281936646,-8.607154846191406,0.49320554733276367,47.607421875,3.8909912109375,-51.910400390625
15.969999900000001,0.730231523513794,-8.02536392211914,0.6224924325942993,54.3975830078125,-22.39990234375,-27.4505615234375
15.9899999,0.8619126081466675,-7.759607791900635,0.730231523513794,31.2042236328125,-17.51708984375,-7.4005126953125
16.0099999,1.0271124839782715,-7.797914981842041,0.6607996821403503,0.30517578125,0.06103515625,-9.307861328125
16.0299999,1.259350061416626,-8.219294548034668,0.5482721924781799,-8.9874267578125,-10.4522705078125,-10.467529296875
16.0499999,1.479616641998291,-8.71728801727295,0.608127236366272,-3.8604736328125,-13.4735107421875,-9.246826171875
16.0699999,1.6208745241165161,-9.040505409240723,0.7350199222564697,3.2958984375,-14.0380859375,-15.3656005859375
16.089999900000002,1.680729627609253,-9.150638580322266,0.7326257228851318,0.5950927734375,-21.575927734375,-6.8359375
16.109999900000002,1.659181833267212,-9.081207275390625,0.7398083209991455,-7.8277587890625,-14.5721435546875,10.3607177734375
16.1299999,1.599326729774475,-8.925583839416504,0.6009446382522583,-12.2528076171875,-13.36669921875,17.1356201171875
16.1499999,1.5849615335464478,-8.971074104309082,0.4596867263317108,-12.0391845703125,-16.571044921875,19.6685791015625
16.1699999,1.5849615335464478,-9.133879661560059,0.23942017555236816,-24.3377685546875,-12.20703125,12.542724609375
16.1899999,1.6184803247451782,-9.390059471130371,-0.07900865375995636,-47.576904296875,-11.688232421875,7.080078125
16.2099999,1.644816517829895,-9.639056205749512,-0.2346317619085312,-75.408935546875,7.049560546875,15.3656005859375
16.2299999,1.644816517829895,-9.773131370544434,-0.3974374830722809,-67.840576171875,-1.2359619140625,15.2740478515625
16.249999900000002,1.6400281190872192,-9.904812812805176,-0.4429273009300232,-51.8951416015625,-10.009765625,15.3961181640625
16.269999900000002,1.625662922859192,-10.04846477508545,-0.45489832758903503,-42.48046875,0.4730224609375,12.6190185546875
16.2899999,1.601720929145813,-10.189722061157227,-0.5602431893348694,-36.163330078125,5.0506591796875,5.67626953125
16.3099999,1.5969325304031372,-10.35252857208252,-0.7326257228851318,-9.0179443359375,3.387451171875,0.2288818359375
16.3299999,1.5394717454910278,-10.287884712219238,-0.7374141216278076,1.9073486328125,13.5040283203125,-7.2174072265625
16.3499999,1.50355863571167,-10.17296314239502,-0.7972691655158997,-2.44140625,6.16455078125,0.885009765625
16.3699999,1.4413094520568848,-9.938331604003906,-0.7422025203704834,-3.0670166015625,-3.326416015625,8.97216796875
16.3899999,1.4077905416488647,-9.799467086791992,-0.751779317855835,0.152587890625,-6.8206787109375,7.01904296875
16.4099999,1.4077905416488647,-9.813833236694336,-0.8619126081466675,5.0201416015625,-8.8043212890625,0.5950927734375
16.429999900000002,1.400607943534851,-9.849745750427246,-0.9768342971801758,2.166748046875,0.823974609375,-9.613037109375
16.4499999,1.3934253454208374,-9.856928825378418,-1.0678139925003052,-0.06103515625,4.364013671875,-7.6904296875
16.4699999,1.3670891523361206,-9.787496566772461,-1.0462661981582642,-6.4697265625,-4.45556640625,1.739501953125
16.4899999,1.3455413579940796,-9.68933391571045,-1.036689281463623,0.3662109375,-13.1683349609375,4.180908203125
16.5099999,1.3431471586227417,-9.66299819946289,-1.070208191871643,5.3558349609375,-6.6070556640625,0.9002685546875
16.5299999,1.3503297567367554,-9.703699111938477,-1.1300631761550903,-6.4544677734375,3.4637451171875,-3.082275390625
16.5499999,1.3551181554794312,-9.725247383117676,-1.2473790645599365,-9.307861328125,0.8087158203125,-4.150390625
16.5699999,1.359906554222107,-9.75637149810791,-1.2473790645599365,-2.2125244140625,-2.593994140625,0.640869140625
16.589999900000002,1.338358759880066,-9.6989107131958,-1.158793568611145,-1.861572265625,0.91552734375,-2.0751953125
16.609999900000002,1.3263877630233765,-9.653421401977539,-1.1252747774124146,5.096435546875,-4.7149658203125,-1.1749267578125
16.6299999,1.316810965538025,-9.59835433959961,-1.0462661981582642,4.2572021484375,-2.62451171875,2.2125244140625
16.6499999,1.3263877630233765,-9.600749015808105,-1.1085153818130493,0.1373291015625,-3.35693359375,4.119873046875
16.6699999,1.3551181554794312,-9.674968719482422,-1.1899182796478271,-3.082275390625,-2.9144287109375,1.6632080078125
16.6899999,1.3766659498214722,-9.715670585632324,-1.235408067703247,3.1280517578125,7.1258544921875,-6.683349609375
16.7099999,1.3886369466781616,-9.739612579345703,-1.2282254695892334,2.74658203125,3.7994384765625,-5.767822265625
16.7299999,1.3670891523361206,-9.660603523254395,-1.1755530834197998,2.044677734375,-4.9591064453125,1.5106201171875
16.749999900000002,1.3455413579940796,-9.57201862335205,-1.1013327836990356,2.044677734375,-1.89208984375,4.5928955078125
16.769999900000002,1.3431471586227417,-9.57201862335205,-1.1109095811843872,-0.823974609375,1.0986328125,5.67626953125
16.7899999,1.3431471586227417,-9.576807022094727,-1.1324573755264282,-0.7171630859375,3.4027099609375,-2.1514892578125
16.8099999,1.3551181554794312,-9.619902610778809,-1.1180921792984009,-3.5247802734375,4.2572021484375,-1.2054443359375
16.8299999,1.3670891523361206,-9.66299819946289,-1.0678139925003052,2.7008056640625,-0.8087158203125,5.340576171875
16.8499999,1.3623007535934448,-9.646238327026367,-0.9888052940368652,5.06591796875,-0.8697509765625,1.8768310546875
16.8699999,1.3694833517074585,-9.68933391571045,-0.9696516990661621,-0.42724609375,-2.3040771484375,2.166748046875
16.8899999,1.3766659498214722,-9.732429504394531,-0.9911994934082031,-4.4097900390625,-1.861572265625,2.777099609375
16.9099999,1.3766659498214722,-9.751583099365234,-0.9983820915222168,-3.72314453125,3.0975341796875,0.335693359375
16.929999900000002,1.3646949529647827,-9.725247383117676,-0.9983820915222168,2.5634765625,1.6937255859375,-1.5411376953125
16.9499999,1.3431471586227417,-9.672574996948242,-0.9864110946655273,0.732421875,-3.7078857421875,2.5787353515625
16.9699999,1.3215993642807007,-9.636661529541016,-0.950498104095459,-3.4027099609375,0.3509521484375,7.1868896484375
16.9899999,1.3000515699386597,-9.615114212036133,-0.9528923034667969,0.8697509765625,2.3345947265625,3.5247802734375
17.0099999,1.3000515699386597,-9.660603523254395,-0.9624691009521484,4.5166015625,0.152587890625,0.823974609375
17.0299999,1.3120225667953491,-9.742006301879883,-0.9385270476341248,-0.762939453125,0.0762939453125,1.6632080078125
17.0499999,1.3287819623947144,-9.821015357971191,-0.9720458984375,0.091552734375,-1.007080078125,-0.3509521484375
17.0699999,1.3407529592514038,-9.8784761428833,-1.0271124839782715,0.6256103515625,-1.5411376953125,-2.716064453125
17.089999900000002,1.3431471586227417,-9.90241813659668,-1.048660397529602,-4.8828125,6.256103515625,-3.0059814453125
17.109999900000002,1.3287819623947144,-9.86889934539795,-1.0606313943862915,-4.2724609375,4.150390625,-1.3427734375
17.1299999,1.3120225667953491,-9.816226959228516,-1.048660397529602,-3.875732421875,-2.655029296875,-0.06103515625
17.1499999,1.3048399686813354,-9.804255485534668,-1.0534487962722778,-5.7220458984375,-1.5869140625,-0.6103515625
17.1699999,1.3072341680526733,-9.801861763000488,-1.139639973640442,-11.1541748046875,4.6539306640625,-6.53076171875
17.1899999,1.3096283674240112,-9.775525093078613,-1.2425906658172607,-17.7764892578125,10.040283203125,-9.82666015625
17.2099999,1.3048399686813354,-9.677363395690918,-1.2473790645599365,-16.3116455078125,13.153076171875,-5.2337646484375
17.2299999,1.2952631711959839,-9.526528358459473,-1.1683704853057861,-10.284423828125,5.7830810546875,2.86865234375
17.249999900000002,1.3072341680526733,-9.459490776062012,-1.0845733880996704,-7.5225830078125,-4.852294921875,8.575439453125
17.269999900000002,1.3431471586227417,-9.50737476348877,-1.0582371950149536,-13.3056640625,-3.387451171875,4.6539306640625
17.2899999,1.3958195447921753,-9.670180320739746,-1.1516109704971313,-17.7459716796875,2.593994140625,-4.1046142578125
17.3099999,1.4269442558288574,-9.804255485534668,-1.2401964664459229,-16.7999267578125,4.8370361328125,-7.537841796875
17.3299999,1.4269442558288574,-9.821015357971191,-1.2880805730819702,-0.3662109375,2.3193359375,-4.241943359375
17.3499999,1.400607943534851,-9.732429504394531,-1.290474772453308,5.859375,-3.6468505859375,1.52587890625
17.3699999,1.3646949529647827,-9.619902610778809,-1.2713210582733154,2.716064453125,-4.5318603515625,3.5400390625
17.3899999,1.3431471586227417,-9.545681953430176,-1.316810965538025,9.7503662109375,-1.068115234375,2.0294189453125
17.409999900000003,1.3407529592514038,-9.564835548400879,-1.3623007535934448,8.270263671875,0.244140625,1.7242431640625
17.429999900000002,1.3407529592514038,-9.600749015808105,-1.403002142906189,-1.556396484375,-0.42724609375,0.54931640625
17.4499999,1.3455413579940796,-9.658209800720215,-1.4053963422775269,3.84521484375,0.6256103515625,-0.030517578125
17.4699999,1.3407529592514038,-9.672574996948242,-1.3670891523361206,9.1552734375,1.2054443359375,-0.244140625
17.4899999,1.3335703611373901,-9.691728591918945,-1.3431471586227417,4.8675537109375,-1.6021728515625,1.800537109375
17.5099999,1.3263877630233765,-9.710882186889648,-1.3407529592514038,-3.3416748046875,-2.5482177734375,2.13623046875
17.5299999,1.3215993642807007,-9.718064308166504,-1.3239935636520386,1.1444091796875,4.2572021484375,-0.8697509765625
17.5499999,1.3192051649093628,-9.732429504394531,-1.2952631711959839,4.0740966796875,3.3721923828125,-1.9683837890625
17.5699999,1.3096283674240112,-9.72285270690918,-1.2832920551300049,1.2664794921875,-3.41796875,0.1983642578125
17.589999900000002,1.3048399686813354,-9.732429504394531,-1.3239935636520386,-5.06591796875,-4.608154296875,0.5035400390625
17.609999900000002,1.2952631711959839,-9.72285270690918,-1.3623007535934448,-5.43212890625,6.8206787109375,-2.2125244140625
17.6299999,1.280897855758667,-9.684545516967773,-1.400607943534851,-0.5340576171875,8.23974609375,-4.974365234375
17.6499999,1.2713210582733154,-9.627084732055664,-1.3766659498214722,4.0130615234375,-1.068115234375,0.79345703125
17.6699999,1.2665326595306396,-9.576807022094727,-1.3096283674240112,1.77001953125,-3.448486328125,5.31005859375
17.6899999,1.278503656387329,-9.588777542114258,-1.2952631711959839,1.9989013671875,-0.4119873046875,3.1890869140625
17.7099999,1.3024457693099976,-9.660603523254395,-1.3072341680526733,-0.0457763671875,3.3416748046875,-1.3275146484375
17.7299999,1.3311761617660522,-9.727641105651855,-1.3239935636520386,5.6915283203125,3.5858154296875,-2.2735595703125
17.749999900000002,1.3407529592514038,-9.739612579345703,-1.3192051649093628,4.9285888671875,0.6103515625,0.213623046875
17.769999900000002,1.3527239561080933,-9.727641105651855,-1.3072341680526733,1.3885498046875,-2.3956298828125,3.96728515625
17.7899999,1.3527239561080933,-9.718064308166504,-1.2952631711959839,-0.1068115234375,0.4425048828125,2.5787353515625
17.8099999,1.359906554222107,-9.739612579345703,-1.2976573705673218,6.3934326171875,3.0059814453125,-0.4425048828125
17.8299999,1.357512354850769,-9.761159896850586,-1.2617442607879639,2.593994140625,2.6397705078125,-1.5106201171875
17.8499999,1.3479355573654175,-9.770736694335938,-1.2401964664459229,0.0152587890625,-1.4495849609375,0.1220703125
17.8699999,1.3263877630233765,-9.744400978088379,-1.216254472732544,-2.25830078125,-0.762939453125,0.1220703125
17.8899999,1.3192051649093628,-9.746794700622559,-1.2258312702178955,0.9002685546875,2.01416015625,0.1220703125
17.909999900000003,1.2976573705673218,-9.703699111938477,-1.216254472732544,4.5166015625,4.57763671875,-3.2806396484375
17.929999900000002,1.2856862545013428,-9.670180320739746,-1.1994950771331787,2.166748046875,1.5869140625,-2.288818359375
17.9499999,1.2880805730819702,-9.670180320739746,-1.173158884048462,0.0457763671875,-2.25830078125,3.5247802734375
17.9699999,1.280897855758667,-9.655815124511719,-1.1276689767837524,1.1138916015625,1.3580322265625,0.0152587890625
17.9899999,1.2832920551300049,-9.674968719482422,-1.070208191871643,2.2735595703125,2.8533935546875,-3.814697265625
18.0099999,1.2952631711959839,-9.758766174316406,-1.0055646896362305,0,-2.0751953125,0.9918212890625
18.0299999,1.3096283674240112,-9.840168952941895,-0.9816226959228516,0,-8.3465576171875,0.457763671875
18.0499999,1.3239935636520386,-9.909601211547852,-0.9744400978088379,6.8511962890625,-1.0528564453125,-6.8817138671875
18.0699999,1.3407529592514038,-9.938331604003906,-1.0678139925003052,4.3792724609375,-0.18310546875,-7.904052734375
18.089999900000002,1.3479355573654175,-9.888052940368652,-1.1659762859344482,1.251220703125,-1.77001953125,-3.60107421875
18.109999900000002,1.3311761617660522,-9.715670585632324,-1.2306196689605713,0.9613037109375,1.3275146484375,-4.150390625
18.1299999,1.3192051649093628,-9.543288230895996,-1.280897855758667,1.0528564453125,0.6866455078125,-1.40380859375
18.1499999,1.3239935636520386,-9.406818389892578,-1.290474772453308,1.3885498046875,-0.030517578125,3.021240234375
18.1699999,1.3311761617660522,-9.339780807495117,-1.2880805730819702,0.9002685546875,0.885009765625,2.50244140625
18.1899999,1.3623007535934448,-9.406818389892578,-1.3072341680526733,1.220703125,-0.579833984375,2.3651123046875
18.2099999,1.3862427473068237,-9.516951560974121,-1.259350061416626,-2.99072265625,4.638671875,0.701904296875
18.2299999,1.3982137441635132,-9.641449928283691,-1.2066776752471924,-1.3427734375,3.875732421875,-1.708984375
18.249999900000002,1.3982137441635132,-9.727641105651855,-1.161187767982483,3.8299560546875,-1.9989013671875,0.4119873046875
18.269999900000002,1.3862427473068237,-9.758766174316406,-1.1109095811843872,-0.67138671875,0.823974609375,1.3580322265625
18.2899999,1.3838485479354858,-9.785101890563965,-1.137245774269104,-2.655029296875,2.1514892578125,1.220703125
18.3099999,1.3838485479354858,-9.775525093078613,-1.1252747774124146,-0.823974609375,5.18798828125,-0.8087158203125
18.3299999,1.3910311460494995,-9.782708168029785,-1.1300631761550903,-1.800537109375,-0.06103515625,-0.640869140625
18.3499999,1.3982137441635132,-9.775525093078613,-1.1420341730117798,2.1209716796875,-2.8839111328125,0.7171630859375
18.3699999,1.4053963422775269,-9.775525093078613,-1.1635819673538208,-0.4119873046875,3.7078857421875,-0.7171630859375
18.3899999,1.3910311460494995,-9.72285270690918,-1.1635819673538208,-2.227783203125,7.415771484375,-3.41796875
18.409999900000003,1.3766659498214722,-9.667786598205566,-1.1468225717544556,0.0457763671875,0.0152587890625,-0.4119873046875
18.429999900000002,1.3551181554794312,-9.583989143371582,-1.0845733880996704,5.035400390625,-3.35693359375,3.4332275390625
18.4499999,1.3479355573654175,-9.569623947143555,-1.0534487962722778,2.8076171875,-0.1983642578125,4.425048828125
18.4699999,1.3503297567367554,-9.59596061706543,-1.0749965906143188,0.762939453125,2.044677734375,0.6103515625
18.4899999,1.3766659498214722,-9.694122314453125,-1.137245774269104,-2.044677734375,0.732421875,-1.0833740234375
18.5099999,1.3862427473068237,-9.737217903137207,-1.1420341730117798,-1.8463134765625,2.9296875,-3.2958984375
18.5299999,1.3886369466781616,-9.737217903137207,-1.1276689767837524,-1.9989013671875,1.5411376953125,-2.86865234375
18.5499999,1.381454348564148,-9.694122314453125,-1.0821791887283325,0.091552734375,-2.197265625,1.28173828125
18.5699999,1.3670891523361206,-9.643844604492188,-1.0678139925003052,1.0528564453125,-3.72314453125,2.86865234375
18.589999900000002,1.3646949529647827,-9.622296333312988,-1.0989385843276978,3.936767578125,-1.3580322265625,1.617431640625
18.609999900000002,1.3694833517074585,-9.658209800720215,-1.1779472827911377,4.8675537109375,1.4190673828125,0.9002685546875
18.6299999,1.3742717504501343,-9.703699111938477,-1.2497732639312744,1.373291015625,3.387451171875,-1.739501953125
18.6499999,1.3742717504501343,-9.725247383117676,-1.235408067703247,-0.0457763671875,6.072998046875,-2.9449462890625
18.6699999,1.3670891523361206,-9.72285270690918,-1.194706678390503,2.62451171875,1.556396484375,-0.7171630859375
18.6899999,1.3623007535934448,-9.706093788146973,-1.1204863786697388,5.035400390625,-1.52587890625,2.349853515625
18.7099999,1.3551181554794312,-9.684545516967773,-1.070208191871643,0.0762939453125,1.3275146484375,1.03759765625
18.7299999,1.3527239561080933,-9.670180320739746,-1.0534487962722778,-0.79345703125,2.899169921875,-0.67138671875
18.749999900000002,1.335964560508728,-9.624691009521484,-0.9983820915222168,0.3204345703125,3.7689208984375,0.06103515625
18.769999900000002,1.3192051649093628,-9.581595420837402,-0.9481038451194763,5.7220458984375,-0.396728515625,4.2724609375
18.7899999,1.3024457693099976,-9.564835548400879,-0.9624691009521484,6.16455078125,-5.79833984375,6.103515625
18.8099999,1.292868971824646,-9.586383819580078,-1.0103530883789062,2.44140625,1.3275146484375,3.0975341796875
18.8299999,1.2952631711959839,-9.63187313079834,-1.0773907899856567,-3.2806396484375,8.60595703125,0.1220703125
18.8499999,1.3000515699386597,-9.672574996948242,-1.113303780555725,-0.9918212890625,4.39453125,3.265380859375
18.8699999,1.3096283674240112,-9.706093788146973,-1.0438719987869263,0.2899169921875,-0.30517578125,4.6234130859375
18.8899999,1.3048399686813354,-9.6989107131958,-0.9696516990661621,3.0975341796875,-0.6561279296875,1.3427734375
18.909999900000003,1.3096283674240112,-9.739612579345703,-0.9792284965515137,2.8076171875,-3.8299560546875,2.105712890625
18.929999900000002,1.3072341680526733,-9.761159896850586,-0.9696516990661621,-2.1514892578125,3.448486328125,3.5858154296875
18.9499999,1.292868971824646,-9.75397777557373,-1.0199298858642578,0.885009765625,3.204345703125,0.244140625
18.9699999,1.2856862545013428,-9.75637149810791,-1.0654197931289673,7.4920654296875,0.457763671875,2.4871826171875
18.9899999,1.2737152576446533,-9.739612579345703,-1.0414776802062988,-0.8392333984375,4.5166015625,2.7618408203125
19.0099999,1.2689268589019775,-9.744400978088379,-1.0606313943862915,-3.570556640625,2.655029296875,0.91552734375
19.0299999,1.259350061416626,-9.744400978088379,-1.0103530883789062,-3.47900390625,0.06103515625,-2.0294189453125
19.0499999,1.237802267074585,-9.720458984375,-0.9648633003234863,5.2490234375,-1.0223388671875,-1.0986328125
19.0699999,1.2114660739898682,-9.679757118225098,-0.9361328482627869,9.490966796875,-2.8228759765625,3.2958984375
19.089999900000002,1.194706678390503,-9.682151794433594,-0.9600749015808105,4.57763671875,-0.8392333984375,6.591796875
19.109999900000002,1.194706678390503,-9.732429504394531,-1.0319008827209473,2.38037109375,4.0435791015625,1.953125
19.1299999,1.2114660739898682,-9.861717224121094,-1.1013327836990356,1.007080078125,7.7972412109375,-2.166748046875
19.1499999,1.2234370708465576,-9.926360130310059,-1.0534487962722778,3.2196044921875,11.932373046875,-4.8675537109375
19.1699999,1.2401964664459229,-9.99339771270752,-1.0103530883789062,6.6375732421875,4.6234130859375,-0.9002685546875
19.1899999,1.2689268589019775,-10.072406768798828,-0.9888052940368652,7.8125,2.777099609375,0.396728515625
19.2099999,1.335964560508728,-10.251971244812012,-0.9911994934082031,-0.67138671875,15.960693359375,-9.5672607421875
19.2299999,1.4939818382263184,-10.759542465209961,-1.161187767982483,-4.8065185546875,17.6544189453125,-20.0958251953125
19.249999900000002,1.7501614093780518,-11.60948371887207,-1.4867992401123047,-13.5040283203125,17.059326171875,-43.9453125
19.269999900000002,2.0446481704711914,-12.576741218566895,-1.7597382068634033,-28.472900390625,45.8831787109375,-92.10205078125
19.2899999,2.3343467712402344,-13.479355812072754,-1.9321208000183105,-16.7083740234375,69.1375732421875,-138.427734375
19.3099999,2.5306711196899414,-13.814543724060059,-1.9584569931030273,17.76123046875,61.03515625,-170.8526611328125
19.3299999,2.669534921646118,-13.563152313232422,-1.3263877630233765,10.55908203125,74.3865966796875,-188.5223388671875
19.3499999,2.6815059185028076,-12.521675109863281,-0.3687070608139038,3.7994384765625,62.92724609375,-194.549560546875
19.3699999,2.829946517944336,-11.233593940734863,0.0071826050989329815,2.4871826171875,-38.87939453125,-177.79541015625
19.3899999,3.028665065765381,-9.988609313964844,0.5626373887062073,-15.7318115234375,5.340576171875,-145.93505859375
19.409999900000003,3.35667085647583,-8.614337921142578,0.7254431247711182,1.9073486328125,60.150146484375,-168.8079833984375
19.429999900000002,3.8115692138671875,-7.690176010131836,0.8978256583213806,44.189453125,6.2713623046875,-149.7039794921875
19.4499999,4.333505153656006,-7.108384609222412,1.4700398445129395,38.9556884765625,-34.48486328125,-114.9444580078125
19.4699999,4.809951305389404,-6.502651691436768,1.6879122257232666,13.763427734375,-64.788818359375,-127.6092529296875
19.4899999,5.363011837005615,-6.536170482635498,1.41257905960083,10.9100341796875,-74.737548828125,-109.1766357421875
19.5099999,5.7987565994262695,-6.445190906524658,0.9624691009521484,32.501220703125,-32.7911376953125,-99.456787109375
19.5299999,6.222530364990234,-6.550535678863525,0.5554547905921936,54.74853515625,-33.233642578125,-103.851318359375
19.5499999,6.469132900238037,-6.461950302124023,0.6009446382522583,57.7239990234375,-69.3206787109375,-108.0322265625
19.5699999,6.588842868804932,-6.217741966247559,0.8690952062606812,68.0389404296875,-104.339599609375,-106.4300537109375
19.589999900000002,6.564900875091553,-5.705382823944092,1.2617442607879639,80.1849365234375,-111.846923828125,-81.1309814453125
19.609999900000002,6.385335922241211,-4.910507678985596,1.3455413579940796,86.5325927734375,-128.84521484375,-64.178466796875
19.6299999,6.222530364990234,-4.256890773773193,0.9983820915222168,101.50146484375,-152.2216796875,-35.308837890625
19.6499999,6.088454723358154,-3.7158010005950928,0.42616790533065796,88.43994140625,-139.068603515625,-11.5509033203125
19.6699999,5.999869346618652,-3.4404678344726562,-0.23702596127986908,77.6519775390625,-129.150390625,1.0223388671875
19.6899999,5.856217384338379,-3.1004912853240967,-0.7972691655158997,95.3369140625,-153.6712646484375,17.51708984375
19.7099999,5.566518783569336,-2.762908697128296,-1.235408067703247,141.6778564453125,-171.9818115234375,63.6444091796875
19.7299999,5.114014625549316,-2.5234885215759277,-1.7094600200653076,155.5328369140625,-158.1878662109375,124.3133544921875
19.749999900000002,4.587290287017822,-2.736572504043579,-2.2577321529388428,87.0819091796875,-127.9296875,155.0140380859375
19.769999900000002,4.199429988861084,-3.8355112075805664,-2.6791117191314697,10.4217529296875,-120.3765869140625,166.0614013671875
19.7899999,3.9624037742614746,-5.434837818145752,-3.023876667022705,15.9149169921875,-149.7039794921875,144.4854736328125
19.8099999,3.7852327823638916,-6.995857238769531,-3.49314022064209,84.014892578125,-162.4908447265625,111.663818359375
19.8299999,3.581725835800171,-8.101978302001953,-4.211400985717773,98.9990234375,-108.4747314453125,124.603271484375
19.8499999,3.2561142444610596,-8.523358345031738,-4.920084476470947,39.48974609375,-36.31591796875,152.9693603515625
19.8699999,2.784456491470337,-8.329427719116211,-5.315127849578857,22.1099853515625,-15.2130126953125,150.970458984375
19.8899999,2.2409727573394775,-8.015787124633789,-5.003881454467773,64.39208984375,-20.0653076171875,155.5023193359375
19.909999900000003,1.6879122257232666,-7.91283655166626,-4.02465295791626,57.0068359375,-19.6685791015625,185.1959228515625
19.929999900000002,1.1276689767837524,-8.066065788269043,-2.8874073028564453,47.6837158203125,-32.989501953125,187.19482421875
19.9499999,0.5841852426528931,-8.53293514251709,-2.03507137298584,83.49609375,-47.0123291015625,166.7022705078125
19.9699999,0.05506663769483566,-9.205705642700195,-1.577778935432434,97.0611572265625,-27.618408203125,167.236328125
19.9899999,-0.48602294921875,-9.818621635437012,-1.5945383310317993,79.5135498046875,-2.197265625,175.1708984375
20.0099999,-0.9911994934082031,-10.381258964538574,-1.8148049116134644,72.5250244140625,14.22119140625,175.3387451171875
20.0299999,-1.45806884765625,-10.864887237548828,-1.9536685943603516,58.7158203125,19.5465087890625,166.4886474609375
20.0499999,-1.8531121015548706,-11.171344757080078,-1.9847931861877441,76.5380859375,25.2532958984375,150.87890625
20.0699999,-2.2194249629974365,-11.362881660461426,-1.8171991109848022,76.019287109375,40.8782958984375,149.627685546875
20.089999900000002,-2.561795711517334,-11.338939666748047,-1.6089035272598267,54.443359375,51.2847900390625,144.134521484375
20.109999900000002,-2.896984100341797,-11.255142211914062,-1.3239935636520386,65.0787353515625,63.385009765625,134.490966796875
20.1299999,-3.2178070545196533,-11.142614364624023,-1.0582371950149536,63.0035400390625,69.3817138671875,124.0692138671875
20.1499999,-3.550601005554199,-10.982203483581543,-0.950498104095459,65.582275390625,76.8890380859375,113.372802734375
20.1699999,-3.8570590019226074,-10.893617630004883,-0.9193734526634216,59.478759765625,102.2796630859375,107.5592041015625
20.1899999,-4.180276393890381,-10.773907661437988,-0.8810662031173706,20.9197998046875,121.4141845703125,95.2301025390625
20.2099999,-4.41969633102417,-10.766724586486816,-0.9145850539207458,37.1856689453125,117.1722412109375,82.855224609375
20.2299999,-4.618414878845215,-10.800244331359863,-0.6631938815116882,49.835205078125,135.80322265625,68.634033203125
