# Time (seconds),Accel_X,Accel_Y,Accel_Z,Gyro_X,Gyro_Y,Gyro_Z
0.0099999,0.31842881441116333,-0.11971008777618408,9.919178009033203,-0.4730224609375,-6.65283203125,-1.4495849609375
0.029999900000000003,0.27054479718208313,-0.07182604819536209,9.890447616577148,-0.4119873046875,-3.0670166015625,-0.152587890625
0.0499999,0.2298433631658554,-0.06224924325942993,9.86889934539795,-0.2288818359375,-3.0364990234375,-1.800537109375
0.0699999,0.20350714027881622,-0.07900865375995636,9.854534149169922,-0.2593994140625,-3.72314453125,-2.3956298828125
0.08999990000000001,0.2082955539226532,-0.090979665517807,9.852140426635742,-0.1220703125,-1.6021728515625,-2.25830078125
0.10999990000000001,0.21787235140800476,-0.10055647045373917,9.849745750427246,-0.213623046875,0.885009765625,-0.79345703125
0.1299999,0.2346317619085312,-0.10534487664699554,9.854534149169922,-0.152587890625,2.01416015625,0.1678466796875
0.14999990000000002,0.26815059781074524,-0.1149216815829277,9.864110946655273,-0.18310546875,2.3651123046875,0.1373291015625
0.1699999,0.2944868206977844,-0.11971008777618408,9.864110946655273,-0.06103515625,3.4027099609375,-0.79345703125
0.1899999,0.31842881441116333,-0.12928688526153564,9.876082420349121,-0.1678466796875,4.669189453125,0.5645751953125
0.20999990000000002,0.33039984107017517,-0.12928688526153564,9.883264541625977,-0.1678466796875,3.6773681640625,0.762939453125
0.2299999,0.33518823981285095,-0.13407529890537262,9.895236015319824,-0.152587890625,0.7781982421875,0.244140625
0.2499999,0.33518823981285095,-0.13407529890537262,9.90241813659668,-0.152587890625,-0.152587890625,-0.06103515625
0.2699999,0.3280056416988373,-0.13407529890537262,9.904812812805176,-0.2288818359375,0.6256103515625,0.1220703125
0.28999990000000003,0.31842881441116333,-0.13407529890537262,9.9000244140625,-0.152587890625,0.0152587890625,0.2288818359375
0.3099999,0.30885201692581177,-0.13407529890537262,9.895236015319824,-0.1220703125,-0.6103515625,-0.6256103515625
0.3299999,0.304063618183136,-0.13407529890537262,9.895236015319824,-0.1373291015625,-0.54931640625,-1.8463134765625
0.34999990000000003,0.3064578175544739,-0.13407529890537262,9.895236015319824,-0.18310546875,-0.4730224609375,-0.9918212890625
0.3699999,0.30885201692581177,-0.13168109953403473,9.892841339111328,-0.152587890625,-1.4190673828125,-0.946044921875
0.3899999,0.31124621629714966,-0.12210428714752197,9.890447616577148,-0.1220703125,-1.77001953125,-1.190185546875
0.40999990000000003,0.31364041566848755,-0.11971008777618408,9.883264541625977,-0.18310546875,-1.5106201171875,-0.5950927734375
0.4299999,0.3064578175544739,-0.10773907601833344,9.8784761428833,-0.152587890625,-0.701904296875,0.79345703125
0.4499999,0.3016694188117981,-0.12689268589019775,9.873687744140625,-0.091552734375,0.5645751953125,1.6632080078125
0.4699999,0.29209262132644653,-0.12689268589019775,9.873687744140625,-0.1373291015625,2.044677734375,-0.1983642578125
0.4899999,0.2849099934101105,-0.14365209639072418,9.873687744140625,-0.091552734375,3.7078857421875,1.7547607421875
0.5099999,0.2849099934101105,-0.14844051003456116,9.880870819091797,-0.0457763671875,3.47900390625,3.41796875
0.5299999,0.2849099934101105,-0.14604631066322327,9.885659217834473,-0.2288818359375,2.5787353515625,1.8310546875
0.5499999,0.2944868206977844,-0.14844051003456116,9.895236015319824,-0.1678466796875,2.3040771484375,-0.4119873046875
0.5699999,0.30885201692581177,-0.14365209639072418,9.895236015319824,-0.18310546875,0.4730224609375,-1.9073486328125
0.5899998999999999,0.2992752194404602,-0.1412578970193863,9.90241813659668,-0.30517578125,-0.030517578125,-5.06591796875
0.6099998999999999,0.2825157940387726,-0.12449848651885986,9.888052940368652,-0.0762939453125,1.8463134765625,1.03759765625
0.6299999,0.26096799969673157,-0.13168109953403473,9.888052940368652,0.1373291015625,5.79833984375,7.2021484375
0.6499999,0.24181437492370605,-0.13168109953403473,9.885659217834473,0.1068115234375,5.0506591796875,4.4097900390625
0.6699999,0.24420857429504395,-0.1364694982767105,9.895236015319824,-0.1068115234375,0.8087158203125,0.3662109375
0.6899999,0.26096799969673157,-0.14604631066322327,9.916783332824707,-0.2288818359375,-1.28173828125,-1.678466796875
0.7099999,0.2753331959247589,-0.1364694982767105,9.921571731567383,-0.2288818359375,-2.960205078125,-2.593994140625
0.7299998999999999,0.2801215946674347,-0.12689268589019775,9.926360130310059,-0.335693359375,-4.2266845703125,-2.288818359375
0.7499998999999999,0.2801215946674347,-0.11252748221158981,9.914389610290527,-0.30517578125,-3.4637451171875,-1.4190673828125
0.7699999,0.2801215946674347,-0.08858546614646912,9.904812812805176,-0.30517578125,-2.62451171875,-0.3204345703125
0.7899999,0.26336219906806946,-0.1149216815829277,9.888052940368652,-0.1220703125,-1.89208984375,1.2969970703125
0.8099999,0.26096799969673157,-0.1173158809542656,9.883264541625977,-0.152587890625,0.18310546875,0.1068115234375
0.8299999,0.24660277366638184,-0.14844051003456116,9.86889934539795,-0.1373291015625,0.8392333984375,-0.18310546875
0.8499998999999999,0.24420857429504395,-0.1628057211637497,9.86889934539795,-0.0152587890625,2.105712890625,1.6937255859375
0.8699998999999999,0.24899697303771973,-0.15801730751991272,9.86889934539795,-0.06103515625,2.5787353515625,2.01416015625
0.8899999,0.26096799969673157,-0.15083470940589905,9.880870819091797,-0.091552734375,2.349853515625,1.40380859375
0.9099999,0.2753331959247589,-0.14365209639072418,9.890447616577148,-0.213623046875,1.0223388671875,0.30517578125
0.9299999,0.28969839215278625,-0.14604631066322327,9.904812812805176,-0.244140625,-0.1983642578125,-0.457763671875
0.9499999,0.2968810200691223,-0.1412578970193863,9.911994934082031,-0.213623046875,-1.434326171875,-1.3580322265625
0.9699998999999999,0.2992752194404602,-0.1412578970193863,9.911994934082031,-0.18310546875,-1.89208984375,-1.3275146484375
0.9899998999999999,0.29209262132644653,-0.13407529890537262,9.909601211547852,-0.152587890625,-0.91552734375,-0.823974609375
1.0099999,0.2825157940387726,-0.12928688526153564,9.895236015319824,-0.1220703125,-0.0457763671875,-0.2593994140625
1.0299999,0.2753331959247589,-0.12689268589019775,9.888052940368652,-0.1983642578125,0.3662109375,0.1068115234375
1.0499999,0.27054479718208313,-0.12689268589019775,9.883264541625977,-0.1678466796875,0.1983642578125,-0.1983642578125
1.0699999,0.27054479718208313,-0.12449848651885986,9.883264541625977,-0.213623046875,-0.030517578125,-0.274658203125
1.0899999,0.27054479718208313,-0.12928688526153564,9.888052940368652,-0.213623046875,0.3204345703125,-0.274658203125
1.1099999,0.26815059781074524,-0.12449848651885986,9.883264541625977,-0.1678466796875,0.396728515625,-0.3662109375
1.1299999,0.272938996553421,-0.13168109953403473,9.890447616577148,-0.1373291015625,0.8544921875,0.3662109375
1.1499999,0.2753331959247589,-0.13168109953403473,9.885659217834473,-0.1983642578125,0.42724609375,-0.18310546875
1.1699998999999999,0.2753331959247589,-0.1364694982767105,9.892841339111328,-0.2288818359375,0.396728515625,-0.18310546875
1.1899998999999999,0.2753331959247589,-0.1388636976480484,9.876082420349121,-0.2899169921875,1.6326904296875,1.15966796875
1.2099999,0.272938996553421,-0.13168109953403473,9.90241813659668,0.06103515625,1.7547607421875,0.8392333984375
1.2299999,0.2753331959247589,-0.13168109953403473,9.890447616577148,-0.18310546875,-0.6561279296875,-0.7781982421875
1.2499999,0.2753331959247589,-0.13168109953403473,9.907206535339355,-0.2288818359375,-2.1209716796875,-2.0599365234375
1.2699999,0.26575639843940735,-0.11971008777618408,9.907206535339355,-0.1373291015625,-0.213623046875,-0.701904296875
1.2899999,0.26336219906806946,-0.12928688526153564,9.9000244140625,-0.1068115234375,1.983642578125,1.6937255859375
1.3099999,0.2561795711517334,-0.12449848651885986,9.897629737854004,-0.091552734375,1.617431640625,1.8310546875
1.3299999,0.26096799969673157,-0.13407529890537262,9.892841339111328,-0.152587890625,0.640869140625,0.42724609375
1.3499999,0.26815059781074524,-0.1412578970193863,9.897629737854004,-0.18310546875,0.8392333984375,0.91552734375
1.3699999,0.272938996553421,-0.14365209639072418,9.895236015319824,-0.1373291015625,0.396728515625,0.274658203125
1.3899999,0.27054479718208313,-0.1412578970193863,9.892841339111328,-0.1983642578125,0.152587890625,-0.30517578125
1.4099999,0.26815059781074524,-0.1412578970193863,9.890447616577148,-0.213623046875,0.152587890625,-0.1220703125
1.4299998999999999,0.26336219906806946,-0.1364694982767105,9.890447616577148,-0.1678466796875,0.1983642578125,0.0457763671875
1.4499999,0.2585737705230713,-0.13407529890537262,9.892841339111328,-0.1983642578125,0.152587890625,-0.152587890625
1.4699999,0.2585737705230713,-0.13407529890537262,9.895236015319824,-0.2288818359375,-0.152587890625,-0.30517578125
1.4899999,0.26336219906806946,-0.1364694982767105,9.9000244140625,-0.2899169921875,-0.8697509765625,-1.0528564453125
1.5099999,0.26815059781074524,-0.1388636976480484,9.904812812805176,-0.396728515625,-1.495361328125,-2.2430419921875
1.5299999,0.27054479718208313,-0.13407529890537262,9.907206535339355,-0.3204345703125,-1.220703125,-2.5787353515625
1.5499999,0.27054479718208313,-0.1364694982767105,9.904812812805176,0.030517578125,-0.9307861328125,-1.3580322265625
1.5699999,0.26815059781074524,-0.12928688526153564,9.90241813659668,-0.2288818359375,-0.244140625,-0.518798828125
1.5899999,0.26815059781074524,-0.13168109953403473,9.897629737854004,-0.18310546875,-0.3509521484375,-0.1373291015625
1.6099999,0.27054479718208313,-0.13407529890537262,9.895236015319824,-0.091552734375,0.0762939453125,-0.213623046875
1.6299999,0.272938996553421,-0.13407529890537262,9.895236015319824,-0.06103515625,0.244140625,-0.244140625
1.6499999,0.2777273952960968,-0.13407529890537262,9.895236015319824,-0.1068115234375,0.274658203125,0.1220703125
1.6699999,0.2777273952960968,-0.13407529890537262,9.892841339111328,-0.152587890625,0.30517578125,0.1220703125
1.6899998999999999,0.2801215946674347,-0.13407529890537262,9.892841339111328,-0.18310546875,0.1678466796875,-0.3509521484375
1.7099999,0.2753331959247589,-0.13168109953403473,9.890447616577148,-0.152587890625,0.1220703125,-0.1068115234375
1.7299999,0.2777273952960968,-0.13407529890537262,9.892841339111328,-0.18310546875,0.6866455078125,1.251220703125
1.7499999,0.2753331959247589,-0.13168109953403473,9.892841339111328,-0.1983642578125,0.30517578125,0.4425048828125
1.7699999,0.2801215946674347,-0.13407529890537262,9.897629737854004,-0.18310546875,-0.06103515625,-0.152587890625
1.7899999,0.2849099934101105,-0.13407529890537262,9.897629737854004,-0.152587890625,0.0152587890625,-0.2288818359375
1.8099999,0.2849099934101105,-0.13168109953403473,9.897629737854004,-0.0762939453125,0.030517578125,-0.1678466796875
1.8299999,0.2849099934101105,-0.13168109953403473,9.895236015319824,-0.0762939453125,-0.0152587890625,-0.213623046875
1.8499999,0.2825157940387726,-0.12928688526153564,9.890447616577148,-0.1678466796875,0.0762939453125,-0.2593994140625
1.8699999,0.2777273952960968,-0.13168109953403473,9.888052940368652,-0.1983642578125,0.0762939453125,-0.3509521484375
1.8899999,0.2753331959247589,-0.13407529890537262,9.885659217834473,-0.152587890625,0.1068115234375,-0.18310546875
1.9099999,0.272938996553421,-0.13407529890537262,9.888052940368652,-0.1678466796875,0.2288818359375,-0.2288818359375
1.9299998999999999,0.272938996553421,-0.1364694982767105,9.888052940368652,-0.2288818359375,0.06103515625,-0.274658203125
1.9499999,0.272938996553421,-0.1364694982767105,9.890447616577148,-0.1983642578125,0.1068115234375,-0.1373291015625
1.9699999,0.272938996553421,-0.1364694982767105,9.892841339111328,-0.1220703125,0.152587890625,-0.3814697265625
1.9899999,0.2753331959247589,-0.1388636976480484,9.892841339111328,-0.1678466796875,0.18310546875,-0.3509521484375
2.0099999,0.2753331959247589,-0.1388636976480484,9.892841339111328,-0.1983642578125,0.18310546875,-0.213623046875
2.0299999,0.272938996553421,-0.1364694982767105,9.892841339111328,-0.2288818359375,0.091552734375,-0.396728515625
2.0499999,0.272938996553421,-0.13407529890537262,9.890447616577148,-0.1678466796875,0,-0.244140625
2.0699999,0.2753331959247589,-0.13168109953403473,9.890447616577148,-0.1373291015625,0.1068115234375,-0.1220703125
2.0899999,0.2753331959247589,-0.12928688526153564,9.890447616577148,-0.1678466796875,0.1678466796875,-0.244140625
2.1099999,0.272938996553421,-0.12689268589019775,9.890447616577148,-0.1678466796875,0.244140625,-0.2593994140625
2.1299999,0.272938996553421,-0.13168109953403473,9.892841339111328,-0.1983642578125,0.396728515625,0.1983642578125
2.1499999,0.26815059781074524,-0.12928688526153564,9.892841339111328,-0.213623046875,0.1373291015625,-0.3204345703125
2.1699999,0.26815059781074524,-0.13168109953403473,9.895236015319824,-0.1678466796875,-0.06103515625,-0.335693359375
2.1899999,0.27054479718208313,-0.12928688526153564,9.895236015319824,-0.18310546875,0.274658203125,0
2.2099999,0.26815059781074524,-0.12449848651885986,9.892841339111328,-0.1678466796875,0.152587890625,-0.1068115234375
2.2299999,0.272938996553421,-0.12449848651885986,9.897629737854004,-0.18310546875,0.4730224609375,0.244140625
2.2499999,0.272938996553421,-0.12449848651885986,9.895236015319824,-0.18310546875,0.6103515625,0.30517578125
2.2699999,0.2777273952960968,-0.13168109953403473,9.897629737854004,-0.152587890625,0.4425048828125,-0.152587890625
2.2899999,0.2801215946674347,-0.1364694982767105,9.897629737854004,-0.1678466796875,0.213623046875,-0.1983642578125
2.3099999,0.2777273952960968,-0.1364694982767105,9.892841339111328,-0.1983642578125,0.213623046875,-0.3204345703125
2.3299999,0.2777273952960968,-0.1364694982767105,9.892841339111328,-0.1373291015625,0.0762939453125,-0.0762939453125
2.3499999,0.2777273952960968,-0.13407529890537262,9.892841339111328,-0.1678466796875,0.0457763671875,0.091552734375
2.3699999,0.2753331959247589,-0.13407529890537262,9.892841339111328,-0.091552734375,-0.213623046875,-0.3509521484375
2.3899999,0.2753331959247589,-0.13407529890537262,9.892841339111328,-0.213623046875,-0.091552734375,-0.579833984375
2.4099999,0.272938996553421,-0.13407529890537262,9.895236015319824,-0.1983642578125,0.1373291015625,-0.091552734375
2.4299999,0.27054479718208313,-0.1388636976480484,9.895236015319824,-0.18310546875,0.1373291015625,-0.2593994140625
2.4499999,0.26575639843940735,-0.1364694982767105,9.897629737854004,-0.152587890625,0.06103515625,-0.5340576171875
2.4699999,0.26575639843940735,-0.1388636976480484,9.897629737854004,-0.213623046875,0.18310546875,-0.3509521484375
2.4899999,0.26815059781074524,-0.1388636976480484,9.897629737854004,-0.152587890625,0.152587890625,-0.213623046875
2.5099999,0.27054479718208313,-0.1412578970193863,9.897629737854004,-0.152587890625,0.0762939453125,-0.579833984375
2.5299999,0.2753331959247589,-0.14604631066322327,9.897629737854004,-0.244140625,-0.396728515625,-1.7547607421875
2.5499999,0.2753331959247589,-0.14604631066322327,9.895236015319824,-0.3204345703125,-0.5950927734375,-1.7242431640625
2.5699999,0.2753331959247589,-0.14844051003456116,9.895236015319824,-0.213623046875,-0.152587890625,-0.518798828125
2.5899999,0.272938996553421,-0.14365209639072418,9.892841339111328,-0.1983642578125,0.0762939453125,-0.1678466796875
2.6099999,0.27054479718208313,-0.14365209639072418,9.892841339111328,-0.1373291015625,0.152587890625,-0.1983642578125
2.6299999,0.272938996553421,-0.1388636976480484,9.890447616577148,-0.1068115234375,0.18310546875,-0.06103515625
2.6499999,0.2753331959247589,-0.1388636976480484,9.890447616577148,-0.1220703125,0.152587890625,0.030517578125
2.6699999,0.2801215946674347,-0.1364694982767105,9.890447616577148,-0.18310546875,-0.0152587890625,-0.06103515625
2.6899999,0.2825157940387726,-0.1364694982767105,9.890447616577148,-0.18310546875,-0.152587890625,-0.2593994140625
2.7099999,0.2825157940387726,-0.13407529890537262,9.890447616577148,-0.1983642578125,-0.1373291015625,-0.4730224609375
2.7299999,0.2801215946674347,-0.13168109953403473,9.888052940368652,-0.1678466796875,0.1068115234375,-0.2899169921875
2.7499999,0.2777273952960968,-0.12928688526153564,9.888052940368652,-0.1678466796875,0.152587890625,-0.152587890625
2.7699999,0.2753331959247589,-0.12928688526153564,9.888052940368652,-0.1068115234375,-0.1220703125,-0.2593994140625
2.7899999,0.2753331959247589,-0.13168109953403473,9.890447616577148,-0.1678466796875,-0.244140625,-0.518798828125
2.8099999,0.2777273952960968,-0.13168109953403473,9.890447616577148,-0.1068115234375,-0.2593994140625,-0.7171630859375
2.8299999,0.2753331959247589,-0.13168109953403473,9.892841339111328,-0.4119873046875,-0.091552734375,-0.9765625
2.8499999,0.2753331959247589,-0.12928688526153564,9.892841339111328,-0.2288818359375,0.18310546875,-0.396728515625
2.8699999,0.27054479718208313,-0.12689268589019775,9.895236015319824,-0.1068115234375,0.30517578125,-0.1068115234375
2.8899999,0.26815059781074524,-0.12689268589019775,9.888052940368652,-0.1220703125,0.5035400390625,-0.0457763671875
2.9099999,0.26815059781074524,-0.12928688526153564,9.890447616577148,-0.0762939453125,1.1138916015625,0.885009765625
2.9299999,0.27054479718208313,-0.13168109953403473,9.888052940368652,-0.0762939453125,0.9307861328125,0.6866455078125
2.9499999,0.2753331959247589,-0.13168109953403473,9.890447616577148,-0.18310546875,0.2593994140625,-0.1068115234375
2.9699999,0.2801215946674347,-0.13407529890537262,9.890447616577148,-0.244140625,0.091552734375,-0.30517578125
2.9899999,0.2801215946674347,-0.13407529890537262,9.892841339111328,-0.1373291015625,0.2288818359375,-0.244140625
3.0099999,0.2777273952960968,-0.13407529890537262,9.895236015319824,-0.1678466796875,0.5950927734375,0.1983642578125
3.0299999,0.272938996553421,-0.13407529890537262,9.897629737854004,-0.1678466796875,0.6103515625,0.4730224609375
3.0499999,0.27054479718208313,-0.1364694982767105,9.897629737854004,-0.2593994140625,0.2899169921875,-0.06103515625
3.0699999,0.26815059781074524,-0.1412578970193863,9.897629737854004,-0.213623046875,0.1678466796875,-0.335693359375
3.0899999,0.26815059781074524,-0.1412578970193863,9.895236015319824,-0.1983642578125,0.091552734375,-0.3814697265625
3.1099999,0.27054479718208313,-0.1412578970193863,9.892841339111328,-0.18310546875,0.1068115234375,-0.244140625
3.1299999,0.272938996553421,-0.1388636976480484,9.892841339111328,-0.1983642578125,0.030517578125,-0.1983642578125
3.1499999,0.2753331959247589,-0.1364694982767105,9.895236015319824,-0.2593994140625,-0.42724609375,-0.5645751953125
3.1699999,0.2753331959247589,-0.1364694982767105,9.9000244140625,-0.3204345703125,-0.5950927734375,-1.1444091796875
3.1899999,0.272938996553421,-0.1364694982767105,9.90241813659668,-0.2288818359375,0.0457763671875,-0.457763671875
3.2099999,0.27054479718208313,-0.1364694982767105,9.90241813659668,-0.152587890625,0.335693359375,-0.0762939453125
3.2299999,0.27054479718208313,-0.13407529890537262,9.9000244140625,-0.1068115234375,0.2899169921875,-0.2899169921875
3.2499999,0.272938996553421,-0.13407529890537262,9.897629737854004,-0.152587890625,0.396728515625,-0.1678466796875
3.2699999,0.2753331959247589,-0.13168109953403473,9.897629737854004,-0.1220703125,0.274658203125,-0.0762939453125
3.2899999,0.2753331959247589,-0.13168109953403473,9.897629737854004,-0.091552734375,0.1220703125,-0.152587890625
3.3099999,0.2753331959247589,-0.13168109953403473,9.895236015319824,-0.1068115234375,0.3204345703125,0.3662109375
3.3299999000000002,0.272938996553421,-0.13407529890537262,9.895236015319824,-0.18310546875,0.2593994140625,0.0152587890625
3.3499999,0.27054479718208313,-0.1364694982767105,9.895236015319824,-0.1983642578125,0.274658203125,-0.2899169921875
3.3699999,0.27054479718208313,-0.1388636976480484,9.895236015319824,-0.213623046875,0.244140625,-0.091552734375
3.3899999,0.27054479718208313,-0.1364694982767105,9.897629737854004,-0.18310546875,0.152587890625,-0.0762939453125
3.4099999,0.272938996553421,-0.13168109953403473,9.9000244140625,-0.1220703125,0.06103515625,-0.152587890625
3.4299999,0.272938996553421,-0.12928688526153564,9.897629737854004,-0.1373291015625,0.0762939453125,-0.274658203125
3.4499999,0.2753331959247589,-0.12928688526153564,9.897629737854004,-0.152587890625,0.1983642578125,-0.457763671875
3.4699999,0.2753331959247589,-0.12928688526153564,9.895236015319824,-0.2288818359375,0.2593994140625,-0.3662109375
3.4899999,0.272938996553421,-0.12928688526153564,9.895236015319824,-0.1678466796875,0.0762939453125,-0.152587890625
3.5099999,0.272938996553421,-0.12928688526153564,9.892841339111328,-0.1373291015625,0.06103515625,-0.0762939453125
3.5299999,0.27054479718208313,-0.12928688526153564,9.892841339111328,-0.1983642578125,0.0762939453125,-0.1068115234375
3.5499999,0.26815059781074524,-0.13168109953403473,9.890447616577148,-0.1373291015625,-0.0152587890625,-0.274658203125
3.5699999,0.26815059781074524,-0.13168109953403473,9.890447616577148,-0.152587890625,0.030517578125,-0.335693359375
3.5899999,0.26575639843940735,-0.13407529890537262,9.888052940368652,-0.1983642578125,0.06103515625,-0.30517578125
3.6099999,0.26815059781074524,-0.13168109953403473,9.890447616577148,-0.152587890625,0.030517578125,-0.2593994140625
3.6299999,0.27054479718208313,-0.13407529890537262,9.888052940368652,-0.1068115234375,0.1068115234375,-0.30517578125
3.6499999,0.272938996553421,-0.13407529890537262,9.890447616577148,-0.18310546875,0.0457763671875,-0.244140625
3.6699999,0.272938996553421,-0.13168109953403473,9.890447616577148,-0.18310546875,0.030517578125,-0.18310546875
3.6899999,0.2753331959247589,-0.13168109953403473,9.888052940368652,-0.1678466796875,0.0762939453125,-0.2288818359375
3.7099999,0.2777273952960968,-0.13168109953403473,9.888052940368652,-0.1068115234375,0.091552734375,-0.457763671875
3.7299999,0.2777273952960968,-0.13168109953403473,9.888052940368652,-0.1068115234375,0.0762939453125,-0.457763671875
3.7499999,0.2777273952960968,-0.12928688526153564,9.890447616577148,-0.0457763671875,-0.0152587890625,-0.3662109375
3.7699999,0.272938996553421,-0.12689268589019775,9.890447616577148,-0.152587890625,-0.030517578125,-0.274658203125
3.7899999,0.27054479718208313,-0.12449848651885986,9.890447616577148,-0.1678466796875,0.152587890625,-0.1678466796875
3.8099999,0.26815059781074524,-0.12449848651885986,9.892841339111328,-0.213623046875,0.42724609375,-0.0762939453125
3.8299999000000002,0.26575639843940735,-0.12689268589019775,9.888052940368652,-0.1220703125,0.4119873046875,-0.1068115234375
3.8499999,0.26336219906806946,-0.12689268589019775,9.890447616577148,-0.1373291015625,0.2288818359375,-0.244140625
3.8699999,0.26575639843940735,-0.12928688526153564,9.890447616577148,-0.1373291015625,0.1983642578125,-0.396728515625
3.8899999,0.26815059781074524,-0.13168109953403473,9.890447616577148,-0.18310546875,0.2288818359375,-0.3509521484375
3.9099999,0.272938996553421,-0.13168109953403473,9.890447616577148,-0.1373291015625,0.091552734375,-0.1373291015625
3.9299999,0.2753331959247589,-0.12928688526153564,9.890447616577148,-0.1373291015625,0.0152587890625,-0.0457763671875
3.9499999,0.2753331959247589,-0.12928688526153564,9.890447616577148,-0.1220703125,-0.0762939453125,-0.42724609375
3.9699999,0.272938996553421,-0.12689268589019775,9.892841339111328,-0.1220703125,0.0152587890625,-0.335693359375
3.9899999,0.27054479718208313,-0.12928688526153564,9.892841339111328,-0.2288818359375,0.457763671875,-0.1373291015625
4.0099999,0.26336219906806946,-0.12928688526153564,9.895236015319824,-0.18310546875,0.396728515625,-0.0762939453125
4.029999900000001,0.26096799969673157,-0.13168109953403473,9.895236015319824,-0.091552734375,0.3204345703125,-0.213623046875
4.0499999,0.2537853717803955,-0.12928688526153564,9.890447616577148,-0.18310546875,0.9002685546875,0.4119873046875
4.069999900000001,0.2537853717803955,-0.12928688526153564,9.895236015319824,-0.244140625,1.5106201171875,0.9002685546875
4.0899999000000005,0.2513911724090576,-0.13407529890537262,9.885659217834473,-0.030517578125,1.434326171875,0.030517578125
4.1099999,0.24899697303771973,-0.12928688526153564,9.9000244140625,-0.1678466796875,1.03759765625,0.0762939453125
4.1299999000000005,0.24899697303771973,-0.13407529890537262,9.890447616577148,-0.213623046875,0.9765625,1.2359619140625
4.1499999,0.2513911724090576,-0.12928688526153564,9.9000244140625,-0.1983642578125,0.79345703125,0.6256103515625
4.1699999000000005,0.2537853717803955,-0.12928688526153564,9.895236015319824,-0.1983642578125,0.0457763671875,-0.3204345703125
4.1899999,0.2585737705230713,-0.1364694982767105,9.9000244140625,-0.1373291015625,-0.762939453125,-0.457763671875
4.209999900000001,0.26096799969673157,-0.13407529890537262,9.897629737854004,-0.1678466796875,-0.9307861328125,-0.9765625
4.2299999,0.2585737705230713,-0.1388636976480484,9.897629737854004,-0.244140625,-0.1220703125,-0.67138671875
4.249999900000001,0.2537853717803955,-0.13407529890537262,9.895236015319824,-0.2288818359375,0.1983642578125,-0.335693359375
4.2699999,0.2537853717803955,-0.14365209639072418,9.895236015319824,-0.1678466796875,0.0762939453125,-0.3509521484375
4.289999900000001,0.2561795711517334,-0.1364694982767105,9.897629737854004,-0.244140625,-0.762939453125,-1.40380859375
4.3099999,0.26096799969673157,-0.14365209639072418,9.9000244140625,-0.335693359375,-1.03759765625,-1.953125
4.329999900000001,0.26336219906806946,-0.1364694982767105,9.9000244140625,-0.3204345703125,-0.9765625,-1.8768310546875
4.3499999,0.27054479718208313,-0.12689268589019775,9.897629737854004,-0.3509521484375,-1.2359619140625,-1.953125
4.369999900000001,0.26815059781074524,-0.11971008777618408,9.895236015319824,0.0152587890625,-2.0904541015625,-1.8157958984375
4.3899999,0.272938996553421,-0.1149216815829277,9.890447616577148,-0.18310546875,-2.105712890625,-1.5716552734375
4.409999900000001,0.26336219906806946,-0.11971008777618408,9.885659217834473,-0.274658203125,-0.6866455078125,-1.190185546875
4.4299999,0.26096799969673157,-0.12449848651885986,9.876082420349121,-0.1983642578125,0.3509521484375,-0.30517578125
4.449999900000001,0.26336219906806946,-0.13168109953403473,9.8784761428833,-0.18310546875,0.4425048828125,0.1068115234375
4.4699999,0.272938996553421,-0.12689268589019775,9.883264541625977,-0.18310546875,1.495361328125,0.2899169921875
4.489999900000001,0.2801215946674347,-0.11013327538967133,9.895236015319824,-0.1373291015625,0.4730224609375,-0.1678466796875
4.5099999,0.28969839215278625,-0.11971008777618408,9.895236015319824,-0.1373291015625,-1.129150390625,1.220703125
4.529999900000001,0.28730419278144836,-0.1149216815829277,9.897629737854004,-0.274658203125,0.0762939453125,1.6021728515625
4.5499999,0.28969839215278625,-0.12449848651885986,9.883264541625977,-0.244140625,2.3193359375,-0.213623046875
4.569999900000001,0.33997663855552673,-0.09576806426048279,9.861717224121094,-0.18310546875,2.777099609375,0.3204345703125
4.5899999000000005,0.26096799969673157,-0.1364694982767105,9.852140426635742,0.0152587890625,5.340576171875,7.1868896484375
4.609999900000001,0.16759411990642548,-0.20111294090747833,9.84256362915039,0.0152587890625,11.7645263671875,6.53076171875
4.6299999000000005,0.026336219161748886,-0.3280056416988373,9.880870819091797,0.2288818359375,19.7906494140625,-2.2735595703125
4.6499999,-0.16998831927776337,-0.3734954595565796,9.921571731567383,1.0528564453125,11.199951171875,-13.8397216796875
4.6699999000000005,-0.3423708379268646,-0.3423708379268646,9.979032516479492,0.06103515625,11.04736328125,-7.01904296875
4.6899999,-0.3663128614425659,-0.05985504388809204,10.089165687561035,-0.1678466796875,19.1192626953125,-3.0059814453125
4.709999900000001,-0.4836287498474121,0.38067805767059326,10.18493366241455,-2.6092529296875,54.9163818359375,-9.21630859375
4.7299999,-0.5386953949928284,0.7661445140838623,10.426748275756836,-37.109375,86.9903564453125,12.664794921875
4.749999900000001,-0.7541735172271729,1.0558429956436157,10.984597206115723,-97.747802734375,77.9876708984375,24.9786376953125
4.7699999,-1.1180921792984009,1.091755986213684,11.798625946044922,-29.815673828125,51.81884765625,22.9339599609375
4.789999900000001,-1.6041151285171509,0.9720458984375,12.801796913146973,26.9927978515625,-21.7437744140625,21.3623046875
4.8099999,-2.030282974243164,0.8403648138046265,13.479355812072754,67.535400390625,-91.8121337890625,13.427734375
4.829999900000001,-2.212242364883423,0.608127236366272,13.543998718261719,69.915771484375,-112.8082275390625,41.7938232421875
4.8499999,-2.0398597717285156,0.2298433631658554,12.835315704345703,40.7257080078125,-95.0164794921875,68.7255859375
4.869999900000001,-1.5514427423477173,-0.5363011956214905,11.729193687438965,-1.2969970703125,-63.1866455078125,50.1861572265625
4.8899999,-0.8355764150619507,-1.4437036514282227,10.589553833007812,-28.13720703125,-26.4892578125,-7.38525390625
4.909999900000001,-0.22266076505184174,-2.1045033931732178,9.852140426635742,-86.6851806640625,-6.3018798828125,-66.6046142578125
4.9299999,0.22026655077934265,-2.2697031497955322,9.57201862335205,-92.071533203125,9.6893310546875,-70.1141357421875
4.949999900000001,0.26336219906806946,-1.723825216293335,9.617507934570312,-55.9539794921875,14.6026611328125,-50.567626953125
4.9699999,0.009576806798577309,-0.6440402865409851,9.780313491821289,-54.5806884765625,0.885009765625,-31.158447265625
4.989999900000001,-0.4189853072166443,0.4836287498474121,9.837775230407715,-13.24462890625,-5.9967041015625,15.13671875
5.0099999,-0.8643068075180054,1.2713210582733154,9.677363395690918,103.1494140625,16.357421875,73.6083984375
5.029999900000001,-1.1444283723831177,1.4628572463989258,9.435548782348633,127.7313232421875,51.2847900390625,79.3914794921875
5.0499999,-1.2258312702178955,0.9313444495201111,9.375694274902344,27.3895263671875,72.0672607421875,41.2445068359375
5.069999900000001,-1.1803414821624756,-0.0071826050989329815,9.588777542114258,-32.8369140625,56.427001953125,-7.965087890625
5.0899999000000005,-1.0989385843276978,-0.9002198576927185,9.955090522766113,-6.8206787109375,5.8135986328125,-49.9420166015625
5.109999900000001,-0.9864110946655273,-1.3263877630233765,10.156203269958496,17.15087890625,-31.4178466796875,-75.37841796875
5.1299999000000005,-0.9265560507774353,-1.1348515748977661,9.998186111450195,-26.8402099609375,-18.4783935546875,-69.580078125
5.1499999,-0.8307880163192749,-0.5195417404174805,9.521739959716797,-76.568603515625,13.12255859375,-35.5072021484375
5.1699999000000005,-0.790086567401886,0.18914192914962769,8.904036521911621,-44.00634765625,20.8587646484375,10.4522705078125
5.1899999,-0.7733271718025208,0.5841852426528931,8.358158111572266,4.4403076171875,18.3868408203125,34.698486328125
5.209999900000001,-0.7661445140838623,0.6416460275650024,7.982268333435059,-13.397216796875,29.11376953125,16.082763671875
5.2299999,-0.7230489253997803,0.38546648621559143,7.884106159210205,-56.304931640625,51.3153076171875,2.38037109375
5.249999900000001,-0.7134721279144287,0.011971008032560349,8.142680168151855,-64.605712890625,68.206787109375,5.5389404296875
5.2699999,-0.689530074596405,-0.36152446269989014,8.753201484680176,-63.3544921875,48.7060546875,12.237548828125
5.289999900000001,-0.9457096457481384,-0.6177040338516235,9.35893440246582,29.0374755859375,19.500732421875,23.8189697265625
5.3099999,-1.0007762908935547,-0.8930372595787048,9.512163162231445,121.429443359375,9.033203125,45.257568359375
5.329999900000001,-1.1994950771331787,-1.1563993692398071,9.232041358947754,97.381591796875,55.938720703125,48.9501953125
5.3499999,-1.2258312702178955,-1.4532804489135742,8.609549522399902,18.8446044921875,92.28515625,17.88330078125
5.369999900000001,-1.3646949529647827,-1.8076223134994507,8.01339340209961,14.6942138671875,85.26611328125,-4.7454833984375
5.3899999,-1.5155296325683594,-2.1787235736846924,7.448361396789551,59.87548828125,68.5577392578125,-15.1824951171875
5.409999900000001,-1.8507179021835327,-2.5091233253479004,6.912060260772705,51.57470703125,103.0120849609375,-43.5638427734375
5.4299999,-2.2457611560821533,-2.717418909072876,6.53377628326416,-105.865478515625,176.69677734375,-102.05078125
5.449999900000001,-2.956839084625244,-2.741360902786255,6.603208065032959,-239.5782470703125,231.50634765625,-142.0135498046875
5.4699999,-3.7014358043670654,-2.518700122833252,7.479485988616943,-291.4276123046875,225.189208984375,-142.39501953125
5.489999900000001,-4.778826713562012,-1.8938134908676147,9.239224433898926,-288.604736328125,180.3741455078125,-116.546630859375
5.5099999,-5.521028995513916,-1.4389152526855469,11.30302619934082,-225.3875732421875,80.74951171875,-30.609130859375
5.529999900000001,-6.449979305267334,-1.0247182846069336,12.51449203491211,51.7120361328125,-18.5089111328125,29.815673828125
5.5499999,-6.435614109039307,-1.2114660739898682,12.713211059570312,47.5616455078125,-50.1708984375,39.459228515625
5.569999900000001,-6.349422931671143,-1.8100165128707886,11.456254959106445,-19.04296875,-24.1546630859375,28.3203125
5.5899999000000005,-5.590460777282715,-2.8826189041137695,9.533711433410645,14.495849609375,35.919189453125,51.422119140625
5.609999900000001,-4.8267107009887695,-4.129997730255127,7.694964408874512,-5.5999755859375,65.2618408203125,39.7491455078125
5.6299999000000005,-4.311957359313965,-5.298368453979492,6.485892295837402,-48.40087890625,68.9544677734375,-3.7384033203125
5.6499999,-4.211400985717773,-6.229712963104248,6.069301128387451,-64.0716552734375,63.8580322265625,-26.336669921875
5.6699999000000005,-4.417302131652832,-6.789956092834473,6.3302693367004395,-29.3121337890625,54.0618896484375,-43.0908203125
5.6899999,-4.747702121734619,-6.900089263916016,7.015010833740234,-42.633056640625,32.0587158203125,-75.98876953125
5.709999900000001,-5.092466831207275,-6.6846113204956055,7.793126583099365,-81.1614990234375,7.720947265625,-95.7183837890625
5.7299999,-5.243301868438721,-6.138733386993408,8.394071578979492,-52.6580810546875,-7.7056884765625,-92.2698974609375
5.749999900000001,-5.315127849578857,-5.341464042663574,8.69095230102539,-1.40380859375,-16.0980224609375,-76.96533203125
5.7699999,-5.231330871582031,-4.474762916564941,8.647856712341309,33.2794189453125,-19.439697265625,-44.2962646484375
5.789999900000001,-5.157110691070557,-3.734954595565796,8.327033042907715,69.82421875,-6.8511962890625,-4.7760009765625
5.8099999,-4.999093055725098,-3.378218650817871,7.99184513092041,59.7076416015625,8.026123046875,21.331787109375
5.829999900000001,-4.795586109161377,-3.4979286193847656,7.663839817047119,74.52392578125,8.2244873046875,24.658203125
5.8499999,-4.553771495819092,-4.060565948486328,7.402871608734131,89.90478515625,-4.119873046875,12.8173828125
5.869999900000001,-4.268861770629883,-4.900930881500244,7.177816867828369,95.0469970703125,-4.974365234375,-4.7149658203125
5.8899999,-4.005499362945557,-5.6910176277160645,6.773196697235107,114.5172119140625,6.256103515625,-38.6962890625
5.909999900000001,-3.825934410095215,-6.22731876373291,6.294356346130371,61.279296875,30.21240234375,-82.672119140625
5.9299999,-3.883395195007324,-6.270414352416992,5.834669589996338,2.838134765625,64.02587890625,-107.666015625
5.949999900000001,-4.137180328369141,-5.851428985595703,6.45476770401001,-108.8409423828125,109.7412109375,-114.31884765625
5.9699999,-4.503493309020996,-5.52821159362793,7.726089000701904,-93.414306640625,42.8619384765625,-85.3424072265625
5.989999900000001,-4.972756862640381,-5.51624059677124,9.272743225097656,147.003173828125,-67.32177734375,-98.724365234375
6.0099999,-5.367800235748291,-6.200982570648193,10.371682167053223,114.0899658203125,-99.06005859375,-172.576904296875
6.029999900000001,-5.475539207458496,-7.122750282287598,10.268731117248535,-46.0052490234375,-66.1163330078125,-284.1339111328125
6.0499999,-5.245696067810059,-7.781155586242676,9.404424667358398,-179.0924072265625,-29.876708984375,-354.8431396484375
6.069999900000001,-4.6950297355651855,-7.47230339050293,8.219294548034668,-189.4989013671875,2.8839111328125,-335.5712890625
6.0899999000000005,-3.8379054069519043,-6.366182327270508,7.407660007476807,-189.1937255859375,52.3834228515625,-239.501953125
6.109999900000001,-3.0142998695373535,-4.93923807144165,7.000645637512207,-173.9959716796875,95.9320068359375,-118.255615234375
6.1299999000000005,-2.4157495498657227,-3.914519786834717,7.096413612365723,-151.5045166015625,98.236083984375,-28.8543701171875
6.149999900000001,-2.03507137298584,-3.9600095748901367,7.462726593017578,-18.5089111328125,64.6209716796875,20.111083984375
6.1699999000000005,-1.6496049165725708,-4.81473970413208,7.838616371154785,66.5283203125,28.0914306640625,4.608154296875
6.1899999,-1.5322890281677246,-6.165069580078125,8.044517517089844,-63.201904296875,-11.2152099609375,-26.1688232421875
6.209999900000001,-1.0773907899856567,-7.266402244567871,7.864952564239502,-9.1705322265625,-43.670654296875,-20.8282470703125
6.2299999,-0.7493851184844971,-7.965508937835693,7.6566572189331055,9.9945068359375,-66.2078857421875,0.762939453125
6.249999900000001,-0.3471592366695404,-8.185775756835938,7.237671852111816,48.2177734375,-78.7200927734375,26.4129638671875
6.2699999,0.08379705995321274,-8.092401504516602,6.655880928039551,66.131591796875,-95.1995849609375,15.2435302734375
6.289999900000001,0.19632454216480255,-7.723694801330566,5.829881191253662,25.7110595703125,-88.0889892578125,-1.312255859375
6.3099999,0.2082955539226532,-7.003039836883545,4.800374507904053,-17.7154541015625,-50.506591796875,15.1519775390625
6.329999900000001,-0.12928688526153564,-6.234501361846924,4.106055736541748,-106.9793701171875,-11.1541748046875,50.1861572265625
6.3499999,-0.35673606395721436,-5.65031623840332,4.017470359802246,-142.02880859375,-11.4898681640625,87.82958984375
6.369999900000001,-0.5674257874488831,-5.710171222686768,4.467580318450928,-94.573974609375,-49.9725341796875,87.8753662109375
6.3899999,-0.6009446382522583,-6.244078159332275,5.3342814445495605,-51.0101318359375,-76.6754150390625,54.901123046875
6.409999900000001,-0.5051765441894531,-6.9910688400268555,6.04775333404541,-46.69189453125,-90.1947021484375,39.093017578125
6.4299999,-0.45250412821769714,-7.714118003845215,6.282385349273682,20.93505859375,-91.8121337890625,59.08203125
6.449999900000001,-0.45489832758903503,-8.44434928894043,5.963956356048584,97.869873046875,-76.2786865234375,82.1075439453125
6.4699999,-0.2968810200691223,-9.346963882446289,5.363011837005615,27.34375,-48.492431640625,50.6744384765625
6.489999900000001,-0.24420857429504395,-10.18493366241455,4.6040496826171875,-20.8892822265625,-12.9547119140625,-28.411865234375
6.5099999,0,-10.690110206604004,4.225766181945801,-16.510009765625,17.7154541015625,-63.3087158203125
6.529999900000001,-0.19632454216480255,-10.496180534362793,4.170699596405029,39.4287109375,35.3240966796875,-32.0587158203125
6.5499999,-0.811634361743927,-9.641449928283691,4.644751071929932,6.4239501953125,40.191650390625,17.059326171875
6.569999900000001,-1.4628572463989258,-8.540117263793945,5.6455278396606445,-139.2669677734375,-2.288818359375,46.4019775390625
6.5899999000000005,-2.410961151123047,-7.496245384216309,6.4380083084106445,39.55078125,-53.6346435546875,71.83837890625
6.609999900000001,-3.043030261993408,-7.194576263427734,7.082048416137695,129.8828125,-69.27490234375,105.3619384765625
6.6299999000000005,-3.093308687210083,-7.515398979187012,7.2113356590271,90.484619140625,-52.734375,70.9075927734375
6.649999900000001,-3.0597896575927734,-7.982268333435059,6.952761650085449,-7.0037841796875,-60.97412109375,-32.5469970703125
6.6699999000000005,-2.612074136734009,-8.324639320373535,6.600813865661621,18.3258056640625,-79.9560546875,-56.1370849609375
6.6899999,-2.166752576828003,-7.95832633972168,6.260837554931641,110.83984375,-71.075439453125,3.35693359375
6.709999900000001,-1.8722656965255737,-7.067683219909668,6.023811340332031,164.306640625,-37.1246337890625,44.1131591796875
6.7299999,-1.5442601442337036,-6.169857978820801,6.141127586364746,155.5023193359375,-15.2740478515625,54.656982421875
6.749999900000001,-1.434126853942871,-5.525817394256592,6.641515731811523,235.1531982421875,-18.829345703125,78.338623046875
6.7699999,-1.170764684677124,-5.544970989227295,7.620744228363037,298.4161376953125,-38.665771484375,118.988037109375
6.789999900000001,-1.01753568649292,-6.09324312210083,8.578424453735352,317.7032470703125,-52.06298828125,96.2371826171875
6.8099999,-0.7206547260284424,-6.92881965637207,9.32302188873291,213.80615234375,-55.8929443359375,13.8092041015625
6.829999900000001,-0.6655880808830261,-7.4986395835876465,9.368511199951172,167.54150390625,-48.2940673828125,-56.1065673828125
6.8499999,-0.6488286852836609,-7.283161640167236,9.263166427612305,122.802734375,-21.514892578125,-77.9571533203125
6.869999900000001,-0.8858546018600464,-6.129156112670898,9.028534889221191,40.3594970703125,-21.026611328125,-71.9146728515625
6.8899999,-1.235408067703247,-4.390965938568115,8.78193187713623,78.6895751953125,-18.157958984375,-49.13330078125
6.909999900000001,-1.556231141090393,-2.6791117191314697,8.777143478393555,62.8509521484375,-8.697509765625,-22.4761962890625
6.9299999,-1.778891921043396,-1.6304513216018677,9.10993766784668,42.66357421875,-10.1776123046875,-14.95361328125
6.949999900000001,-2.1332337856292725,-0.9481038451194763,9.490615844726562,101.13525390625,-53.1768798828125,-56.3201904296875
6.9699999,-2.360682964324951,-0.3208230137825012,9.81143856048584,63.5986328125,-124.93896484375,-101.409912109375
6.989999900000001,-2.63362193107605,0.40222588181495667,9.490615844726562,142.2576904296875,-98.1597900390625,-48.6907958984375
7.0099999,-2.5546131134033203,1.070208191871643,8.772355079650879,88.1805419921875,-1.3275146484375,22.3388671875
7.029999900000001,-2.1068975925445557,1.2689268589019775,7.802703380584717,-33.599853515625,40.924072265625,9.674072265625
7.0499999,-1.4245500564575195,0.8978256583213806,6.931213855743408,-4.5013427734375,44.9371337890625,-27.1453857421875
7.069999900000001,-0.7805097699165344,0.33039984107017517,6.485892295837402,-23.223876953125,86.456298828125,-26.67236328125
7.0899999000000005,-0.6775590777397156,-0.1388636976480484,6.370970726013184,-147.796630859375,143.2952880859375,17.9595947265625
7.109999900000001,-1.0319008827209473,-0.49320554733276367,6.53377628326416,-161.3616943359375,215.39306640625,42.9229736328125
7.1299999000000005,-1.7621324062347412,-1.2761094570159912,7.515398979187012,-302.215576171875,229.1717529296875,32.9132080078125
7.149999900000001,-2.3104045391082764,-2.477998733520508,8.983044624328613,-248.2147216796875,166.9158935546875,12.4969482421875
7.1699999000000005,-2.5953147411346436,-3.88818359375,10.589553833007812,-25.6195068359375,71.9451904296875,-9.8876953125
7.1899999,-2.801215887069702,-4.855441093444824,11.398794174194336,67.657470703125,-12.02392578125,-39.154052734375
7.209999900000001,-2.985569477081299,-5.2672438621521,11.231200218200684,40.9393310546875,10.833740234375,-36.5142822265625
7.2299999,-3.4165258407592773,-5.125985622406006,10.429142951965332,-76.2481689453125,82.550048828125,-32.2113037109375
7.249999900000001,-3.8762125968933105,-4.7189717292785645,9.591172218322754,-92.95654296875,89.9658203125,-48.2940673828125
7.2699999,-4.141968727111816,-4.402936935424805,9.397241592407227,-69.1375732421875,48.492431640625,-52.3681640625
7.289999900000001,-4.170699596405029,-4.165910720825195,9.674968719482422,-37.1551513671875,-1.8463134765625,-53.253173828125
7.3099999,-3.713406801223755,-3.97916316986084,9.921571731567383,6.072998046875,-38.26904296875,-51.788330078125
7.329999900000001,-3.4141316413879395,-3.9001545906066895,9.624691009521484,64.422607421875,-51.3763427734375,-49.1790771484375
7.3499999,-2.9305028915405273,-3.687070608139038,8.762778282165527,39.9169921875,-10.3302001953125,-58.89892578125
7.369999900000001,-2.765302896499634,-3.56017804145813,7.838616371154785,-95.52001953125,41.0614013671875,-53.03955078125
7.3899999,-2.801215887069702,-3.6320040225982666,7.230489253997803,-98.2666015625,55.60302734375,-30.7159423828125
7.409999900000001,-2.669534921646118,-3.8307228088378906,7.232883453369141,-74.40185546875,22.186279296875,-28.6102294921875
7.4299999,-2.698265314102173,-4.125209331512451,7.489062786102295,38.330078125,-10.223388671875,-32.684326171875
7.449999900000001,-2.8778305053710938,-4.264073371887207,7.762001991271973,17.0135498046875,6.4849853515625,-14.4805908203125
7.4699999,-3.332728862762451,-3.9240965843200684,7.671022415161133,-32.0587158203125,35.614013671875,17.730712890625
7.489999900000001,-3.866635799407959,-3.804386615753174,7.637503623962402,-40.95458984375,59.2193603515625,81.1309814453125
7.5099999,-4.331110954284668,-4.07014274597168,7.714118003845215,-48.5992431640625,61.920166015625,87.6007080078125
7.529999900000001,-4.359841346740723,-4.671087741851807,7.934384346008301,-75.927734375,40.1611328125,19.95849609375
7.5499999,-4.2544965744018555,-5.568912982940674,8.293514251708984,-93.536376953125,36.2396240234375,3.7689208984375
7.569999900000001,-3.8594532012939453,-6.1985883712768555,8.480262756347656,-34.5001220703125,26.7791748046875,36.80419921875
7.5899999000000005,-3.778050184249878,-6.378153324127197,8.485051155090332,38.726806640625,6.256103515625,40.252685546875
7.609999900000001,-3.6990416049957275,-6.452373504638672,8.530540466308594,30.0140380859375,-10.2081298828125,38.3758544921875
7.6299999000000005,-3.9169139862060547,-6.473921298980713,8.44195556640625,48.126220703125,-28.25927734375,42.3431396484375
7.649999900000001,-3.9001545906066895,-6.469132900238037,8.389283180236816,61.1572265625,-44.525146484375,24.3377685546875
7.6699999000000005,-3.976768970489502,-6.543353080749512,8.281543731689453,46.3714599609375,-51.2542724609375,-3.692626953125
7.6899999,-3.7493197917938232,-6.521805286407471,8.166622161865234,31.280517578125,-41.19873046875,-31.5704345703125
7.709999900000001,-3.4141316413879395,-6.31829833984375,8.111555099487305,20.4010009765625,-54.5806884765625,-43.2281494140625
7.7299999,-3.160346269607544,-5.896918773651123,7.951143741607666,83.251953125,-74.8138427734375,-36.6973876953125
7.749999900000001,-2.9065608978271484,-5.363011837005615,7.862558364868164,58.349609375,-65.2923583984375,-24.1241455078125
7.7699999,-2.650381326675415,-4.853046894073486,7.625532627105713,52.1697998046875,-50.4608154296875,-27.7252197265625
7.789999900000001,-2.3726539611816406,-4.481945514678955,7.582436561584473,29.7088623046875,-42.7398681640625,-44.7235107421875
7.8099999,-2.0853497982025146,-4.156333923339844,7.680599212646484,13.1378173828125,-71.3348388671875,-43.182373046875
7.829999900000001,-1.721431016921997,-3.998316764831543,8.288725852966309,-1.7547607421875,-105.1025390625,-21.4080810546875
7.8499999,-1.173158884048462,-3.971980571746826,8.904036521911621,125.274658203125,-125.640869140625,-9.1400146484375
7.869999900000001,-0.8307880163192749,-4.046200752258301,9.107542991638184,191.864013671875,-180.4962158203125,-25.5889892578125
7.8899999,-0.38067805767059326,-4.041412353515625,8.638279914855957,132.99560546875,-196.7620849609375,-33.8287353515625
7.909999900000001,0.021547814831137657,-3.758896589279175,7.343016624450684,40.435791015625,-141.0064697265625,-10.7879638671875
7.9299999,0.21787235140800476,-3.1100680828094482,5.935225963592529,56.060791015625,-30.76171875,22.3541259765625
7.949999900000001,0.3878606855869293,-2.561795711517334,4.965574264526367,-40.2374267578125,31.2042236328125,41.3055419921875
7.9699999,0.38067805767059326,-2.22660756111145,4.867412090301514,-37.1856689453125,70.5413818359375,22.918701171875
7.989999900000001,0.3447650372982025,-2.2625205516815186,5.822698593139648,-108.58154296875,71.0296630859375,1.434326171875
8.0099999,0.14604631066322327,-2.6862943172454834,7.354987621307373,-22.2015380859375,62.68310546875,32.9742431640625
8.0299999,-0.05746084079146385,-3.4739866256713867,9.205705642700195,31.2652587890625,50.6744384765625,54.962158203125
8.049999900000001,-0.28969839215278625,-4.323928356170654,11.046846389770508,-24.7039794921875,34.85107421875,-1.5106201171875
8.069999900000001,-0.5602431893348694,-5.063736438751221,12.78264331817627,-89.1876220703125,0.7781982421875,-56.7169189453125
8.0899999,-0.7757213711738586,-5.353435039520264,13.93664836883545,27.9693603515625,-67.5201416015625,-48.27880859375
8.1099999,-0.9576807022094727,-5.135562419891357,14.080300331115723,242.9962158203125,-121.490478515625,-13.2598876953125
8.129999900000001,-1.0414776802062988,-4.448426723480225,12.828132629394531,293.853759765625,-116.1956787109375,-13.641357421875
8.149999900000001,-1.0821791887283325,-3.4979286193847656,10.409989356994629,164.6728515625,-38.3148193359375,-28.961181640625
8.1699999,-0.9840168952941895,-2.5019407272338867,7.848193168640137,-21.9573974609375,56.0150146484375,-15.56396484375
8.1899999,-0.9026140570640564,-1.7070658206939697,6.251260757446289,-76.7974853515625,122.37548828125,3.96728515625
8.2099999,-0.8906430602073669,-1.3431471586227417,6.387730121612549,-118.682861328125,123.4130859375,-5.096435546875
8.229999900000001,-1.0558429956436157,-1.3096283674240112,7.91283655166626,-120.269775390625,67.9473876953125,-35.858154296875
8.2499999,-1.434126853942871,-1.3694833517074585,9.883264541625977,-56.7474365234375,-0.2288818359375,-36.8499755859375
8.2699999,-1.886630892753601,-1.3431471586227417,11.250353813171387,49.560546875,-31.097412109375,4.974365234375
8.2899999,-2.2697031497955322,-1.3311761617660522,11.499350547790527,92.0562744140625,5.462646484375,38.177490234375
8.309999900000001,-2.5330653190612793,-1.4269442558288574,10.919954299926758,-26.580810546875,63.8885498046875,8.2855224609375
8.3299999,-2.676717519760132,-1.7262194156646729,10.211270332336426,-147.4151611328125,92.1630859375,-28.3660888671875
8.3499999,-2.806004285812378,-2.073378562927246,9.952696800231934,-125.5035400390625,87.2802734375,-20.477294921875
8.3699999,-2.9161376953125,-2.3774423599243164,10.357316970825195,-63.53759765625,61.492919921875,3.5247802734375
8.389999900000001,-3.0382418632507324,-2.669534921646118,11.099518775939941,-26.2603759765625,29.4342041015625,13.4124755859375
8.4099999,-3.1004912853240967,-2.9712042808532715,11.688492774963379,-7.1868896484375,-5.6915283203125,10.5438232421875
8.4299999,-3.0765492916107178,-3.292027235031128,11.820174217224121,18.12744140625,-24.322509765625,8.514404296875
8.4499999,-2.985569477081299,-3.60566782951355,11.39161205291748,23.01025390625,-21.1639404296875,8.6212158203125
8.469999900000001,-2.8586769104003906,-3.845088005065918,10.508151054382324,2.44140625,-13.8092041015625,-2.7008056640625
8.4899999,-2.7006595134735107,-3.892971992492676,9.476250648498535,-29.4952392578125,-2.7618408203125,-24.9786376953125
8.5099999,-2.585737943649292,-3.7229835987091064,8.652645111083984,-56.427001953125,10.4522705078125,-30.303955078125
8.5299999,-2.4636335372924805,-3.3925838470458984,8.20732307434082,-38.4979248046875,14.6484375,-11.871337890625
8.549999900000001,-2.3319525718688965,-3.0765492916107178,8.202534675598145,-19.927978515625,5.615234375,0.8544921875
8.569999900000001,-2.1308395862579346,-2.920926094055176,8.365341186523438,3.84521484375,-8.23974609375,-2.685546875
8.5899999,-1.802833914756775,-2.9257144927978516,8.525752067565918,16.5863037109375,-7.293701171875,-7.415771484375
8.6099999,-1.359906554222107,-3.0142998695373535,8.65982723236084,-23.13232421875,7.049560546875,-4.547119140625
8.629999900000001,-0.8523358106613159,-3.2297780513763428,8.798690795898438,-38.2232666015625,10.162353515625,10.68115234375
8.649999900000001,-0.31603461503982544,-3.584120035171509,8.971074104309082,3.35693359375,-3.8299560546875,18.341064453125
8.6699999,0.15083470940589905,-4.0294413566589355,9.136273384094238,13.397216796875,-11.3677978515625,2.5787353515625
8.6899999,0.4836287498474121,-4.546588897705078,9.318233489990234,-24.9786376953125,10.101318359375,-5.2490234375
8.709999900000001,0.629675030708313,-5.106832027435303,9.588777542114258,-50.8270263671875,38.6810302734375,6.988525390625
8.729999900000001,0.5841852426528931,-5.664681434631348,10.098742485046387,-41.473388671875,36.865234375,0.54931640625
8.7499999,0.30885201692581177,-6.114790916442871,10.819397926330566,-49.8046875,11.199951171875,-33.6456298828125
8.7699999,-0.17238251864910126,-6.356605529785156,11.487380027770996,-46.8902587890625,-4.2266845703125,-43.8690185546875
8.7899999,-0.8188169598579407,-6.279991149902344,11.884817123413086,-26.5045166015625,-2.86865234375,-27.3895263671875
8.809999900000001,-1.4939818382263184,-5.932831764221191,11.923124313354492,-24.749755859375,-3.23486328125,-24.23095703125
8.8299999,-2.1045033931732178,-5.4875102043151855,11.6430025100708,-27.069091796875,-8.1329345703125,-32.562255859375
8.8499999,-2.5977089405059814,-5.04218864440918,11.188104629516602,-33.69140625,-11.0321044921875,-33.2489013671875
8.8699999,-2.9257144927978516,-4.613626480102539,10.687716484069824,-52.2308349609375,-15.899658203125,-25.9857177734375
8.889999900000001,-3.090914487838745,-4.23773717880249,10.15141487121582,-41.3818359375,-29.6173095703125,-16.7999267578125
8.9099999,-3.1483752727508545,-4.003105163574219,9.586383819580078,-12.481689453125,-43.548583984375,-6.0577392578125
8.9299999,-3.0621838569641113,-3.914519786834717,8.937555313110352,15.7470703125,-44.036865234375,-2.2430419921875
8.9499999,-2.87064790725708,-3.88818359375,8.26239013671875,0.3509521484375,-29.78515625,-9.033203125
8.969999900000001,-2.6384103298187256,-3.9600095748901367,7.802703380584717,-67.8253173828125,-19.0582275390625,-7.4920654296875
8.9899999,-2.3104045391082764,-4.098873138427734,7.5968017578125,-44.8760986328125,-27.34375,6.1492919921875
9.0099999,-2.0015525817871094,-4.290409564971924,7.587224960327148,-5.462646484375,-43.6859130859375,7.3394775390625
9.0299999,-1.7381904125213623,-4.584896087646484,7.592013359069824,-10.0860595703125,-43.39599609375,4.974365234375
9.049999900000001,-1.5203180313110352,-4.953603267669678,7.445967197418213,-11.0321044921875,-26.67236328125,8.6822509765625
9.069999900000001,-1.3862427473068237,-5.372588634490967,7.223306655883789,-6.256103515625,-11.4593505859375,3.23486328125
9.0899999,-1.3072341680526733,-5.719748020172119,7.070077419281006,-19.3634033203125,-5.2947998046875,-15.655517578125
9.1099999,-1.2952631711959839,-5.861005783081055,7.086836814880371,-44.769287109375,-4.8980712890625,-30.5023193359375
9.129999900000001,-1.338358759880066,-5.681440830230713,7.161057472229004,-49.5758056640625,-5.3253173828125,-24.6429443359375
9.149999900000001,-1.4867992401123047,-5.243301868438721,7.2113356590271,-34.8052978515625,2.01416015625,-6.6070556640625
9.1699999,-1.6041151285171509,-4.802768707275391,7.249642848968506,-31.0821533203125,12.6190185546875,6.256103515625
9.1899999,-1.7094600200653076,-4.592078685760498,7.299921035766602,-24.169921875,14.251708984375,5.462646484375
9.209999900000001,-1.7381904125213623,-4.577713489532471,7.407660007476807,-29.6783447265625,2.5482177734375,-7.75146484375
9.229999900000001,-1.6831238269805908,-4.709394931793213,7.532158374786377,-26.824951171875,-10.8489990234375,-10.986328125
9.2499999,-1.577778935432434,-4.910507678985596,7.592013359069824,-7.537841796875,-12.6190185546875,7.14111328125
9.2699999,-1.3958195447921753,-5.166687488555908,7.481880187988281,4.7607421875,-11.1083984375,19.2108154296875
9.2899999,-1.2401964664459229,-5.475539207458496,7.252037048339844,8.7432861328125,-12.7105712890625,5.8135986328125
9.309999900000001,-1.0630255937576294,-5.731719017028809,6.964732646942139,-0.79345703125,-14.251708984375,-14.9688720703125
9.3299999,-0.9648633003234863,-5.906495571136475,6.7492547035217285,-8.4686279296875,-7.568359375,-7.354736328125
9.3499999,-0.8810662031173706,-5.918466567993164,6.636727333068848,9.368896484375,-0.640869140625,7.8125
9.3699999,-0.8331822156906128,-5.8657941818237305,6.708553314208984,-0.8392333984375,2.8076171875,4.6539306640625
9.389999900000001,-0.8044517636299133,-5.6910176277160645,6.916848659515381,-8.97216796875,10.2691650390625,-9.2926025390625
9.4099999,-0.7924807667732239,-5.518634796142578,7.273584842681885,-8.636474609375,4.8675537109375,2.3651123046875
9.4299999,-0.8020575642585754,-5.413290023803711,7.647080421447754,39.1387939453125,-9.613037109375,32.2418212890625
9.4499999,-0.7565677165985107,-5.5114521980285645,7.989450931549072,63.690185546875,-26.275634765625,34.6527099609375
9.469999900000001,-0.667982280254364,-5.853823184967041,8.176198959350586,52.6275634765625,-35.7513427734375,18.6004638671875
9.4899999,-0.5315127968788147,-6.258443355560303,8.2312650680542,25.5126953125,-32.5469970703125,3.326416015625
9.5099999,-0.3926490843296051,-6.524199485778809,8.238448143005371,-14.4805908203125,-34.2254638671875,-6.34765625
9.5299999,-0.2322375625371933,-6.5696892738342285,8.214506149291992,-2.9754638671875,-45.5169677734375,-5.43212890625
9.549999900000001,-0.1149216815829277,-6.538564682006836,8.252813339233398,11.0626220703125,-53.6956787109375,0.7171630859375
9.569999900000001,0.026336219161748886,-6.555324077606201,8.226476669311523,26.824951171875,-55.023193359375,-1.77001953125
9.5899999,0.10773907601833344,-6.617573261260986,8.147468566894531,20.4620361328125,-52.032470703125,-12.7716064453125
9.6099999,0.22026655077934265,-6.567295074462891,7.939172744750977,14.9383544921875,-46.051025390625,-28.2135009765625
9.629999900000001,0.2968810200691223,-6.36378812789917,7.603984832763672,12.420654296875,-30.181884765625,-25.7415771484375
9.649999900000001,0.3758896589279175,-6.162675380706787,7.2783732414245605,-5.79833984375,-5.889892578125,-10.6353759765625
9.6699999,0.47884035110473633,-6.057330131530762,7.043741226196289,-50.8880615234375,3.5247802734375,-22.613525390625
9.6899999,0.5482721924781799,-6.179434776306152,7.094019412994385,-52.001953125,14.5721435546875,-38.299560546875
9.709999900000001,0.6009446382522583,-6.3063273429870605,7.321468830108643,-16.5252685546875,7.62939453125,-44.586181640625
9.729999900000001,0.6392518281936646,-6.270414352416992,7.654263019561768,-13.5345458984375,-1.220703125,-40.8172607421875
9.7499999,0.6655880808830261,-6.0836663246154785,7.884106159210205,-20.6756591796875,3.0975341796875,-26.0467529296875
9.7699999,0.7110779285430908,-5.894524574279785,7.972691535949707,-20.477294921875,15.4266357421875,-18.768310546875
9.7899999,0.7086837291717529,-5.827486991882324,7.9415669441223145,-35.491943359375,28.1524658203125,-23.9105224609375
9.809999900000001,0.5961562395095825,-5.760449409484863,7.836222171783447,-34.5306396484375,31.73828125,-32.5469970703125
9.8299999,0.3902548849582672,-5.501875400543213,7.718906402587891,-5.5389404296875,37.200927734375,-21.7437744140625
9.8499999,0.16519992053508759,-5.188235282897949,7.762001991271973,18.218994140625,46.5087890625,24.4140625
9.8699999,-0.016759412363171577,-4.95120906829834,7.929595947265625,54.74853515625,39.97802734375,65.0634765625
9.889999900000001,0,-5.0900726318359375,8.24084186553955,89.691162109375,22.979736328125,56.9305419921875
9.9099999,0.05985504388809204,-5.442020416259766,8.465897560119629,51.788330078125,7.476806640625,10.4522705078125
9.9299999,0.12928688526153564,-5.758055210113525,8.547300338745117,-14.1754150390625,9.9334716796875,-16.7999267578125
9.9499999,0.1388636976480484,-5.849034786224365,8.458714485168457,-30.426025390625,19.866943359375,1.190185546875
9.969999900000001,0.11013327538967133,-5.750872611999512,8.389283180236816,-35.6903076171875,17.4560546875,17.8985595703125
9.9899999,0.06703764945268631,-5.676652431488037,8.40843677520752,-18.7530517578125,7.7667236328125,14.46533203125
10.0099999,0.031124621629714966,-5.664681434631348,8.480262756347656,-13.702392578125,-6.9427490234375,-1.52587890625
10.0299999,0.004788403399288654,-5.688623428344727,8.518569946289062,-22.2015380859375,-13.5345458984375,-2.2735595703125
10.049999900000001,-0.035913024097681046,-5.635950565338135,8.401253700256348,-7.9345703125,-9.613037109375,10.6201171875
10.069999900000001,-0.019153613597154617,-5.566518783569336,8.159439086914062,2.471923828125,1.4801025390625,18.85986328125
10.0899999,-0.040701430290937424,-5.686229228973389,7.987056732177734,-8.85009765625,17.2882080078125,22.857666015625
10.1099999,-0.016759412363171577,-5.882553577423096,7.833827972412109,23.5137939453125,16.0369873046875,9.8724365234375
10.129999900000001,0.05985504388809204,-6.1267619132995605,7.771578788757324,28.3966064453125,6.9427490234375,-5.3558349609375
10.149999900000001,-0.038307227194309235,-6.375759124755859,7.7643961906433105,-14.70947265625,14.3280029296875,4.2877197265625
10.1699999,-0.040701430290937424,-6.282385349273682,7.6566572189331055,-2.5634765625,37.78076171875,-4.1046142578125
10.1899999,-0.23942017555236816,-6.18182897567749,7.711723804473877,-31.585693359375,47.7142333984375,-5.3253173828125
10.209999900000001,-0.4118026793003082,-6.0190229415893555,7.90086555480957,-31.3873291015625,43.1365966796875,7.0037841796875
10.229999900000001,-0.5602431893348694,-5.96874475479126,8.279149055480957,-2.3651123046875,24.993896484375,7.8125
10.2499999,-0.6655880808830261,-6.107608318328857,8.707711219787598,21.484375,4.9896240234375,6.3323974609375
10.2699999,-0.6991068720817566,-6.358999729156494,8.959102630615234,36.956787109375,-7.9193115234375,4.8065185546875
10.2899999,-0.7230489253997803,-6.4834980964660645,8.916007041931152,16.1895751953125,-13.00048828125,-5.4931640625
10.309999900000001,-0.7350199222564697,-6.382941722869873,8.62630844116211,-13.519287109375,-9.33837890625,-9.0179443359375
10.3299999,-0.7326257228851318,-6.098031520843506,8.221688270568848,-26.9012451171875,-5.523681640625,9.3536376953125
10.3499999,-0.7086837291717529,-5.7772088050842285,7.838616371154785,-5.8441162109375,-5.0201416015625,25.1312255859375
10.3699999,-0.6775590777397156,-5.66228723526001,7.5968017578125,-7.5225830078125,-5.4168701171875,20.2178955078125
10.389999900000001,-0.6584054827690125,-5.6910176277160645,7.474697589874268,-23.6358642578125,-4.4403076171875,-4.2266845703125
10.4099999,-0.6727706789970398,-5.791574001312256,7.453149795532227,-36.7431640625,1.5411376953125,-9.5062255859375
10.4299999,-0.7422025203704834,-5.832275390625,7.51779317855835,-39.9169921875,6.866455078125,5.645751953125
10.4499999,-0.8164227604866028,-5.779603004455566,7.592013359069824,-22.5677490234375,7.354736328125,12.87841796875
10.469999900000001,-0.871489405632019,-5.839457988739014,7.7213006019592285,-24.9176025390625,4.486083984375,17.333984375
10.4899999,-0.871489405632019,-6.033388137817383,7.802703380584717,-7.110595703125,1.40380859375,16.876220703125
10.5099999,-0.8523358106613159,-6.289567947387695,7.817068576812744,-3.2196044921875,-1.1444091796875,5.8441162109375
10.5299999,-0.8236053586006165,-6.509834289550781,7.759607791900635,-16.754150390625,2.8839111328125,-2.25830078125
10.549999900000001,-0.8020575642585754,-6.67982292175293,7.668628215789795,-14.22119140625,9.185791015625,5.4473876953125
10.569999900000001,-0.7972691655158997,-6.789956092834473,7.577648162841797,1.434326171875,7.9498291015625,9.7198486328125
10.5899999,-0.8044517636299133,-6.845022678375244,7.522581577301025,0.0762939453125,4.8675537109375,-3.2806396484375
10.6099999,-0.8188169598579407,-6.833051681518555,7.544129371643066,-16.17431640625,6.5155029296875,-11.5966796875
10.629999900000001,-0.8427590131759644,-6.777985095977783,7.630321025848389,-5.2337646484375,7.1563720703125,0.946044921875
10.649999900000001,-0.8667010068893433,-6.746860504150391,7.836222171783447,23.6663818359375,-8.48388671875,0.640869140625
10.6699999,-0.871489405632019,-6.766014099121094,7.850587368011475,4.8065185546875,-8.5906982421875,-14.8162841796875
10.6899999,-0.871489405632019,-6.718130111694336,7.805097579956055,-0.0457763671875,-2.410888671875,-9.94873046875
10.709999900000001,-0.8858546018600464,-6.629544734954834,7.793126583099365,4.2572021484375,-3.6773681640625,3.4942626953125
10.729999900000001,-0.871489405632019,-6.521805286407471,7.783549785614014,19.4549560546875,-13.702392578125,1.6021728515625
10.7499999,-0.8403648138046265,-6.584054470062256,7.91283655166626,24.4293212890625,-16.6778564453125,-7.0648193359375
10.7699999,-0.7924807667732239,-6.768408298492432,8.135497093200684,30.5023193359375,-24.23095703125,-10.528564453125
10.7899999,-0.7326257228851318,-6.890512466430664,8.362946510314941,51.605224609375,-47.637939453125,-20.5078125
10.809999900000001,-0.6847416758537292,-6.825869083404541,8.516175270080566,52.154541015625,-65.643310546875,-30.2886962890625
10.8299999,-0.6248866319656372,-6.531382083892822,8.463502883911133,75.836181640625,-59.112548828125,-23.956298828125
10.8499999,-0.545877993106842,-6.191405773162842,8.176198959350586,117.1417236328125,-39.3829345703125,0.274658203125
10.8699999,-0.40701428055763245,-5.813121795654297,7.706935405731201,175.2777099609375,-17.425537109375,-1.6632080078125
10.889999900000001,-0.24181437492370605,-5.420472621917725,7.280767440795898,179.901123046875,15.4876708984375,-23.956298828125
10.9099999,-0.09576806426048279,-4.865017890930176,7.216124057769775,56.9305419921875,39.1693115234375,-35.8734130859375
10.9299999,-0.014365210197865963,-4.175487995147705,7.745242595672607,-8.11767578125,37.7197265625,-16.754150390625
10.9499999,0.028730420395731926,-3.6176388263702393,8.78193187713623,34.97314453125,-3.9215087890625,13.2598876953125
10.969999900000001,0.031124621629714966,-3.4117374420166016,9.885659217834473,98.6175537109375,-56.365966796875,19.287109375
10.9899999,0.047884032130241394,-3.5745432376861572,10.465055465698242,115.081787109375,-68.78662109375,-0.79345703125
11.0099999,0.08379705995321274,-3.804386615753174,10.20648193359375,126.556396484375,-35.3546142578125,-17.7764892578125
11.0299999,0.11252748221158981,-3.6104562282562256,9.385271072387695,127.349853515625,12.1307373046875,-31.67724609375
11.049999900000001,0.12689268589019775,-3.064578056335449,8.719682693481445,68.603515625,37.7349853515625,-17.8375244140625
11.069999900000001,0.1867477297782898,-2.432508945465088,8.683769226074219,42.29736328125,26.458740234375,15.7928466796875
11.0899999,0.2753331959247589,-2.0183119773864746,9.313444137573242,41.6412353515625,-12.725830078125,16.8609619140625
11.1099999,0.38307225704193115,-1.900996208190918,10.055646896362305,51.3763427734375,-45.7916259765625,-4.8370361328125
11.129999900000001,0.45489832758903503,-1.8914192914962769,10.36449909210205,39.642333984375,-44.8760986328125,-14.8468017578125
11.149999900000001,0.47644615173339844,-1.7621324062347412,9.988609313964844,28.2135009765625,-8.880615234375,-4.2877197265625
11.1699999,0.45250412821769714,-1.5945383310317993,9.344569206237793,1.8463134765625,29.8614501953125,7.965087890625
11.1899999,0.3974374830722809,-1.4532804489135742,8.927978515625,-15.716552734375,35.7513427734375,1.7242431640625
11.209999900000001,0.3519476354122162,-1.4460978507995605,9.01895809173584,-0.8544921875,11.5509033203125,-5.37109375
11.229999900000001,0.33997663855552673,-1.5275006294250488,9.342175483703613,54.718017578125,-8.270263671875,4.0435791015625
11.2499999,0.35434186458587646,-1.5945383310317993,9.627084732055664,52.215576171875,3.753662109375,6.561279296875
11.2699999,0.363918662071228,-1.5682021379470825,9.763554573059082,-24.7955322265625,24.261474609375,-4.5166015625
11.2899999,0.35673606395721436,-1.5083470344543457,9.840168952941895,-56.45751953125,20.2789306640625,-6.500244140625
11.309999900000001,0.3256114423274994,-1.482010841369629,9.981427192687988,-12.1917724609375,1.89208984375,7.7362060546875
11.3299999,0.26815059781074524,-1.4867992401123047,10.15141487121582,9.063720703125,-7.9345703125,8.4991455078125
11.3499999,0.2059013396501541,-1.455674648284912,10.163386344909668,-1.1749267578125,-4.33349609375,-5.8135986328125
11.3699999,0.181959331035614,-1.4413094520568848,10.029311180114746,3.7841796875,5.859375,-2.3193359375
11.389999900000001,0.181959331035614,-1.479616641998291,9.837775230407715,16.265869140625,10.498046875,15.0299072265625
11.4099999,0.2059013396501541,-1.5394717454910278,9.639056205749512,26.947021484375,10.711669921875,5.7220458984375
11.4299999,0.21308395266532898,-1.6328455209732056,9.622296333312988,-9.4451904296875,15.655517578125,-13.8092041015625
11.4499999,0.19871874153614044,-1.678335428237915,9.751583099365234,-28.50341796875,12.8326416015625,-11.0931396484375
11.469999900000001,0.13168109953403473,-1.5634137392044067,9.911994934082031,4.4403076171875,-5.43212890625,3.7689208984375
11.4899999,0.06703764945268631,-1.403002142906189,10.036493301391602,18.707275390625,-13.916015625,10.6964111328125
11.5099999,0.047884032130241394,-1.37906014919281,10.04846477508545,-7.4920654296875,-4.5318603515625,6.8511962890625
11.5299999,0.07182604819536209,-1.4700398445129395,9.93354320526123,-22.2930908203125,1.2969970703125,-2.6397705078125
11.549999900000001,0.10534487664699554,-1.5442601442337036,9.780313491821289,-9.1552734375,-2.01416015625,-7.965087890625
11.569999900000001,0.1149216815829277,-1.5729905366897583,9.725247383117676,4.6539306640625,1.708984375,0.3662109375
11.5899999,0.12449848651885986,-1.5825673341751099,9.713275909423828,6.011962890625,5.2642822265625,7.50732421875
11.6099999,0.12689268589019775,-1.580173134803772,9.691728591918945,7.50732421875,1.312255859375,-1.190185546875
11.629999900000001,0.13168109953403473,-1.6160861253738403,9.703699111938477,0.8392333984375,2.532958984375,-8.97216796875
11.649999900000001,0.14844051003456116,-1.7405846118927002,9.75637149810791,0.3509521484375,8.5906982421875,-1.7852783203125
11.6699999,0.12689268589019775,-1.764526605606079,9.806650161743164,3.7689208984375,4.1046142578125,-5.645751953125
11.6899999,0.05267243832349777,-1.6352397203445435,9.840168952941895,1.40380859375,-4.0130615234375,-15.899658203125
11.709999900000001,-0.009576806798577309,-1.455674648284912,9.80904483795166,11.7645263671875,-1.6632080078125,-4.150390625
11.729999900000001,-0.05027823522686958,-1.3120225667953491,9.780313491821289,11.993408203125,7.2784423828125,13.580322265625
11.7499999,-0.035913024097681046,-1.316810965538025,9.801861763000488,-2.9144287109375,6.5155029296875,6.0577392578125
11.7699999,0.019153613597154617,-1.4915876388549805,9.854534149169922,2.166748046875,-5.7220458984375,-12.0697021484375
11.7899999,0.06703764945268631,-1.6400281190872192,9.876082420349121,16.3421630859375,-10.4827880859375,-17.333984375
11.809999900000001,0.06703764945268631,-1.6112977266311646,9.816226959228516,10.1470947265625,0.5340576171875,-8.3465576171875
11.8299999,0.05746084079146385,-1.5059528350830078,9.718064308166504,5.7373046875,11.444091796875,2.2125244140625
11.8499999,0.043095629662275314,-1.338358759880066,9.66539192199707,11.0626220703125,7.080078125,-4.9285888671875
11.8699999,0.06464344263076782,-1.359906554222107,9.739612579345703,12.1612548828125,-0.152587890625,-8.23974609375
11.889999900000001,0.09816227108240128,-1.4772224426269531,9.847352027893066,16.0064697265625,-1.40380859375,-6.317138671875
11.9099999,0.09816227108240128,-1.4748282432556152,9.84495735168457,16.845703125,-2.13623046875,-20.2178955078125
11.9299999,0.07182604819536209,-1.3862427473068237,9.797073364257812,7.9498291015625,5.0048828125,-18.951416015625
11.9499999,0.031124621629714966,-1.1994950771331787,9.744400978088379,-7.0343017578125,9.8419189453125,-4.1961669921875
11.969999900000001,0.004788403399288654,-1.0199298858642578,9.761159896850586,-2.899169921875,5.5999755859375,0.3204345703125
11.9899999,-0.009576806798577309,-0.9385270476341248,9.854534149169922,-0.1220703125,-0.6561279296875,-7.75146484375
12.0099999,-0.004788403399288654,-0.9744400978088379,9.950302124023438,-3.7841796875,-1.77001953125,-10.223388671875
12.0299999,0,-1.0534487962722778,9.981427192687988,-8.1787109375,0.8392333984375,-5.859375
12.049999900000001,0,-1.1324573755264282,9.938331604003906,-2.9754638671875,3.997802734375,-5.9661865234375
12.069999900000001,0.014365210197865963,-1.237802267074585,9.9000244140625,3.3721923828125,7.0037841796875,-11.29150390625
12.0899999,0.040701430290937424,-1.3694833517074585,9.93593692779541,-3.2958984375,6.28662109375,-16.571044921875
12.1099999,0.07661445438861847,-1.525106430053711,10.038887977600098,-4.5928955078125,-0.7781982421875,-17.974853515625
12.129999900000001,0.10773907601833344,-1.5107412338256836,10.122684478759766,2.0904541015625,-8.7127685546875,-23.2391357421875
12.149999900000001,0.10055647045373917,-1.3192051649093628,10.158597946166992,0.4425048828125,-5.9051513671875,-23.468017578125
12.1699999,0.1149216815829277,-1.2042834758758545,10.230423927307129,-1.861572265625,6.2255859375,-0.762939453125
12.1899999,0.17717093229293823,-1.357512354850769,10.498574256896973,-8.4228515625,7.0953369140625,6.256103515625
12.209999900000001,0.304063618183136,-1.8148049116134644,11.039664268493652,-9.27734375,-15.411376953125,-26.7333984375
12.229999900000001,0.5363011956214905,-2.5665841102600098,11.762712478637695,22.2625732421875,-38.177490234375,-56.45751953125
12.2499999,0.8331822156906128,-3.584120035171509,12.564770698547363,38.6505126953125,-39.3829345703125,-47.7752685546875
12.2699999,1.091755986213684,-4.264073371887207,13.326127052307129,19.2413330078125,-38.2843017578125,-84.9456787109375
12.289999900000002,1.2258312702178955,-4.532223701477051,14.228740692138672,-16.2200927734375,-48.919677734375,-146.3623046875
12.309999900000001,1.290474772453308,-4.659116744995117,15.294160842895508,10.467529296875,-74.371337890625,-126.40380859375
12.3299999,1.0869675874710083,-3.8331170082092285,16.045940399169922,80.3985595703125,-135.6201171875,-147.552490234375
12.3499999,0.7038952708244324,-2.2146365642547607,16.021997451782227,109.466552734375,-188.812255859375,-202.392578125
12.3699999,0.31603461503982544,0.08140286058187485,15.006855964660645,107.7728271484375,-169.6929931640625,-157.9132080078125
12.389999900000001,0.06464344263076782,2.389413356781006,13.472172737121582,83.06884765625,-110.3515625,-58.6090087890625
12.4099999,0.1412578970193863,3.8786067962646484,12.052411079406738,52.459716796875,-111.6485595703125,-24.3072509765625
12.4299999,0.35434186458587646,4.240131378173828,11.226411819458008,66.4825439453125,-152.2064208984375,-71.5484619140625
12.4499999,0.4141969084739685,4.1395745277404785,10.589553833007812,109.649658203125,-198.577880859375,-114.898681640625
12.469999900000001,0.1173158809542656,4.462791919708252,9.600749015808105,134.5977783203125,-217.3309326171875,-90.4541015625
12.4899999,-0.629675030708313,5.901707172393799,7.728483200073242,159.5458984375,-195.6939697265625,-25.4364013671875
12.5099999,-1.5634137392044067,7.951143741607666,5.073313236236572,177.3834228515625,-140.777587890625,57.647705078125
12.5299999,-2.5474305152893066,9.720458984375,2.2697031497955322,147.7508544921875,-59.4482421875,163.0401611328125
12.549999900000001,-3.399766445159912,10.47942066192627,-0.15801730751991272,114.990234375,-10.284423828125,240.692138671875
12.569999900000001,-3.995922565460205,9.440337181091309,-1.7764976024627686,91.796875,0.67138671875,321.4111328125
12.5899999,-4.333505153656006,6.950367450714111,-3.004723072052002,120.60546875,-4.21142578125,353.1341552734375
12.6099999,-4.5394062995910645,3.5913026332855225,-4.290409564971924,195.98388671875,70.4193115234375,313.5833740234375
12.629999900000001,-4.922478675842285,-0.730231523513794,-5.374982833862305,136.53564453125,259.4146728515625,342.132568359375
12.649999900000001,-5.623979568481445,-5.700594425201416,-6.210559368133545,15.4571533203125,395.782470703125,417.05322265625
12.6699999,-6.904877662658691,-10.893617630004883,-6.299144744873047,-26.3519287109375,463.07373046875,318.17626953125
12.6899999,-9.531316757202148,-14.994885444641113,-5.30076265335083,-132.7362060546875,499.9847412109375,85.9375
12.709999900000001,-13.069947242736816,-18.516756057739258,-2.518700122833252,-247.86376953125,499.9847412109375,98.5565185546875
12.729999900000001,-18.76096534729004,-21.337125778198242,3.0597896575927734,-368.316650390625,499.9847412109375,272.1099853515625
12.7499999,-23.32670783996582,-24.861391067504883,11.695674896240234,-413.665771484375,499.9847412109375,249.0386962890625
12.7699999,-26.956315994262695,-28.366500854492188,21.69146728515625,-175.933837890625,499.9847412109375,-160.64453125
12.789999900000002,-27.99779510498047,-29.4582576751709,29.922733306884766,-32.3486328125,130.157470703125,-500
12.809999900000001,-26.645071029663086,-27.193342208862305,33.48769760131836,134.1094970703125,-86.395263671875,-500
12.8299999,-24.104822158813477,-22.821531295776367,31.857248306274414,265.960693359375,-99.8687744140625,-232.177734375
12.8499999,-21.301212310791016,-18.255788803100586,27.33938980102539,59.2193603515625,-30.5023193359375,-269.195556640625
12.8699999,-19.08418083190918,-14.341268539428711,22.158336639404297,-153.38134765625,-49.4232177734375,-500
12.889999900000001,-17.602170944213867,-10.702081680297852,18.612524032592773,-129.1656494140625,-106.0638427734375,-500
12.9099999,-17.041927337646484,-5.166687488555908,17.01559066772461,-86.0443115234375,-193.7103271484375,-500
12.9299999,-16.81687355041504,2.118868589401245,16.16086196899414,114.9749755859375,-345.0164794921875,-407.989501953125
12.9499999,-16.666038513183594,9.141061782836914,14.487314224243164,387.481689453125,-500,-58.8226318359375
12.969999900000001,-16.318878173828125,13.685256958007812,10.809821128845215,499.9847412109375,-500,263.7939453125
12.9899999,-15.401899337768555,13.967772483825684,4.920084476470947,499.9847412109375,-317.047119140625,485.3057861328125
13.0099999,-13.800178527832031,9.083600997924805,-1.235408067703247,425.5523681640625,20.416259765625,499.9847412109375
13.0299999,-11.042057991027832,0.3256114423274994,-5.633556365966797,175.4302978515625,195.25146484375,499.9847412109375
13.049999900000001,-7.407660007476807,-9.677363395690918,-6.773196697235107,111.02294921875,189.88037109375,228.6834716796875
13.069999900000001,-3.7421371936798096,-17.946935653686523,-4.477157115936279,98.419189453125,185.6231689453125,-23.5748291015625
13.0899999,-0.7924807667732239,-21.504718780517578,-0.2968810200691223,49.1485595703125,167.29736328125,-137.908935546875
13.1099999,0.8643068075180054,-19.98200798034668,4.6734819412231445,-111.2213134765625,91.6290283203125,-155.7769775390625
13.129999900000001,1.3623007535934448,-15.344438552856445,8.987833023071289,-16.357421875,42.388916015625,0.06103515625
13.149999900000001,1.070208191871643,-9.99339771270752,11.90157699584961,134.0179443359375,10.8642578125,73.760986328125
13.1699999,0.5051765441894531,-6.011840343475342,13.115436553955078,92.987060546875,-5.9051513671875,3.082275390625
13.1899999,0.09816227108240128,-4.338293552398682,12.871228218078613,18.98193359375,2.50244140625,-21.514892578125
13.209999900000001,-0.17477671802043915,-4.333505153656006,11.982979774475098,-44.9371337890625,13.97705078125,-9.3536376953125
13.229999900000001,-0.3711012601852417,-4.608838081359863,10.852916717529297,-18.585205078125,-8.4075927734375,-53.7567138671875
13.2499999,-0.5410895943641663,-4.67827033996582,9.979032516479492,25.787353515625,-23.49853515625,-71.9451904296875
13.2699999,-0.6727706789970398,-4.570530891418457,9.313444137573242,40.6951904296875,-5.3558349609375,-1.52587890625
13.289999900000002,-0.6967126727104187,-4.563348293304443,8.858546257019043,28.2745361328125,9.490966796875,41.32080078125
13.309999900000001,-0.6224924325942993,-4.764461517333984,8.631096839904785,-6.2408447265625,-1.5106201171875,-27.0233154296875
13.3299999,-0.49799394607543945,-4.81473970413208,8.595184326171875,-13.1988525390625,-13.6871337890625,-91.2933349609375
13.3499999,-0.4692635238170624,-4.357447147369385,8.671798706054688,6.9732666015625,-4.1351318359375,-40.7562255859375
13.3699999,-0.507570743560791,-3.6104562282562256,8.65743350982666,40.4510498046875,3.6468505859375,50.3997802734375
13.389999900000001,-0.4908113479614258,-3.3494882583618164,8.60236644744873,23.5137939453125,4.69970703125,57.0220947265625
13.4099999,-0.40462008118629456,-3.689464807510376,8.525752067565918,-21.820068359375,4.241943359375,-19.10400390625
13.4299999,-0.28730419278144836,-4.268861770629883,8.554482460021973,-37.628173828125,10.009765625,-49.285888671875
13.4499999,-0.22026655077934265,-4.608838081359863,8.676587104797363,-0.18310546875,9.063720703125,5.950927734375
13.469999900000001,-0.2298433631658554,-4.6040496826171875,8.765172004699707,34.271240234375,-2.5634765625,37.841796875
13.4899999,-0.26815059781074524,-4.529829502105713,8.729259490966797,21.2860107421875,0,4.5013427734375
13.5099999,-0.2777273952960968,-4.7189717292785645,8.705317497253418,-25.2532958984375,22.9949951171875,-11.8408203125
13.5299999,-0.2992752194404602,-4.932055473327637,8.738836288452148,-27.8472900390625,27.313232421875,1.52587890625
13.549999900000001,-0.3711012601852417,-4.876988887786865,8.813055992126465,10.7269287109375,3.1890869140625,-5.157470703125
13.569999900000001,-0.44532153010368347,-4.764461517333984,9.011775016784668,15.716552734375,7.171630859375,-3.4027099609375
13.5899999,-0.5291185975074768,-4.546588897705078,9.23443603515625,-13.7939453125,21.2249755859375,0.152587890625
13.6099999,-0.5937620401382446,-4.3861775398254395,9.409213066101074,-6.500244140625,7.26318359375,4.1046142578125
13.629999900000001,-0.6536170840263367,-4.256890773773193,9.452308654785156,28.99169921875,-19.378662109375,0.8392333984375
13.649999900000001,-0.6799532771110535,-4.264073371887207,9.330204010009766,30.1513671875,-14.007568359375,2.1209716796875
13.6699999,-0.6751648783683777,-4.288015365600586,9.011775016784668,0.79345703125,7.537841796875,2.6702880859375
13.6899999,-0.6344634294509888,-4.378994941711426,8.705317497253418,-9.368896484375,12.298583984375,1.3275146484375
13.709999900000001,-0.5817909836769104,-4.534617900848389,8.585607528686523,14.3890380859375,1.0986328125,-1.1444091796875
13.729999900000001,-0.5434837937355042,-4.627991676330566,8.62630844116211,22.9339599609375,-8.4228515625,-8.11767578125
13.7499999,-0.5386953949928284,-4.584896087646484,8.695740699768066,2.899169921875,-5.1727294921875,-8.758544921875
13.7699999,-0.5578489899635315,-4.424484729766846,8.767566680908203,-9.27734375,6.6070556640625,1.007080078125
13.789999900000002,-0.5889736413955688,-4.264073371887207,8.882488250732422,3.11279296875,9.1094970703125,6.04248046875
13.809999900000001,-0.5841852426528931,-4.311957359313965,9.038111686706543,19.134521484375,-0.1678466796875,4.39453125
13.8299999,-0.5602431893348694,-4.446032524108887,9.14585018157959,14.58740234375,-6.7291259765625,-9.2620849609375
13.8499999,-0.5578489899635315,-4.527435302734375,9.138668060302734,-2.777099609375,-0.18310546875,-17.4407958984375
13.8699999,-0.5602431893348694,-4.505887508392334,9.050082206726074,0.946044921875,10.9100341796875,-2.9449462890625
13.889999900000001,-0.5793967843055725,-4.378994941711426,8.99740982055664,10.467529296875,13.5955810546875,6.4544677734375
13.9099999,-0.5985504388809204,-4.273650169372559,9.040505409240723,1.7852783203125,5.31005859375,-0.6866455078125
13.9299999,-0.5913678407669067,-4.280832767486572,9.093177795410156,0.213623046875,-2.74658203125,-4.8828125
13.9499999,-0.5602431893348694,-4.417302131652832,9.100360870361328,2.777099609375,-0.9307861328125,1.6937255859375
13.969999900000001,-0.5291185975074768,-4.508281707763672,9.002198219299316,0.335693359375,5.1422119140625,-3.936767578125
13.9899999,-0.5267243981361389,-4.46518611907959,8.89445972442627,-9.429931640625,11.4593505859375,-17.02880859375
14.0099999,-0.5386953949928284,-4.343081951141357,8.920795440673828,-13.18359375,15.106201171875,-6.6986083984375
14.0299999,-0.5674257874488831,-4.230554580688477,9.05487060546875,-0.9307861328125,5.279541015625,11.0015869140625
14.049999900000001,-0.5841852426528931,-4.252102375030518,9.17936897277832,15.472412109375,-8.6517333984375,6.6375732421875
14.069999900000001,-0.6009446382522583,-4.378994941711426,9.229647636413574,5.92041015625,-2.9754638671875,-14.1143798828125
14.0899999,-0.6153098344802856,-4.4723687171936035,9.205705642700195,-12.298583984375,11.871337890625,-18.3258056640625
14.1099999,-0.6512228846549988,-4.388571739196777,9.193734169006348,-11.65771484375,9.796142578125,-4.302978515625
14.129999900000001,-0.6919242739677429,-4.2090067863464355,9.220070838928223,10.528564453125,-4.364013671875,5.4779052734375
14.149999900000001,-0.7134721279144287,-4.0749311447143555,9.229647636413574,22.735595703125,-9.490966796875,0.1068115234375
14.1699999,-0.6919242739677429,-4.129997730255127,9.141061782836914,9.9029541015625,-1.4495849609375,-4.33349609375
14.1899999,-0.6560112833976746,-4.223371982574463,8.947132110595703,-1.1138916015625,4.2572021484375,-6.7901611328125
14.209999900000001,-0.6248866319656372,-4.189853191375732,8.75080680847168,-0.1220703125,3.90625,-12.908935546875
14.229999900000001,-0.6129156351089478,-4.108449935913086,8.69095230102539,0.274658203125,6.5460205078125,-3.875732421875
14.2499999,-0.608127236366272,-4.048594951629639,8.707711219787598,3.936767578125,4.94384765625,6.6986083984375
14.2699999,-0.6153098344802856,-4.027047157287598,8.722076416015625,8.148193359375,-1.52587890625,-2.2125244140625
14.289999900000002,-0.6224924325942993,-4.110844135284424,8.731653213500977,0.5340576171875,3.5552978515625,-11.29150390625
14.309999900000001,-0.6344634294509888,-4.2090067863464355,8.712499618530273,-8.636474609375,10.5743408203125,-8.4381103515625
14.3299999,-0.646434485912323,-4.266467571258545,8.712499618530273,-8.4228515625,8.9874267578125,-5.6610107421875
14.3499999,-0.6631938815116882,-4.266467571258545,8.71728801727295,1.1138916015625,4.302978515625,-9.5977783203125
14.3699999,-0.6991068720817566,-4.1874589920043945,8.667010307312012,3.9825439453125,3.814697265625,-14.251708984375
14.389999900000001,-0.7493851184844971,-4.072536945343018,8.51138687133789,-1.190185546875,11.6119384765625,-6.3934326171875
14.4099999,-0.7709329724311829,-4.122815132141113,8.339004516601562,-7.0037841796875,23.2086181640625,6.011962890625
14.4299999,-0.7398083209991455,-4.501099109649658,8.293514251708984,-6.65283203125,30.45654296875,-1.0528564453125
14.4499999,-0.6368576288223267,-5.1116204261779785,8.324639320373535,7.110595703125,22.6898193359375,-34.5916748046875
14.469999900000001,-0.45010992884635925,-5.822698593139648,8.413225173950195,19.7906494140625,17.822265625,-55.8929443359375
14.4899999,-0.20111294090747833,-6.648698329925537,8.51138687133789,19.6685791015625,27.8167724609375,-48.76708984375
14.5099999,0.0071826050989329815,-7.620744228363037,8.44195556640625,62.103271484375,34.9578857421875,-56.671142578125
14.5299999,0.10295066982507706,-8.779537200927734,8.482656478881836,71.685791015625,59.7686767578125,-112.8997802734375
14.549999900000001,-0.19632454216480255,-9.967061996459961,9.44991397857666,-136.505126953125,128.41796875,-180.3741455078125
14.569999900000001,-0.933738648891449,-11.255142211914062,11.81059741973877,-303.2989501953125,188.018798828125,-196.258544921875
14.5899999,-2.0877439975738525,-12.227188110351562,15.547945976257324,-158.6151123046875,125.6866455078125,-220.703125
14.6099999,-3.6296098232269287,-12.212822914123535,19.68991470336914,22.7813720703125,-40.95458984375,-331.2835693359375
14.629999900000001,-5.281609058380127,-10.76193618774414,22.89814567565918,63.0340576171875,-146.8963623046875,-392.425537109375
14.649999900000001,-6.84981107711792,-7.311892032623291,24.193408966064453,45.6085205078125,-199.0509033203125,-344.482421875
14.6699999,-8.008605003356934,-2.7126305103302,23.31952476501465,98.5260009765625,-279.6478271484375,-198.3184814453125
14.6899999,-8.53532886505127,1.2617442607879639,20.673931121826172,226.0284423828125,-356.9183349609375,-22.0794677734375
14.709999900000001,-8.449137687683105,3.8762125968933105,16.737863540649414,267.7001953125,-396.759033203125,16.387939453125
14.729999900000001,-8.166622161865234,5.0900726318359375,11.88002872467041,240.7989501953125,-428.8177490234375,-27.2216796875
14.7499999,-8.111555099487305,5.70777702331543,6.490680694580078,286.4837646484375,-440.4754638671875,10.5743408203125
14.7699999,-8.683769226074219,6.390124320983887,0.7541735172271729,428.28369140625,-390.9454345703125,143.951416015625
14.789999900000002,-9.718064308166504,6.6846113204956055,-5.231330871582031,499.9847412109375,-251.3885498046875,279.937744140625
14.809999900000001,-11.037269592285156,5.69580602645874,-10.8720703125,499.9847412109375,48.4466552734375,350.9521484375
14.8299999,-12.380416870117188,3.0861260890960693,-14.599842071533203,300.7354736328125,426.910400390625,351.6845703125
14.8499999,-13.539210319519043,-1.0893617868423462,-14.982913970947266,24.0325927734375,499.9847412109375,385.040283203125
14.8699999,-14.628572463989258,-7.127538681030273,-11.065999984741211,-140.655517578125,499.9847412109375,499.9847412109375
14.889999900000001,-14.841656684875488,-14.480132102966309,-3.9001545906066895,-55.60302734375,499.9847412109375,499.9847412109375
14.9099999,-14.223952293395996,-21.162349700927734,3.9624037742614746,209.197998046875,459.136962890625,168.8385009765625
14.9299999,-13.232752799987793,-24.679431915283203,10.613495826721191,180.9844970703125,420.8526611328125,-258.4991455078125
14.9499999,-12.15057373046875,-25.383325576782227,15.76581859588623,-145.2178955078125,488.3880615234375,-158.14208984375
14.969999900000001,-11.508927345275879,-23.740903854370117,18.66040802001953,-54.3060302734375,352.752685546875,40.95458984375
14.9899999,-11.90157699584961,-22.986730575561523,21.598093032836914,-53.64990234375,287.8570556640625,-101.62353515625
15.0099999,-13.488932609558105,-24.85660171508789,23.707386016845703,-53.52783203125,190.8721923828125,-377.685546875
15.0299999,-16.871938705444336,-28.17736053466797,24.78956413269043,1.678466796875,14.556884765625,-500
15.049999900000001,-22.191856384277344,-29.501354217529297,25.019407272338867,-145.4315185546875,-2.227783203125,-500
15.069999900000001,-28.464664459228516,-26.997018814086914,24.4184627532959,-297.2869873046875,116.4703369140625,-500
15.0899999,-34.1820182800293,-19.050662994384766,24.037784576416016,-285.7818603515625,214.29443359375,-500
15.1099999,-36.262577056884766,-6.7277069091796875,24.6171817779541,-202.2705078125,124.8016357421875,-500
15.129999900000001,-34.612972259521484,6.121973514556885,24.72970962524414,201.0040283203125,-187.80517578125,-316.40625
15.149999900000001,-29.393613815307617,15.016432762145996,22.98194122314453,499.9847412109375,-435.97412109375,265.411376953125
15.1699999,-22.251710891723633,17.98045539855957,18.092981338500977,499.9847412109375,-470.550537109375,440.277099609375
15.1899999,-15.58625316619873,15.260642051696777,9.78989028930664,499.9847412109375,-434.3719482421875,291.839599609375
15.209999900000001,-11.073183059692383,10.862493515014648,-0.22505496442317963,396.30126953125,-264.312744140625,100.616455078125
15.229999900000001,-9.289502143859863,7.38132381439209,-9.493009567260742,370.880126953125,142.608642578125,198.6236572265625
15.2499999,-10.474632263183594,3.6511576175689697,-14.12818431854248,150.9857177734375,499.9847412109375,499.9847412109375
15.2699999,-13.812150001525879,-2.233790159225464,-12.337321281433105,-132.110595703125,499.9847412109375,499.9847412109375
15.289999900000002,-15.538369178771973,-12.322956085205078,-3.5434184074401855,-195.7550048828125,499.9847412109375,499.9847412109375
15.309999900000001,-15.854403495788574,-22.29241180419922,8.544905662536621,-33.0810546875,147.552490234375,93.505859375
15.3299999,-13.776236534118652,-27.851747512817383,19.01714324951172,3.7841796875,-215.6524658203125,-402.83203125
15.3499999,-10.333374977111816,-26.84379005432129,23.980323791503906,167.6177978515625,-268.8751220703125,-152.4810791015625
15.3699999,-7.364564418792725,-21.26051139831543,22.577322006225586,310.11962890625,-160.82763671875,219.085693359375
15.389999900000001,-4.838681697845459,-15.06910514831543,17.30768394470215,96.954345703125,-29.35791015625,143.3868408203125
15.4099999,-2.9688100814819336,-10.412383079528809,11.475408554077148,-124.481201171875,67.6422119140625,-109.6649169921875
15.4299999,-1.7884687185287476,-7.343016624450684,7.623138427734375,-120.9869384765625,81.8634033203125,-133.2550048828125
15.4499999,-1.53707754611969,-5.051765441894531,6.619967937469482,-2.197265625,23.3001708984375,15.68603515625
15.469999900000001,-1.7932571172714233,-3.8307228088378906,7.297526836395264,104.5074462890625,-56.854248046875,86.9293212890625
15.4899999,-2.1284453868865967,-3.737348794937134,8.178592681884766,75.4852294921875,-88.2415771484375,-1.800537109375
15.5099999,-2.363077163696289,-4.252102375030518,8.482656478881836,-29.510498046875,-29.8919677734375,-86.2579345703125
15.5299999,-2.5234885215759277,-4.496310710906982,8.276755332946777,-66.131591796875,29.266357421875,-44.37255859375
15.549999900000001,-2.5929205417633057,-4.434061527252197,8.056488990783691,8.6669921875,16.3116455078125,46.7529296875
15.569999900000001,-2.583343744277954,-4.410119533538818,8.078036308288574,50.567626953125,-27.16064453125,39.459228515625
15.5899999,-2.4875755310058594,-4.623203277587891,8.164227485656738,2.0294189453125,-28.2440185546875,-33.172607421875
15.6099999,-2.3319525718688965,-4.9799394607543945,8.20732307434082,-37.1551513671875,4.974365234375,-33.6761474609375
15.629999900000001,-2.2146365642547607,-5.080495834350586,8.219294548034668,-12.0391845703125,10.8795166015625,13.336181640625
15.649999900000001,-2.1739351749420166,-4.955997467041016,8.236053466796875,22.552490234375,-13.336181640625,15.2740478515625
15.6699999,-2.1356279850006104,-4.970362663269043,8.257601737976074,9.307861328125,-13.5345458984375,-3.8604736328125
15.6899999,-2.1308395862579346,-5.078101634979248,8.250418663024902,-37.353515625,14.007568359375,-9.2315673828125
15.709999900000001,-2.1499931812286377,-5.17626428604126,8.250418663024902,-31.2347412109375,19.500732421875,-3.23486328125
15.729999900000001,-2.185906171798706,-5.264849662780762,8.398859977722168,9.9639892578125,2.25830078125,2.8228759765625
15.7499999,-2.229001760482788,-5.2911858558654785,8.595184326171875,13.48876953125,-12.725830078125,-7.4310302734375
15.7699999,-2.229001760482788,-5.339069843292236,8.729259490966797,-15.68603515625,-7.7362060546875,-10.406494140625
15.789999900000002,-2.207453966140747,-5.336675643920898,8.741230010986328,-23.0255126953125,0.79345703125,-5.0506591796875
15.809999900000001,-2.1547815799713135,-5.367800235748291,8.65743350982666,6.0577392578125,-4.669189453125,-0.762939453125
15.8299999,-2.1140801906585693,-5.355829238891602,8.525752067565918,20.1416015625,-11.749267578125,-10.101318359375
15.8499999,-2.0853497982025146,-5.279214859008789,8.329427719116211,3.2806396484375,-4.3182373046875,-17.15087890625
15.869999900000002,-2.075772762298584,-5.12119722366333,8.192957878112793,-7.5531005859375,10.6964111328125,-6.77490234375
15.889999900000001,-2.0661959648132324,-4.982333660125732,8.236053466796875,3.204345703125,10.4522705078125,4.241943359375
15.9099999,-2.0685901641845703,-4.891354084014893,8.396465301513672,18.73779296875,-11.932373046875,-1.5869140625
15.9299999,-2.0614075660705566,-4.857835292816162,8.508993148803711,15.9759521484375,-23.712158203125,-10.0250244140625
15.9499999,-2.0398597717285156,-4.833893299102783,8.554482460021973,-5.7220458984375,-1.9073486328125,-2.5634765625
15.969999900000001,-2.027888774871826,-4.73573112487793,8.501810073852539,-6.9732666015625,10.1470947265625,3.326416015625
15.9899999,-1.9823989868164062,-4.759673118591309,8.463502883911133,14.2974853515625,-5.126953125,6.103515625
16.0099999,-1.941697597503662,-4.8482584953308105,8.437167167663574,21.4996337890625,-17.0745849609375,-2.1820068359375
16.0299999,-1.9369091987609863,-4.8602294921875,8.322244644165039,0.6256103515625,-10.0860595703125,-13.5650634765625
16.0499999,-1.944091796875,-4.850652694702148,8.192957878112793,-11.3677978515625,6.4239501953125,0.48828125
16.0699999,-1.9704279899597168,-4.78122091293335,8.111555099487305,-0.48828125,5.8746337890625,12.2528076171875
16.089999900000002,-1.9632453918457031,-4.831499099731445,8.1139497756958,14.3280029296875,-7.2479248046875,5.767822265625
16.109999900000002,-1.9297266006469727,-4.982333660125732,8.154650688171387,5.4473876953125,-6.4544677734375,-7.568359375
16.1299999,-1.8770540952682495,-5.157110691070557,8.20492935180664,-11.7645263671875,8.880615234375,-10.31494140625
16.1499999,-1.8507179021835327,-5.16429328918457,8.267178535461426,-7.7972412109375,12.51220703125,-6.7596435546875
16.1699999,-1.8770540952682495,-5.003881454467773,8.29830265045166,10.284423828125,-1.9683837890625,-4.6539306640625
16.1899999,-1.900996208190918,-4.922478675842285,8.324639320373535,14.4500732421875,-1.6021728515625,6.439208984375
16.2099999,-1.944091796875,-4.836287498474121,8.329427719116211,-16.0675048828125,15.5029296875,0.244140625
16.2299999,-1.9608511924743652,-4.824316501617432,8.283937454223633,-14.09912109375,16.2200927734375,-9.2926025390625
16.249999900000002,-1.9728221893310547,-4.802768707275391,8.269572257995605,5.3558349609375,3.7078857421875,-3.8299560546875
16.269999900000002,-1.9776105880737305,-4.797980308532715,8.269572257995605,2.655029296875,2.410888671875,5.43212890625
16.2899999,-1.9704279899597168,-4.888959884643555,8.20492935180664,-5.9967041015625,8.056640625,6.5460205078125
16.3099999,-1.965639591217041,-4.960785865783691,8.073247909545898,-7.7972412109375,8.2244873046875,-8.0413818359375
16.3299999,-1.9823989868164062,-4.99669885635376,8.015787124633789,-6.5460205078125,12.26806640625,-9.9639892578125
16.3499999,-2.0231003761291504,-4.965574264526367,8.1139497756958,-4.0740966796875,15.0604248046875,8.1787109375
16.3699999,-2.0925323963165283,-4.853046894073486,8.307879447937012,2.655029296875,4.364013671875,15.0146484375
16.3899999,-2.1547815799713135,-4.910507678985596,8.549694061279297,10.4217529296875,-4.180908203125,11.8865966796875
16.4099999,-2.1715409755706787,-5.2049946784973145,8.765172004699707,8.392333984375,0.18310546875,8.6669921875
16.429999900000002,-2.1715409755706787,-5.501875400543213,8.93037223815918,-9.307861328125,5.9967041015625,-7.2479248046875
16.4499999,-2.1811177730560303,-5.631162166595459,9.05487060546875,-14.6636962890625,0.640869140625,-18.4478759765625
16.4699999,-2.190694570541382,-5.537788391113281,9.136273384094238,4.33349609375,-6.866455078125,-4.82177734375
16.4899999,-2.22660756111145,-5.169081687927246,9.121908187866211,12.1612548828125,-7.171630859375,3.4332275390625
16.5099999,-2.2385785579681396,-4.795586109161377,9.057265281677246,1.5411376953125,-1.1138916015625,4.3487548828125
16.5299999,-2.22660756111145,-4.618414878845215,8.96149730682373,-2.655029296875,-4.1046142578125,8.6669921875
16.5499999,-2.1763293743133545,-4.620809078216553,8.736441612243652,16.815185546875,-18.4173583984375,6.134033203125
16.5699999,-2.1164743900299072,-4.742913722991943,8.516175270080566,9.6435546875,-8.60595703125,-2.227783203125
16.589999900000002,-2.0614075660705566,-4.843470096588135,8.317456245422363,-17.27294921875,11.138916015625,-5.7525634765625
16.609999900000002,-2.0183119773864746,-4.8602294921875,8.164227485656738,-6.591796875,4.638671875,0.18310546875
16.6299999,-1.9776105880737305,-4.850652694702148,7.922413349151611,29.1900634765625,-17.5933837890625,5.9661865234375
16.6499999,-1.9608511924743652,-4.841075897216797,7.33583402633667,46.5545654296875,-24.4903564453125,0.9918212890625
16.6699999,-1.9847931861877441,-5.130774021148682,6.033388137817383,44.830322265625,-14.678955078125,1.8310546875
16.6899999,-1.9704279899597168,-6.349422931671143,4.046200752258301,91.2017822265625,10.5133056640625,26.91650390625
16.7099999,-1.9584569931030273,-9.023746490478516,2.0901381969451904,91.278076171875,108.82568359375,14.892578125
16.7299999,-2.4396915435791016,-13.117831230163574,1.2330138683319092,-102.142333984375,238.250732421875,-133.97216796875
16.749999900000002,-3.885789394378662,-18.59097671508789,2.513911724090576,-243.896484375,321.96044921875,-288.4674072265625
16.769999900000002,-6.538564682006836,-24.140735626220703,5.894524574279785,-158.9813232421875,303.863525390625,-391.082763671875
16.7899999,-10.96304988861084,-26.527755737304688,10.63743782043457,-189.7125244140625,220.062255859375,-500
16.8099999,-15.76821231842041,-24.823083877563477,15.954959869384766,-415.6036376953125,289.398193359375,-500
16.8299999,-19.184738159179688,-18.030733108520508,20.83673667907715,-299.5147705078125,309.173583984375,-500
16.8499999,-20.336349487304688,-8.772355079650879,24.832660675048828,91.6900634765625,109.4207763671875,-253.509521484375
16.8699999,-18.47126579284668,-1.048660397529602,26.944345474243164,398.9105224609375,-142.7001953125,58.1207275390625
16.8899999,-14.659696578979492,2.9520506858825684,26.42719841003418,471.7864990234375,-294.8150634765625,108.2763671875
16.9099999,-10.532093048095703,3.2106244564056396,22.984336853027344,434.75341796875,-319.732666015625,33.294677734375
16.929999900000002,-7.328651428222656,1.7693150043487549,17.74821662902832,373.22998046875,-244.964599609375,26.8402099609375
16.9499999,-5.767632007598877,0.8427590131759644,12.990938186645508,280.3497314453125,-151.275634765625,109.3902587890625
16.9699999,-6.030993938446045,1.05105459690094,10.079588890075684,257.62939453125,-182.769775390625,235.8245849609375
16.9899999,-7.9846625328063965,1.4676456451416016,8.520963668823242,483.612060546875,-326.59912109375,391.6778564453125
17.0099999,-10.63743782043457,0.7182605266571045,7.773972988128662,499.9847412109375,-334.6405029296875,499.9847412109375
17.0299999,-12.708422660827637,-2.233790159225464,6.375759124755859,499.9847412109375,-232.1624755859375,499.9847412109375
17.0499999,-13.323732376098633,-7.927201747894287,4.101267337799072,397.2015380859375,-222.7630615234375,499.9847412109375
17.0699999,-11.805809020996094,-15.854403495788574,1.1971008777618408,447.81494140625,-257.99560546875,499.9847412109375
17.089999900000002,-8.487444877624512,-23.920469284057617,-2.0590133666992188,432.464599609375,-188.7969970703125,241.5924072265625
17.109999900000002,-5.240907669067383,-28.55324935913086,-5.652710437774658,278.2745361328125,-22.94921875,-234.0087890625
17.1299999,-2.875436305999756,-27.88766098022461,-9.097966194152832,76.5533447265625,156.3873291015625,-437.7899169921875
17.1499999,-2.786850690841675,-22.081722259521484,-10.78348445892334,-239.8223876953125,418.2586669921875,-245.9564208984375
17.1699999,-4.874594688415527,-15.471331596374512,-9.38048267364502,-443.6492919921875,499.9847412109375,89.17236328125
17.1899999,-7.994239330291748,-11.094730377197266,-4.335899353027344,-313.8580322265625,499.9847412109375,71.0296630859375
17.2099999,-12.133813858032227,-10.132261276245117,4.23773717880249,-330.5816650390625,499.9847412109375,-293.9605712890625
17.2299999,-15.76821231842041,-11.681309700012207,15.301342964172363,-500,499.9847412109375,-402.8167724609375
17.249999900000002,-18.131288528442383,-13.675680160522461,26.503812789916992,-354.705810546875,499.9847412109375,-173.9959716796875
17.269999900000002,-19.211074829101562,-14.94221305847168,35.06547927856445,47.6226806640625,89.5538330078125,-141.4642333984375
17.2899999,-18.361133575439453,-15.263035774230957,38.692691802978516,158.050537109375,-179.0618896484375,-293.487548828125
17.3099999,-16.373945236206055,-14.00607967376709,37.16758728027344,40.8172607421875,-137.87841796875,-342.1173095703125
17.3299999,-14.183250427246094,-10.690110206604004,32.54677963256836,-108.367919921875,-42.05322265625,-315.185546875
17.3499999,-12.181697845458984,-5.995080947875977,27.325023651123047,-0.6103515625,-138.18359375,-215.7745361328125
17.3699999,-10.891223907470703,-0.9576807022094727,22.72815704345703,219.5587158203125,-376.3427734375,-130.950927734375
17.3899999,-10.273519515991211,3.136404275894165,18.145654678344727,323.2421875,-500,-35.003662109375
17.409999900000003,-9.804255485534668,4.824316501617432,12.15296745300293,463.4246826171875,-500,199.8291015625
17.429999900000002,-8.774748802185059,3.354276657104492,5.140350818634033,405.487060546875,-321.3043212890625,360.8551025390625
17.4499999,-6.787561893463135,-0.6129156351089478,-1.867477297782898,159.6527099609375,-145.1263427734375,194.549560546875
17.4699999,-4.129997730255127,-5.166687488555908,-6.787561893463135,-0.48828125,36.651611328125,-19.8974609375
17.4899999,-1.5203180313110352,-8.248024940490723,-8.267178535461426,-144.195556640625,174.3011474609375,-43.9300537109375
17.5099999,0.3471592366695404,-8.987833023071289,-6.086060523986816,-163.9862060546875,173.7060546875,39.1082763671875
17.5299999,1.4173674583435059,-8.391676902770996,-1.4173674583435059,-12.5885009765625,74.066162109375,93.93310546875
17.5499999,1.9273324012756348,-7.673416614532471,3.667917013168335,93.4295654296875,-8.6669921875,51.2542724609375
17.5699999,2.0590133666992188,-7.072471618652344,7.587224960327148,11.16943359375,7.4005126953125,-25.9857177734375
17.589999900000002,1.968033790588379,-6.555324077606201,9.751583099365234,-73.0438232421875,53.497314453125,-24.505615234375
17.609999900000002,1.721431016921997,-5.9304375648498535,10.60152530670166,-36.80419921875,47.6837158203125,27.9388427734375
17.6299999,1.4053963422775269,-5.456385612487793,10.718840599060059,16.2811279296875,8.0108642578125,31.6009521484375
17.6499999,1.1779472827911377,-5.276820659637451,10.383652687072754,9.4146728515625,-5.55419921875,-6.6375732421875
17.6699999,1.0438719987869263,-5.389348030090332,9.95748519897461,-40.2679443359375,32.4249267578125,-15.9454345703125
17.6899999,0.9385270476341248,-5.188235282897949,9.533711433410645,-34.637451171875,47.1954345703125,-8.331298828125
17.7099999,0.8188169598579407,-4.726154327392578,9.524134635925293,3.814697265625,24.3377685546875,3.84521484375
17.7299999,0.7254431247711182,-4.412513732910156,9.825803756713867,26.8096923828125,2.5177001953125,29.5867919921875
17.749999900000002,0.6631938815116882,-4.311957359313965,10.125079154968262,12.1917724609375,-10.589599609375,22.003173828125
17.769999900000002,0.6560112833976746,-4.481945514678955,10.199298858642578,-4.5166015625,-13.5040283203125,-0.6561279296875
17.7899999,0.7110779285430908,-4.774038314819336,9.943120002746582,20.8892822265625,-9.8114013671875,-1.0833740234375
17.8099999,0.7422025203704834,-4.95120906829834,9.488221168518066,29.9224853515625,-0.67138671875,2.6092529296875
17.8299999,0.7541735172271729,-4.934449672698975,8.983044624328613,-3.0517578125,6.1492919921875,-4.3792724609375
17.8499999,0.727837324142456,-4.788403511047363,8.676587104797363,-38.6962890625,8.8653564453125,-8.270263671875
17.8699999,0.7015010714530945,-4.618414878845215,8.633491516113281,-23.4375,6.195068359375,0.9307861328125
17.8899999,0.6703764796257019,-4.347870349884033,8.686163902282715,6.4697265625,-6.439208984375,0.2288818359375
17.909999900000003,0.6536170840263367,-4.067748546600342,8.736441612243652,-3.7841796875,-6.805419921875,-0.732421875
17.929999900000002,0.6177040338516235,-3.847482204437256,8.731653213500977,-32.8369140625,9.5977783203125,10.223388671875
17.9499999,0.6153098344802856,-3.866635799407959,8.743624687194824,-23.0712890625,15.0909423828125,22.6898193359375
17.9699999,0.629675030708313,-4.20421838760376,8.87051773071289,4.94384765625,2.6702880859375,21.0113525390625
17.9899999,0.646434485912323,-4.599261283874512,8.983044624328613,12.664794921875,-11.7950439453125,-9.033203125
18.0099999,0.6631938815116882,-5.011064052581787,8.96149730682373,8.1634521484375,-6.7138671875,-12.3443603515625
18.0299999,0.6607996821403503,-5.2696380615234375,8.841787338256836,-9.1705322265625,13.9007568359375,9.46044921875
18.0499999,0.6177040338516235,-5.147533416748047,8.75080680847168,-26.5655517578125,19.0277099609375,-3.3111572265625
18.0699999,0.5626373887062073,-4.903325080871582,8.87051773071289,-17.4407958984375,9.246826171875,-13.3056640625
18.089999900000002,0.5147533416748047,-4.742913722991943,9.126696586608887,9.5672607421875,-5.5389404296875,11.8408203125
18.109999900000002,0.4884171485900879,-4.620809078216553,9.215282440185547,28.594970703125,-20.6451416015625,17.1966552734375
18.1299999,0.4836287498474121,-4.6471452713012695,9.064447402954102,8.7127685546875,-11.9781494140625,-3.6163330078125
18.1499999,0.5099649429321289,-4.7405195236206055,8.741230010986328,-10.1470947265625,12.5274658203125,-11.3677978515625
18.1699999,0.5339069962501526,-4.651933670043945,8.528146743774414,-13.641357421875,21.0723876953125,-4.974365234375
18.1899999,0.5315127968788147,-4.448426723480225,8.62391471862793,-2.9754638671875,9.3994140625,7.720947265625
18.2099999,0.524330198764801,-4.355052947998047,8.9064302444458,18.280029296875,-12.14599609375,17.608642578125
18.2299999,0.524330198764801,-4.4939165115356445,9.064447402954102,29.5562744140625,-22.6287841796875,11.871337890625
18.249999900000002,0.545877993106842,-4.778826713562012,8.93037223815918,15.045166015625,-7.01904296875,-6.5155029296875
18.269999900000002,0.545877993106842,-4.891354084014893,8.65743350982666,-19.3939208984375,19.5159912109375,-20.599365234375
18.2899999,0.5219359993934631,-4.747702121734619,8.520963668823242,-26.9775390625,23.8037109375,-9.1094970703125
18.3099999,0.48602294921875,-4.572925090789795,8.59997272491455,10.9405517578125,1.434326171875,17.364501953125
18.3299999,0.4692635238170624,-4.546588897705078,8.731653213500977,34.210205078125,-15.3961181640625,14.7857666015625
18.3499999,0.4572925269603729,-4.656722068786621,8.762778282165527,-3.2958984375,-1.5716552734375,-16.876220703125
18.3699999,0.45010992884635925,-4.711789131164551,8.683769226074219,-31.2347412109375,20.263671875,-24.71923828125
18.3899999,0.40222588181495667,-4.486733913421631,8.674192428588867,-9.918212890625,19.8974609375,-1.3275146484375
18.409999900000003,0.3495534360408783,-4.201824188232422,8.875306129455566,18.096923828125,5.4168701171875,22.52197265625
18.429999900000002,0.33279404044151306,-4.165910720825195,9.148244857788086,20.2178955078125,-8.026123046875,21.97265625
18.4499999,0.3663128614425659,-4.3861775398254395,9.275136947631836,5.218505859375,-11.9781494140625,-2.5177001953125
18.4699999,0.4165911078453064,-4.687847137451172,9.193734169006348,1.2359619140625,0.1220703125,-14.251708984375
18.4899999,0.4596867263317108,-4.886565685272217,9.042900085449219,6.9732666015625,15.0604248046875,-1.2664794921875
18.5099999,0.45250412821769714,-4.812345504760742,9.026140213012695,-2.7923583984375,13.0615234375,2.4871826171875
18.5299999,0.40701428055763245,-4.637568473815918,9.155426979064941,-4.5013427734375,-6.4697265625,-2.2430419921875
18.5499999,0.3711012601852417,-4.5394062995910645,9.222464561462402,24.9176025390625,-21.3623046875,5.37109375
18.5699999,0.3495534360408783,-4.522646903991699,9.14345645904541,22.9949951171875,-9.46044921875,7.8125
18.589999900000002,0.33518823981285095,-4.520252704620361,8.949525833129883,-13.5040283203125,9.8114013671875,-4.7760009765625
18.609999900000002,0.33039984107017517,-4.5154643058776855,8.762778282165527,-17.1051025390625,7.01904296875,-7.50732421875
18.6299999,0.3495534360408783,-4.563348293304443,8.734047889709473,11.1083984375,-4.302978515625,8.4991455078125
18.6499999,0.35913026332855225,-4.529829502105713,8.803479194641113,20.69091796875,-4.241943359375,5.8135986328125
18.6699999,0.3734954595565796,-4.486733913421631,8.89445972442627,-2.01416015625,2.0294189453125,-6.622314453125
18.6899999,0.3998316824436188,-4.520252704620361,8.971074104309082,-7.8277587890625,-0.579833984375,2.227783203125
18.7099999,0.42377370595932007,-4.6040496826171875,9.004592895507812,12.664794921875,-8.5906982421875,8.9263916015625
18.7299999,0.4381389021873474,-4.726154327392578,8.99740982055664,16.9830322265625,-7.080078125,-3.23486328125
18.749999900000002,0.4429273009300232,-4.776432514190674,8.983044624328613,-5.950927734375,3.265380859375,-18.6309814453125
18.769999900000002,0.38067805767059326,-4.697423934936523,8.956708908081055,-9.46044921875,0.1373291015625,-13.1988525390625
18.7899999,0.15562310814857483,-4.357447147369385,8.552088737487793,29.0985107421875,-40.52734375,-1.2664794921875
18.8099999,-0.30885201692581177,-3.8331170082092285,7.074865818023682,110.53466796875,-109.771728515625,-2.2125244140625
18.8299999,-0.8643068075180054,-3.8522706031799316,4.034229755401611,187.0880126953125,-93.353271484375,35.736083984375
18.8499999,-1.335964560508728,-5.463568210601807,0.14604631066322327,129.8065185546875,106.1553955078125,102.5543212890625
18.8699999,-2.006340980529785,-8.724471092224121,-2.7078421115875244,-106.658935546875,369.1864013671875,32.04345703125
18.8899999,-3.0095114707946777,-12.978967666625977,-2.7916390895843506,-226.470947265625,492.523193359375,-182.8765869140625
18.909999900000003,-4.721365928649902,-17.66681480407715,1.0606313943862915,-235.16845703125,495.42236328125,-266.54052734375
18.929999900000002,-6.938396453857422,-21.059398651123047,7.343016624450684,-73.1201171875,377.4261474609375,-287.29248046875
18.9499999,-9.785101890563965,-21.57654571533203,14.326903343200684,-109.954833984375,267.974853515625,-500
18.9699999,-12.342109680175781,-19.235015869140625,20.46803092956543,-285.9039306640625,292.4957275390625,-500
18.9899999,-14.070723533630371,-13.900734901428223,25.38572120666504,-264.5111083984375,277.0538330078125,-469.757080078125
19.0099999,-14.630966186523438,-8.123526573181152,28.596345901489258,124.5880126953125,66.8182373046875,-133.0108642578125
19.0299999,-13.826515197753906,-4.400542736053467,30.061595916748047,437.5152587890625,-162.689208984375,60.577392578125
19.0499999,-12.217611312866211,-3.8355112075805664,29.372066497802734,308.4869384765625,-277.83203125,-41.3818359375
19.0699999,-10.884040832519531,-4.967968463897705,26.42959213256836,164.4134521484375,-348.3428955078125,-204.4219970703125
19.089999900000002,-10.247182846069336,-5.7125654220581055,22.045808792114258,170.9442138671875,-391.7388916015625,-221.9696044921875
19.109999900000002,-10.469843864440918,-4.618414878845215,16.838420867919922,337.921142578125,-415.4510498046875,-59.0972900390625
19.1299999,-11.073183059692383,-2.456450939178467,11.760318756103516,379.2724609375,-376.0223388671875,126.03759765625
19.1499999,-11.647790908813477,-0.5434837937355042,7.3693528175354,243.7591552734375,-341.1102294921875,175.3082275390625
19.1699999,-12.064382553100586,0.4118026793003082,3.509899616241455,263.48876953125,-431.8389892578125,134.6282958984375
19.1899999,-12.543222427368164,0.33518823981285095,-0.3423708379268646,499.9847412109375,-500,137.4053955078125
19.2099999,-12.641385078430176,-0.3974374830722809,-5.2911858558654785,499.9847412109375,-500,194.9005126953125
19.2299999,-12.349292755126953,-1.1300631761550903,-11.262324333190918,499.9847412109375,-126.739501953125,180.999755859375
19.249999900000002,-11.817779541015625,-1.522712230682373,-15.89271068572998,307.7239990234375,391.3726806640625,123.6419677734375
19.269999900000002,-10.790667533874512,-3.6296098232269287,-16.634912490844727,-133.2855224609375,499.9847412109375,393.341064453125
19.2899999,-9.17936897277832,-7.261613845825195,-12.933477401733398,-94.146728515625,469.512939453125,499.9847412109375
19.3099999,-7.1706342697143555,-12.897564888000488,-5.880159378051758,157.867431640625,296.7376708984375,270.7977294921875
19.3299999,-5.0014872550964355,-18.875886917114258,1.3742717504501343,183.380126953125,301.8035888671875,-55.8929443359375
19.3499999,-2.985569477081299,-23.618799209594727,6.715735912322998,128.47900390625,378.0364990234375,-144.53125
19.3699999,-2.516305923461914,-25.244462966918945,10.709263801574707,-65.8416748046875,499.9847412109375,-216.9036865234375
19.3899999,-3.861847400665283,-23.910892486572266,14.446613311767578,-303.9398193359375,499.9847412109375,-374.0386962890625
19.409999900000003,-6.291962146759033,-21.107282638549805,19.469648361206055,-382.965087890625,499.9847412109375,-367.2332763671875
19.429999900000002,-9.030928611755371,-17.3603572845459,25.10320472717285,-144.6533203125,301.94091796875,-259.307861328125
19.4499999,-11.250353813171387,-12.76109504699707,30.166940689086914,-34.60693359375,45.59326171875,-348.08349609375
19.4699999,-12.409147262573242,-7.42681360244751,33.00885772705078,-46.0357666015625,-64.605712890625,-443.634033203125
19.4899999,-12.67250919342041,-0.8906430602073669,32.88675308227539,46.7376708984375,-110.9619140625,-327.239990234375
19.5099999,-12.409147262573242,5.856217384338379,29.5947265625,217.6513671875,-202.1636962890625,-34.5306396484375
19.5299999,-11.453861236572266,10.17296314239502,23.977930068969727,376.739501953125,-255.523681640625,255.401611328125
19.5499999,-9.746794700622559,10.38604736328125,17.353174209594727,342.8497314453125,-186.0198974609375,355.40771484375
19.5699999,-7.3023152351379395,6.074089527130127,10.699687004089355,182.1441650390625,-147.88818359375,252.9144287109375
19.589999900000002,-4.333505153656006,-0.7445967197418213,5.188235282897949,135.345458984375,-119.7052001953125,99.456787109375
19.609999900000002,-1.644816517829895,-6.335057735443115,1.556231141090393,37.109375,-51.8646240234375,-72.3724365234375
19.6299999,0.23942017555236816,-8.65982723236084,0.07182604819536209,-87.5701904296875,30.3955078125,-120.1629638671875
19.6499999,1.0989385843276978,-7.694964408874512,0.7422025203704834,-93.1243896484375,58.563232421875,14.2669677734375
19.6699999,1.2090718746185303,-5.389348030090332,2.873042106628418,13.885498046875,15.045166015625,133.5906982421875
19.6899999,1.0749965906143188,-3.5936968326568604,5.367800235748291,84.136962890625,-28.3660888671875,83.9080810546875
19.7099999,0.8786720037460327,-2.8347349166870117,7.316680431365967,18.4173583984375,3.2501220703125,-32.958984375
19.7299999,0.7350199222564697,-2.7246015071868896,8.470685958862305,-48.9501953125,64.6820068359375,-31.402587890625
19.749999900000002,0.5722141861915588,-2.5785553455352783,9.251194953918457,-38.39111328125,68.1915283203125,38.604736328125
19.769999900000002,0.37828385829925537,-2.3295583724975586,10.122684478759766,-9.368896484375,27.557373046875,41.1376953125
19.7899999,0.26336219906806946,-2.3080103397369385,10.884040832519531,25.2227783203125,-3.2806396484375,5.4779052734375
19.8099999,0.2585737705230713,-2.7557260990142822,11.39161205291748,36.041259765625,10.589599609375,13.0767822265625
19.8299999,0.24660277366638184,-3.095702886581421,11.511322021484375,-9.9334716796875,22.613525390625,9.185791015625
19.8499999,0.1867477297782898,-3.1268274784088135,11.252747535705566,-22.3388671875,-1.861572265625,-19.3939208984375
19.8699999,0.11013327538967133,-2.9448680877685547,10.912771224975586,8.97216796875,-10.1470947265625,-5.9814453125
19.8899999,0.004788403399288654,-2.5067291259765625,10.575188636779785,8.5906982421875,6.34765625,17.8070068359375
19.909999900000003,-0.06224924325942993,-2.145204782485962,10.218452453613281,8.11767578125,8.3465576171875,21.1944580078125
19.929999900000002,-0.05506663769483566,-2.0661959648132324,9.931148529052734,19.775390625,-2.01416015625,10.2691650390625
19.9499999,-0.047884032130241394,-2.0590133666992188,9.732429504394531,10.284423828125,-0.8087158203125,-5.9967041015625
19.9699999,-0.0454898327589035,-2.145204782485962,9.636661529541016,3.23486328125,11.8560791015625,4.39453125
19.9899999,-0.06703764945268631,-2.207453966140747,9.588777542114258,13.336181640625,11.65771484375,19.012451171875
20.0099999,-0.12210428714752197,-2.2170307636260986,9.651026725769043,14.1448974609375,3.4637451171875,2.9449462890625
20.0299999,-0.181959331035614,-2.255337953567505,9.703699111938477,13.458251953125,2.0294189453125,-8.8043212890625
20.0499999,-0.22026655077934265,-2.2840683460235596,9.622296333312988,20.8740234375,5.767822265625,4.5928955078125
20.0699999,-0.2585737705230713,-2.2194249629974365,9.536105155944824,-3.8604736328125,13.48876953125,7.0343017578125
20.089999900000002,-0.29209262132644653,-2.03507137298584,9.44991397857666,-19.6533203125,11.932373046875,-4.7607421875
20.109999900000002,-0.2777273952960968,-2.011129379272461,9.524134635925293,-4.364013671875,6.2408447265625,4.638671875
20.1299999,-0.22744916379451752,-2.118868589401245,9.643844604492188,12.20703125,0.5950927734375,16.815185546875
20.1499999,-0.22026655077934265,-2.1380221843719482,9.66539192199707,3.143310546875,-4.1046142578125,-8.453369140625
