# Time (seconds),Accel_X,Accel_Y,Accel_Z,Gyro_X,Gyro_Y,Gyro_Z
0.0099999,-8.279149055480957,-3.627215623855591,5.7125654220581055,16.0369873046875,-35.2783203125,31.341552734375
0.029999900000000003,-8.81784439086914,-3.8115692138671875,5.214571475982666,18.8751220703125,-35.7818603515625,32.4859619140625
0.0499999,-9.045293807983398,-4.0964789390563965,4.699818134307861,18.463134765625,-29.96826171875,30.517578125
0.0699999,-8.949525833129883,-4.3861775398254395,4.216189384460449,16.571044921875,-24.4903564453125,24.322509765625
0.08999990000000001,-8.62391471862793,-4.599261283874512,3.8091750144958496,27.1759033203125,-32.745361328125,13.916015625
0.10999990000000001,-8.226476669311523,-4.738125324249268,3.5649664402008057,31.55517578125,-28.7933349609375,10.92529296875
0.1299999,-7.857769966125488,-4.774038314819336,3.471592426300049,26.6571044921875,-18.61572265625,6.011962890625
0.14999990000000002,-7.613561630249023,-4.702212333679199,3.450044631958008,27.2064208984375,-19.1802978515625,-4.3487548828125
0.1699999,-7.429207801818848,-4.577713489532471,3.5051112174987793,21.5301513671875,-7.0648193359375,-3.8299560546875
0.1899999,-7.311892032623291,-4.4077253341674805,3.550601005554199,12.7410888671875,13.8092041015625,4.2266845703125
0.20999990000000002,-7.259219646453857,-4.259284973144531,3.6176388263702393,11.932373046875,22.735595703125,7.9345703125
0.2299999,-7.287950038909912,-4.197035789489746,3.7900211811065674,17.5018310546875,16.6015625,3.2958984375
0.2499999,-7.359776020050049,-4.2090067863464355,4.079719543457031,25.299072265625,2.3345947265625,-6.8817138671875
0.2699999,-7.4316020011901855,-4.206612586975098,4.417302131652832,31.4178466796875,-11.41357421875,-13.641357421875
0.28999990000000003,-7.462726593017578,-4.144362926483154,4.716577529907227,34.6527099609375,-16.0369873046875,-7.75146484375
0.3099999,-7.46033239364624,-4.019864559173584,4.927267074584961,35.5682373046875,-14.129638671875,4.6844482421875
0.3299999,-7.479485988616943,-3.8953661918640137,5.032611846923828,40.618896484375,-17.3797607421875,8.7432861328125
0.34999990000000003,-7.5632829666137695,-3.84269380569458,5.066130638122559,47.4395751953125,-24.658203125,2.25830078125
0.3699999,-7.687781810760498,-3.8762125968933105,5.114014625549316,47.7294921875,-26.1993408203125,-8.0413818359375
0.3899999,-7.778761386871338,-3.931279182434082,5.171475887298584,43.731689453125,-22.8271484375,-19.683837890625
0.40999990000000003,-7.790732383728027,-3.88818359375,5.2049946784973145,43.701171875,-20.7061767578125,-30.70068359375
0.4299999,-7.754819393157959,-4.010287761688232,5.760449409484863,48.248291015625,-6.40869140625,-32.1807861328125
0.4499999,-7.687781810760498,-4.388571739196777,6.641515731811523,67.7490234375,-42.7703857421875,-58.8531494140625
0.4699999,-7.637503623962402,-5.202600479125977,7.644686222076416,63.0645751953125,-170.2880859375,-138.0767822265625
0.4899999,-7.671022415161133,-5.932831764221191,8.310274124145508,45.4559326171875,-244.171142578125,-252.4566650390625
0.5099999,-7.587224960327148,-6.057330131530762,7.841010570526123,13.8092041015625,-232.452392578125,-304.3975830078125
0.5299999,-7.326257228851318,-5.161899089813232,6.335057735443115,-0.091552734375,-111.480712890625,-230.8502197265625
0.5499999,-6.885724067687988,-3.5936968326568604,4.613626480102539,5.55419921875,71.1517333984375,-77.056884765625
0.5699999,-6.354211330413818,-2.22660756111145,3.5936968326568604,32.6690673828125,193.4967041015625,47.05810546875
0.5899998999999999,-5.7772088050842285,-1.8746598958969116,4.046200752258301,54.534912109375,182.4951171875,85.3424072265625
0.6099998999999999,-5.382165431976318,-2.693476915359497,5.571307182312012,45.2880859375,52.7191162109375,35.2935791015625
0.6299999,-5.0876784324646,-4.141968727111816,7.144298076629639,37.017822265625,-57.6934814453125,-40.95458984375
0.6499999,-4.922478675842285,-5.56173038482666,7.967903137207031,18.798828125,-47.271728515625,-78.06396484375
0.6699999,-4.929661273956299,-6.315904140472412,7.735665798187256,13.702392578125,29.4189453125,-84.381103515625
0.6899999,-5.039794445037842,-6.423643112182617,7.096413612365723,17.4407958984375,82.5958251953125,-66.0400390625
0.7099999,-5.20978307723999,-6.205770969390869,6.8162922859191895,31.8450927734375,74.8748779296875,-36.865234375
0.7299998999999999,-5.279214859008789,-5.9735331535339355,7.15387487411499,40.6341552734375,5.9814453125,-33.416748046875
0.7499998999999999,-5.157110691070557,-5.568912982940674,7.680599212646484,49.1790771484375,-74.981689453125,-60.2874755859375
0.7699999,-5.011064052581787,-4.78122091293335,7.876923561096191,50.7965087890625,-92.3309326171875,-45.501708984375
0.7899999,-4.467580318450928,-3.4620156288146973,7.182605266571045,49.5147705078125,46.5850830078125,176.422119140625
0.8099999,-4.369418144226074,-3.751713991165161,7.15387487411499,53.1463623046875,66.0400390625,113.616943359375
0.8299999,-4.568136692047119,-4.599261283874512,7.733271598815918,-5.5389404296875,27.4200439453125,3.997802734375
0.8499998999999999,-4.795586109161377,-5.559336185455322,8.372523307800293,-16.8609619140625,-34.210205078125,-22.1099853515625
0.8699998999999999,-4.953603267669678,-6.09324312210083,8.621520042419434,21.4385986328125,-29.60205078125,-2.685546875
0.8899999,-5.1116204261779785,-6.418854713439941,8.508993148803711,-34.9273681640625,46.417236328125,-29.96826171875
0.9099999,-4.960785865783691,-6.44279670715332,8.159439086914062,-5.31005859375,80.0628662109375,-97.0916748046875
0.9299999,-5.04218864440918,-6.095637321472168,8.085219383239746,39.4287109375,14.4195556640625,-143.98193359375
0.9499999,-4.900930881500244,-5.681440830230713,8.267178535461426,28.045654296875,-45.684814453125,-81.23779296875
0.9699998999999999,-4.764461517333984,-4.623203277587891,8.334216117858887,54.2144775390625,-48.3245849609375,-58.5784912109375
0.9899998999999999,-4.656722068786621,-3.708618402481079,8.221688270568848,38.1622314453125,-19.866943359375,-52.6580810546875
1.0099999,-4.345476150512695,-3.2345664501190186,7.862558364868164,43.9453125,4.08935546875,11.1541748046875
1.0299999,-4.189853191375732,-3.095702886581421,7.503427982330322,43.8995361328125,7.01904296875,13.2598876953125
1.0499999,-4.050989151000977,-3.4165258407592773,7.33583402633667,15.13671875,30.4718017578125,-22.27783203125
1.0699999,-3.9480385780334473,-3.892971992492676,7.503427982330322,1.7852783203125,51.81884765625,-26.641845703125
1.0899999,-3.909731388092041,-4.381389141082764,7.666234016418457,-6.04248046875,15.533447265625,-12.969970703125
1.1099999,-4.0294413566589355,-4.644751071929932,7.903259754180908,-7.293701171875,-11.2152099609375,-20.2789306640625
1.1299999,-4.129997730255127,-4.876988887786865,7.979874134063721,-25.421142578125,9.063720703125,-36.3006591796875
1.1499999,-4.398148536682129,-4.982333660125732,7.939172744750977,-36.80419921875,19.22607421875,-32.7911376953125
1.1699998999999999,-4.63517427444458,-4.797980308532715,7.943961143493652,-27.83203125,6.561279296875,-25.5584716796875
1.1899998999999999,-4.692635536193848,-4.845864295959473,7.790732383728027,5.6915283203125,-20.7366943359375,10.8184814453125
1.2099999,-4.572925090789795,-4.95120906829834,7.484274387359619,0.5035400390625,-21.392822265625,-2.5482177734375
1.2299999,-4.307168960571289,-5.17626428604126,7.053318023681641,14.068603515625,19.4549560546875,-64.1937255859375
1.2499999,-4.106055736541748,-5.339069843292236,6.72531270980835,15.68603515625,25.4974365234375,-66.1163330078125
1.2699999,-3.97916316986084,-5.082890033721924,6.658275127410889,20.538330078125,-6.0577392578125,-29.78515625
1.2899999,-3.8307228088378906,-4.668693542480469,6.6846113204956055,60.699462890625,-28.8238525390625,23.3917236328125
1.3099999,-3.818751811981201,-4.501099109649658,6.576871871948242,96.6796875,3.936767578125,50.9185791015625
1.3299999,-3.6391866207122803,-4.517858505249023,6.828263282775879,60.1959228515625,36.773681640625,5.126953125
1.3499999,-3.7900211811065674,-4.654327869415283,7.297526836395264,91.4764404296875,-16.815185546875,-28.8848876953125
1.3699999,-3.804386615753174,-4.616020679473877,7.970297336578369,128.3416748046875,-115.386962890625,17.7764892578125
1.3899999,-4.07014274597168,-4.532223701477051,8.611943244934082,125.1373291015625,-102.3406982421875,85.968017578125
1.4099999,-3.7469255924224854,-4.620809078216553,8.851364135742188,72.3876953125,-67.3828125,51.239013671875
1.4299998999999999,-3.5242648124694824,-4.7405195236206055,8.892065048217773,51.513671875,-55.6182861328125,-36.7584228515625
1.4499999,-3.205836057662964,-4.747702121734619,8.87291145324707,84.7015380859375,-63.1103515625,-61.0198974609375
1.4699999,-2.9735984802246094,-4.2329487800598145,9.095572471618652,84.869384765625,-73.272705078125,-49.37744140625
1.4899999,-2.8610711097717285,-3.335123062133789,9.208099365234375,66.3604736328125,-63.1561279296875,-22.4609375
1.5099999,-2.6384103298187256,-2.4875755310058594,9.08838939666748,87.46337890625,-42.54150390625,20.3704833984375
1.5299999,-2.2816741466522217,-2.185906171798706,8.96149730682373,73.4100341796875,-22.2930908203125,28.961181640625
1.5499999,-1.9512743949890137,-2.1332337856292725,8.846575736999512,30.8990478515625,-28.50341796875,-40.10009765625
1.5699999,-1.8938134908676147,-1.968033790588379,8.810662269592285,25.5584716796875,-43.27392578125,-92.1630859375
1.5899999,-1.9847931861877441,-1.6041151285171509,8.880094528198242,31.6619873046875,-61.95068359375,-24.3377685546875
1.6099999,-2.2625205516815186,-0.9217676520347595,9.083600997924805,7.232666015625,-82.21435546875,34.8358154296875
1.6299999,-2.2457611560821533,-0.22266076505184174,8.844181060791016,-3.021240234375,-126.2359619140625,5.096435546875
1.6499999,-2.1595699787139893,0.08379705995321274,8.429984092712402,25.69580078125,-49.6063232421875,-4.94384765625
1.6699999,-1.7956513166427612,0.14844051003456116,8.178592681884766,-26.641845703125,59.2498779296875,13.97705078125
1.6899998999999999,-1.4293384552001953,-0.038307227194309235,8.183381080627441,-33.8287353515625,41.9769287109375,3.3111572265625
1.7099999,-1.094150185585022,-0.40701428055763245,8.75080680847168,-16.9830322265625,-25.604248046875,-6.500244140625
1.7299999,-0.8690952062606812,-0.8475474119186401,9.457097053527832,-2.0294189453125,-66.1468505859375,-16.66259765625
1.7499999,-0.7924807667732239,-1.1516109704971313,9.823410034179688,-15.7623291015625,-65.9637451171875,-38.6810302734375
1.7699999,-0.8786720037460327,-1.2282254695892334,9.703699111938477,-25.5279541015625,-36.468505859375,-38.8336181640625
1.7899999,-1.0342950820922852,-1.0821791887283325,9.361329078674316,-18.06640625,-2.3040771484375,-14.862060546875
1.8099999,-1.1420341730117798,-0.790086567401886,9.069235801696777,-3.3416748046875,8.6212158203125,-0.8697509765625
1.8299999,-1.113303780555725,-0.5985504388809204,9.004592895507812,0.4730224609375,6.6986083984375,7.2021484375
1.8499999,-0.993593692779541,-0.608127236366272,9.081207275390625,-1.708984375,-7.781982421875,7.415771484375
1.8699999,-0.730231523513794,-0.8595184087753296,9.248801231384277,-2.532958984375,-16.4794921875,-3.5400390625
1.8899999,-0.4357447028160095,-1.292868971824646,9.457097053527832,-7.4310302734375,-5.340576171875,-18.1884765625
1.9099999,-0.15801730751991272,-1.8076223134994507,9.619902610778809,-20.1873779296875,-5.157470703125,-25.909423828125
1.9299998999999999,-0.0454898327589035,-2.207453966140747,9.732429504394531,-35.2935791015625,-18.157958984375,-39.093017578125
1.9499999,-0.14604631066322327,-2.2912509441375732,9.78989028930664,-36.5447998046875,-5.279541015625,-54.1534423828125
1.9699999,-0.4644751250743866,-2.099714994430542,9.916783332824707,-20.1416015625,43.487548828125,-50.262451171875
1.9899999,-0.8571242094039917,-1.6879122257232666,10.163386344909668,-1.190185546875,68.6798095703125,-40.5120849609375
2.0099999,-1.2018892765045166,-1.2713210582733154,10.541669845581055,19.5465087890625,54.2755126953125,-41.412353515625
2.0299999,-1.455674648284912,-0.9744400978088379,10.903194427490234,27.9541015625,33.8134765625,-45.4864501953125
2.0499999,-1.599326729774475,-0.8643068075180054,11.176133155822754,10.07080078125,30.82275390625,-38.7725830078125
2.0699999,-1.6663644313812256,-0.8762778043746948,11.262324333190918,-12.8173828125,17.578125,-30.517578125
2.0899999,-1.7190368175506592,-0.9409212470054626,11.080365180969238,-14.16015625,-10.7421875,-33.233642578125
2.1099999,-1.7836803197860718,-1.0055646896362305,10.620678901672363,-2.7008056640625,-20.599365234375,-36.1785888671875
2.1299999,-1.8171991109848022,-1.1061211824417114,10.0580415725708,10.0860595703125,24.1851806640625,-24.4903564453125
2.1499999,-1.8483237028121948,-1.2497732639312744,9.732429504394531,5.55419921875,78.4912109375,-24.2462158203125
2.1699999,-1.8315643072128296,-1.3000515699386597,9.761159896850586,7.62939453125,64.9871826171875,-48.9959716796875
2.1899999,-1.7980455160140991,-1.2737152576446533,10.101137161254883,17.608642578125,25.4058837890625,-57.5408935546875
2.2099999,-1.8052281141281128,-1.1061211824417114,10.378864288330078,35.5377197265625,24.71923828125,-43.3197021484375
2.2299999,-1.8722656965255737,-0.828393816947937,10.431536674499512,25.5889892578125,52.825927734375,-36.3922119140625
2.2499999,-1.9560627937316895,-0.5913678407669067,10.20887565612793,13.153076171875,59.2193603515625,-33.7982177734375
2.2699999,-2.0398597717285156,-0.507570743560791,9.916783332824707,16.876220703125,44.525146484375,-25.3448486328125
2.2899999,-2.164358377456665,-0.5099649429321289,9.744400978088379,14.34326171875,40.2069091796875,-20.0347900390625
2.3099999,-2.3558945655822754,-0.507570743560791,9.670180320739746,1.89208984375,36.163330078125,-20.477294921875
2.3299999,-2.612074136734009,-0.4596867263317108,9.653421401977539,-2.6092529296875,24.6734619140625,-14.46533203125
2.3499999,-2.9496564865112305,-0.3495534360408783,9.691728591918945,-7.5225830078125,23.3154296875,-2.593994140625
2.3699999,-3.2561142444610596,-0.3878606855869293,9.765948295593262,-14.129638671875,25.604248046875,15.625
2.3899999,-3.488351821899414,-0.7469909191131592,9.787496566772461,-11.4593505859375,20.1416015625,26.885986328125
2.4099999,-3.579331636428833,-1.357512354850769,9.75397777557373,-16.448974609375,20.1416015625,0.0457763671875
2.4299999,-3.6296098232269287,-2.0183119773864746,9.775525093078613,-46.844482421875,33.3404541015625,-33.172607421875
2.4499999,-3.73016619682312,-2.4420857429504395,9.837775230407715,-58.624267578125,35.1104736328125,-33.6151123046875
2.4699999,-3.8810009956359863,-2.513911724090576,10.036493301391602,-56.549072265625,10.6048583984375,-17.730712890625
2.4899999,-4.02465295791626,-2.5067291259765625,10.189722061157227,-34.2864990234375,-21.942138671875,0.1983642578125
2.5099999,-4.089296340942383,-2.5474305152893066,10.27591323852539,-17.6544189453125,-17.669677734375,6.1492919921875
2.5299999,-4.02465295791626,-2.691082715988159,10.381258964538574,-49.346923828125,1.190185546875,-14.984130859375
2.5499999,-3.866635799407959,-2.873042106628418,10.393229484558105,-59.2041015625,-18.951416015625,-21.4080810546875
2.5699999,-3.6822822093963623,-2.913743495941162,10.472238540649414,-33.69140625,-42.0074462890625,-3.0364990234375
2.5899999,-3.4524388313293457,-2.9041666984558105,10.508151054382324,-52.1240234375,-43.2891845703125,7.2479248046875
2.6099999,-3.1699230670928955,-2.985569477081299,10.402806282043457,-46.966552734375,-32.16552734375,12.2528076171875
2.6299999,-2.8802247047424316,-3.1914708614349365,10.319009780883789,-40.95458984375,-33.0352783203125,11.9476318359375
2.6499999,-2.6431987285614014,-3.5170822143554688,10.285490036010742,-49.8199462890625,-61.3250732421875,4.2266845703125
2.6699999,-2.449268341064453,-3.88818359375,10.137049674987793,-19.34814453125,-89.8895263671875,6.4544677734375
2.6899999,-2.279279947280884,-4.220977783203125,9.9000244140625,-7.293701171875,-74.066162109375,7.5225830078125
2.7099999,-2.140416383743286,-4.359841346740723,9.469067573547363,-36.407470703125,-45.257568359375,-15.7012939453125
2.7299999,-1.9536685943603516,-4.256890773773193,9.095572471618652,-63.4613037109375,-28.62548828125,-31.31103515625
2.7499999,-1.7764976024627686,-4.122815132141113,9.131484985351562,-78.5675048828125,-17.3797607421875,-1.0528564453125
2.7699999,-1.5179238319396973,-4.084507942199707,9.361329078674316,-62.957763671875,-52.3529052734375,33.5235595703125
2.7899999,-1.2258312702178955,-4.424484729766846,9.658209800720215,-35.5987548828125,-97.7630615234375,35.8123779296875
2.8099999,-0.9289502501487732,-4.989516258239746,9.691728591918945,-32.989501953125,-104.2938232421875,2.5634765625
2.8299999,-0.608127236366272,-5.57370138168335,9.346963882446289,-12.664794921875,-80.0628662109375,-11.9476318359375
2.8499999,-0.33279404044151306,-6.088454723358154,8.877699851989746,-3.7994384765625,-54.8858642578125,9.7198486328125
2.8699999,-0.14365209639072418,-6.315904140472412,8.367734909057617,9.27734375,-67.93212890625,-0.3509521484375
2.8899999,-0.014365210197865963,-6.234501361846924,7.910442352294922,14.7857666015625,-79.315185546875,-40.3594970703125
2.9099999,0.043095629662275314,-5.875370979309082,7.4770917892456055,21.514892578125,-44.5709228515625,-38.482666015625
2.9299999,0.10773907601833344,-5.331887245178223,7.15387487411499,25.57373046875,-1.7242431640625,-0.06103515625
2.9499999,0.24899697303771973,-4.793191909790039,6.983886241912842,49.49951171875,9.613037109375,9.033203125
2.9699999,0.5267243981361389,-4.496310710906982,7.1490864753723145,68.2525634765625,10.9405517578125,-3.0364990234375
2.9899999,0.8690952062606812,-4.458003520965576,7.623138427734375,69.915771484375,20.5841064453125,-4.5623779296875
3.0099999,1.1875240802764893,-4.541800498962402,8.188169479370117,78.6285400390625,8.087158203125,2.1209716796875
3.0299999,1.3910311460494995,-4.594472885131836,8.645462036132812,78.3843994140625,-18.341064453125,-12.20703125
3.0499999,1.400607943534851,-4.405331134796143,8.9064302444458,48.8739013671875,-16.387939453125,-41.56494140625
3.0699999,1.2425906658172607,-4.0078935623168945,8.971074104309082,25.0244140625,7.4005126953125,-37.53662109375
3.0899999,1.0295066833496094,-3.514688014984131,8.959102630615234,36.7279052734375,14.58740234375,-8.1634521484375
3.1099999,0.7924807667732239,-3.0621838569641113,8.939949035644531,65.6280517578125,7.8277587890625,-7.049560546875
3.1299999,0.6033388376235962,-2.695871114730835,8.892065048217773,55.938720703125,4.8370361328125,-33.935546875
3.1499999,0.42616790533065796,-2.387019157409668,8.80587387084961,22.52197265625,16.0675048828125,-42.572021484375
3.1699999,0.2944868206977844,-2.1811177730560303,8.856152534484863,-3.875732421875,28.1829833984375,-15.5792236328125
3.1899999,0.24420857429504395,-2.169146776199341,9.047688484191895,23.5137939453125,17.8375244140625,1.6937255859375
3.2099999,0.2346317619085312,-2.2816741466522217,9.220070838928223,66.71142578125,-8.23974609375,-27.7862548828125
3.2299999,0.23702596127986908,-2.2912509441375732,9.27034854888916,49.0570068359375,-8.636474609375,-64.605712890625
3.2499999,0.26096799969673157,-2.231395959854126,9.153033256530762,9.6282958984375,18.6614990234375,-38.63525390625
3.2699999,0.33039984107017517,-2.1475989818573,9.047688484191895,-14.678955078125,28.3203125,-11.077880859375
3.2899999,0.3734954595565796,-2.1140801906585693,8.992621421813965,1.556396484375,8.4381103515625,-36.9415283203125
3.3099999,0.3974374830722809,-2.161964178085327,9.009381294250488,8.9874267578125,-6.1187744140625,-62.7288818359375
3.3299999000000002,0.2513911724090576,-2.0685901641845703,8.992621421813965,-8.819580078125,6.2713623046875,-50.5523681640625
3.3499999,-0.004788403399288654,-1.8171991109848022,8.966285705566406,-14.678955078125,19.3328857421875,-21.3623046875
3.3699999,-0.2777273952960968,-1.5634137392044067,8.927978515625,2.9296875,13.5345458984375,-14.6331787109375
3.3899999,-0.4620809257030487,-1.4891934394836426,9.023746490478516,2.716064453125,16.7388916015625,-25.6195068359375
3.4099999,-0.4644751250743866,-1.7070658206939697,9.117119789123535,-12.908935546875,32.0892333984375,-24.9786376953125
3.4299999,-0.4572925269603729,-1.9991583824157715,9.306262016296387,-26.1993408203125,46.539306640625,-22.064208984375
3.4499999,-0.40940847992897034,-2.1978771686553955,9.569623947143555,-25.9552001953125,40.4205322265625,-36.4837646484375
3.4699999,-0.44771572947502136,-2.300827741622925,9.864110946655273,-6.1492919921875,21.2249755859375,-32.7606201171875
3.4899999,-0.5482721924781799,-2.2002713680267334,10.012551307678223,20.44677734375,21.484375,-24.139404296875
3.5099999,-0.706289529800415,-1.9919757843017578,10.02452278137207,8.636474609375,36.895751953125,-19.9432373046875
3.5299999,-0.8738836050033569,-1.9057846069335938,9.907206535339355,-20.050048828125,37.506103515625,-1.40380859375
3.5499999,-1.0079588890075684,-1.8531121015548706,9.797073364257812,-44.3572998046875,18.9971923828125,-10.07080078125
3.5699999,-1.1061211824417114,-1.8962076902389526,9.773131370544434,-18.6614990234375,10.7879638671875,-11.29150390625
3.5899999,-1.1492167711257935,-1.9321208000183105,9.883264541625977,10.1470947265625,9.796142578125,-5.06591796875
3.6099999,-1.137245774269104,-1.9345149993896484,9.883264541625977,9.6282958984375,-12.5732421875,1.89208984375
3.6299999,-1.0821791887283325,-1.9704279899597168,9.775525093078613,6.6375732421875,-13.3819580078125,8.48388671875
3.6499999,-1.0271124839782715,-2.0614075660705566,9.50498104095459,-7.659912109375,11.1083984375,0.9918212890625
3.6699999,-0.9169792532920837,-2.2912509441375732,9.114726066589355,-17.730712890625,35.5072021484375,-13.3514404296875
3.6899999,-0.9074024558067322,-2.5522189140319824,8.875306129455566,-16.4642333984375,50.78125,-28.106689453125
3.7099999,-0.9528923034667969,-2.7988216876983643,8.78432559967041,-6.2408447265625,47.5006103515625,-36.56005859375
3.7299999,-1.1659762859344482,-2.849100112915039,8.78193187713623,13.580322265625,40.1153564453125,-42.29736328125
3.7499999,-1.4628572463989258,-2.669534921646118,8.767566680908203,31.8756103515625,44.12841796875,-37.8875732421875
3.7699999,-1.8171991109848022,-2.3535003662109375,8.628703117370605,39.581298828125,55.4351806640625,-24.5208740234375
3.7899999,-2.1284453868865967,-1.8411411046981812,8.494627952575684,9.674072265625,65.093994140625,-28.9459228515625
3.8099999,-2.4588451385498047,-1.403002142906189,8.542511940002441,-29.7393798828125,67.2149658203125,-13.0767822265625
3.8299999000000002,-2.6839001178741455,-1.0534487962722778,8.698134422302246,-11.6119384765625,53.497314453125,11.1541748046875
3.8499999,-2.82515811920166,-0.9145850539207458,9.129091262817383,-15.3350830078125,37.90283203125,19.71435546875
3.8699999,-2.8347349166870117,-1.0414776802062988,9.579200744628906,3.7841796875,26.3519287109375,32.16552734375
3.8899999,-2.75812029838562,-1.3455413579940796,9.983820915222168,-3.6773681640625,-2.105712890625,37.7197265625
3.9099999,-2.6168625354766846,-1.699883222579956,10.163386344909668,-9.307861328125,-24.688720703125,38.3453369140625
3.9299999,-2.3750481605529785,-2.0374655723571777,10.187328338623047,-3.0670166015625,-14.0838623046875,46.112060546875
3.9499999,-2.255337953567505,-2.3080103397369385,10.32858657836914,-38.848876953125,-12.8173828125,49.86572265625
3.9699999,-2.1523873805999756,-2.403778553009033,10.577583312988281,-32.8216552734375,-59.6923828125,36.2548828125
3.9899999,-2.1547815799713135,-2.3726539611816406,10.910377502441406,33.8592529296875,-124.1912841796875,35.186767578125
4.0099999,-2.1523873805999756,-2.255337953567505,11.245565414428711,28.4423828125,-146.4385986328125,63.3392333984375
4.029999900000001,-2.0398597717285156,-2.1595699787139893,11.12346076965332,10.406494140625,-149.2919921875,73.638916015625
4.0499999,-1.6519991159439087,-2.1978771686553955,10.8720703125,-1.03759765625,-148.956298828125,65.948486328125
4.069999900000001,-1.1300631761550903,-2.4229321479797363,10.608707427978516,-60.211181640625,-162.3077392578125,60.4400634765625
4.0899999000000005,-0.5339069962501526,-2.655169725418091,10.14902114868164,14.5416259765625,-154.2816162109375,44.158935546875
4.1099999,0.08140286058187485,-2.8850131034851074,9.708487510681152,26.4739990234375,-115.4632568359375,30.9600830078125
4.1299999000000005,0.5937620401382446,-3.0837318897247314,9.100360870361328,-5.2490234375,-57.6171875,25.604248046875
4.1499999,1.0103530883789062,-3.1316158771514893,8.497021675109863,-3.72314453125,-10.955810546875,3.448486328125
4.1699999000000005,1.2473790645599365,-3.00711727142334,8.506598472595215,-28.045654296875,15.411376953125,-10.1165771484375
4.1899999,1.3072341680526733,-2.6599581241607666,8.860940933227539,-44.1436767578125,-19.7296142578125,2.74658203125
4.209999900000001,1.237802267074585,-2.185906171798706,9.459490776062012,-17.2119140625,-58.41064453125,26.5045166015625
4.2299999,1.1420341730117798,-1.8076223134994507,9.955090522766113,-31.646728515625,-43.39599609375,44.25048828125
4.249999900000001,1.1037269830703735,-1.7477672100067139,10.177751541137695,-44.12841796875,-10.7269287109375,48.8433837890625
4.2699999,1.1252747774124146,-1.9800047874450684,10.110713958740234,-18.646240234375,-1.953125,41.56494140625
4.289999900000001,1.1971008777618408,-2.477998733520508,9.911994934082031,25.7415771484375,11.749267578125,36.6058349609375
4.3099999,1.2545616626739502,-3.0190882682800293,9.627084732055664,34.4696044921875,52.5970458984375,35.58349609375
4.329999900000001,1.2617442607879639,-3.450044631958008,9.30386734008789,29.0374755859375,102.569580078125,19.378662109375
4.3499999,1.1540051698684692,-3.627215623855591,9.129091262817383,29.449462890625,136.6424560546875,2.99072265625
4.369999900000001,0.9241618514060974,-3.5745432376861572,9.296685218811035,20.3857421875,137.5732421875,9.429931640625
4.3899999,0.5817909836769104,-3.3854012489318848,9.706093788146973,21.1181640625,108.428955078125,31.1431884765625
4.409999900000001,0.22266076505184174,-3.224989652633667,10.192116737365723,14.5416259765625,70.86181640625,41.3970947265625
4.4299999,-0.1173158809542656,-3.2561142444610596,10.548852920532227,5.37109375,47.66845703125,38.299560546875
4.449999900000001,-0.3974374830722809,-3.3279404640197754,10.656591415405273,4.2877197265625,32.379150390625,23.7579345703125
4.4699999,-0.6153098344802856,-3.3255462646484375,10.606313705444336,-5.401611328125,8.270263671875,8.544921875
4.489999900000001,-0.751779317855835,-3.2824504375457764,10.493785858154297,-6.256103515625,-13.031005859375,25.1312255859375
4.5099999,-0.768538773059845,-3.248931646347046,10.378864288330078,24.8260498046875,-29.0985107421875,42.78564453125
4.529999900000001,-0.7398083209991455,-3.1723172664642334,10.160991668701172,92.041015625,-38.14697265625,40.069580078125
4.5499999,-0.6224924325942993,-3.136404275894165,9.86650562286377,91.00341796875,-43.2586669921875,46.1273193359375
4.569999900000001,-0.5123591423034668,-3.0526070594787598,9.490615844726562,22.03369140625,-19.8822021484375,55.145263671875
4.5899999000000005,-0.42377370595932007,-2.9017724990844727,9.11233139038086,-6.9580078125,5.523681640625,31.280517578125
4.609999900000001,-0.3232172429561615,-2.7557260990142822,8.892065048217773,-10.528564453125,15.1519775390625,-0.06103515625
4.6299999000000005,-0.27054479718208313,-2.6216509342193604,8.99740982055664,-60.05859375,13.4735107421875,-14.984130859375
4.6499999,-0.2968810200691223,-2.3942017555236816,9.313444137573242,-59.539794921875,12.603759765625,-20.8282470703125
4.6699999000000005,-0.43335050344467163,-2.183511972427368,9.794678688049316,-35.888671875,-4.69970703125,-12.115478515625
4.6899999,-0.5889736413955688,-2.2625205516815186,9.847352027893066,8.544921875,-21.881103515625,11.627197265625
4.709999900000001,-0.7110779285430908,-2.432508945465088,9.337387084960938,45.5780029296875,55.023193359375,-14.5111083984375
4.7299999,-0.8690952062606812,-2.911349296569824,9.100360870361328,-110.5499267578125,152.16064453125,-53.4210205078125
4.749999900000001,-0.9911994934082031,-3.3063924312591553,8.937555313110352,-169.00634765625,102.8900146484375,-46.2188720703125
4.7699999,-1.1851298809051514,-3.600879430770874,9.375694274902344,-55.2520751953125,5.9967041015625,-72.662353515625
4.789999900000001,-1.45806884765625,-3.646369218826294,10.010157585144043,-33.75244140625,-20.4315185546875,-82.489013671875
4.8099999,-1.6879122257232666,-3.5218706130981445,10.168174743652344,10.162353515625,11.138916015625,-69.976806640625
4.829999900000001,-1.8602946996688843,-3.287238836288452,9.849745750427246,56.4422607421875,36.2701416015625,-38.26904296875
4.8499999,-1.9297266006469727,-3.098097085952759,9.445125579833984,88.3941650390625,68.939208984375,-16.876220703125
4.869999900000001,-1.9369091987609863,-3.112462282180786,9.193734169006348,45.34912109375,57.8460693359375,-10.498046875
4.8899999,-1.9345149993896484,-3.1938650608062744,9.114726066589355,-28.1829833984375,-1.0528564453125,-30.45654296875
4.909999900000001,-1.9919757843017578,-3.220201253890991,9.133879661560059,14.2974853515625,-10.4217529296875,-49.0875244140625
4.9299999,-2.0901381969451904,-2.9759926795959473,9.188945770263672,34.0423583984375,8.0108642578125,-38.4979248046875
4.949999900000001,-2.2625205516815186,-2.492363929748535,9.124302864074707,54.6875,9.27734375,-15.838623046875
4.9699999,-2.3918075561523438,-1.900996208190918,9.220070838928223,81.878662109375,8.5906982421875,14.46533203125
4.989999900000001,-2.4372973442077637,-1.5418659448623657,9.617507934570312,98.907470703125,-1.4190673828125,66.4520263671875
5.0099999,-2.2840683460235596,-1.5610195398330688,10.204087257385254,86.73095703125,-66.7877197265625,93.4600830078125
5.029999900000001,-2.0374655723571777,-1.7357962131500244,10.649409294128418,97.320556640625,-131.591796875,54.901123046875
5.0499999,-1.7477672100067139,-1.8842366933822632,10.730812072753906,124.9847412109375,-130.6304931640625,22.2930908203125
5.069999900000001,-1.4963760375976562,-1.7764976024627686,10.144232749938965,133.4381103515625,-100.799560546875,32.6080322265625
5.0899999000000005,-1.4173674583435059,-1.2090718746185303,9.150638580322266,115.509033203125,-65.1702880859375,33.3404541015625
5.109999900000001,-1.3120225667953491,-0.5554547905921936,8.286332130432129,62.5152587890625,-27.2369384765625,36.4990234375
5.1299999000000005,-1.1037269830703735,-0.014365210197865963,7.9415669441223145,9.613037109375,-6.561279296875,40.008544921875
5.1499999,-0.8020575642585754,0.26096799969673157,8.142680168151855,12.847900390625,-17.791748046875,24.3072509765625
5.1699999000000005,-0.3902548849582672,0.2346317619085312,8.698134422302246,30.120849609375,-26.8707275390625,11.29150390625
5.1899999,-0.07900865375995636,0.08140286058187485,9.227252960205078,16.8609619140625,-15.899658203125,-1.5716552734375
5.209999900000001,0.08379705995321274,-0.07182604819536209,9.461885452270508,7.9803466796875,-6.103515625,-4.08935546875
5.2299999,0.1173158809542656,-0.10055647045373917,9.478644371032715,-1.03759765625,-2.7313232421875,-4.2724609375
5.249999900000001,0.05267243832349777,0.035913024097681046,9.373299598693848,8.575439453125,6.7901611328125,-13.3056640625
5.2699999,-0.011971008032560349,0.22744916379451752,9.344569206237793,24.8565673828125,21.881103515625,-9.7503662109375
5.289999900000001,-0.07422025501728058,0.4644751250743866,9.399636268615723,37.0330810546875,23.98681640625,0.1678466796875
5.3099999,-0.1173158809542656,0.6560112833976746,9.548076629638672,36.0107421875,9.765625,0.823974609375
5.329999900000001,-0.1364694982767105,0.7852981686592102,9.725247383117676,30.5938720703125,-1.5411376953125,-2.7008056640625
5.3499999,-0.19393034279346466,0.9792284965515137,9.794678688049316,53.89404296875,5.4779052734375,-1.28173828125
5.369999900000001,-0.2825157940387726,1.2497732639312744,9.780313491821289,84.04541015625,24.3377685546875,11.8408203125
5.3899999,-0.4118026793003082,1.522712230682373,9.732429504394531,73.2574462890625,33.966064453125,34.942626953125
5.409999900000001,-0.5051765441894531,1.7118542194366455,9.708487510681152,57.769775390625,27.6641845703125,43.060302734375
5.4299999,-0.5363011956214905,1.7525556087493896,9.765948295593262,56.2896728515625,13.61083984375,29.4952392578125
5.449999900000001,-0.569819986820221,1.7477672100067139,9.852140426635742,63.53759765625,8.2550048828125,11.4593505859375
5.4699999,-0.6392518281936646,1.8722656965255737,9.86650562286377,49.0264892578125,-5.2032470703125,1.15966796875
5.489999900000001,-0.6967126727104187,2.1164743900299072,9.890447616577148,26.79443359375,-5.2490234375,16.082763671875
5.5099999,-0.6512228846549988,2.387019157409668,9.770736694335938,58.04443359375,5.3253173828125,43.9605712890625
5.529999900000001,-0.5147533416748047,2.561795711517334,9.569623947143555,46.051025390625,-1.922607421875,25.726318359375
5.5499999,-0.28730419278144836,2.607285737991333,9.35654067993164,1.556396484375,0.9307861328125,-7.9345703125
5.569999900000001,-0.14365209639072418,2.6001031398773193,9.198522567749023,-26.5655517578125,6.500244140625,-17.63916015625
5.5899999000000005,-0.13407529890537262,2.626439332962036,9.17697525024414,-9.8724365234375,2.0904541015625,-11.474609375
5.609999900000001,-0.24899697303771973,2.7485435009002686,9.217676162719727,22.88818359375,-5.6915283203125,-5.2490234375
5.6299999000000005,-0.33518823981285095,2.8634653091430664,9.35654067993164,23.193359375,3.5400390625,4.852294921875
5.6499999,-0.44532153010368347,2.985569477081299,9.457097053527832,14.862060546875,9.2926025390625,9.2926025390625
5.6699999000000005,-0.5363011956214905,3.1316158771514893,9.445125579833984,22.308349609375,-8.026123046875,1.8463134765625
5.6899999,-0.5770025849342346,3.2824504375457764,9.378087997436523,29.5562744140625,-14.2974853515625,7.75146484375
5.709999900000001,-0.5961562395095825,3.397372245788574,9.366117477416992,6.4239501953125,8.544921875,22.5067138671875
5.7299999,-0.5530605912208557,3.4404678344726562,9.378087997436523,9.521484375,14.312744140625,28.717041015625
5.749999900000001,-0.4381389021873474,3.380612850189209,9.48343276977539,32.0281982421875,-4.5928955078125,24.4598388671875
5.7699999,-0.3495534360408783,3.308786630630493,9.545681953430176,21.97265625,-19.0887451171875,9.58251953125
5.789999900000001,-0.2944868206977844,3.2800562381744385,9.461885452270508,1.3885498046875,-15.472412109375,11.871337890625
5.8099999,-0.24660277366638184,3.294421434402466,9.337387084960938,-7.1563720703125,2.5177001953125,28.533935546875
5.829999900000001,-0.17477671802043915,3.272873640060425,9.2033109664917,-4.2266845703125,2.960205078125,24.35302734375
5.8499999,-0.038307227194309235,3.1459810733795166,9.069235801696777,-47.088623046875,-19.134521484375,6.5460205078125
5.869999900000001,0.09576806426048279,2.978386878967285,9.105149269104004,-128.0975341796875,-30.853271484375,-11.688232421875
5.8899999,0.17956513166427612,2.784456491470337,9.169792175292969,-100.1129150390625,-0.67138671875,-7.2479248046875
5.909999900000001,0.19632454216480255,2.6001031398773193,9.390059471130371,-71.6705322265625,-10.8489990234375,7.720947265625
5.9299999,0.14365209639072418,2.4588451385498047,9.751583099365234,-62.7288818359375,-30.2886962890625,10.4522705078125
5.949999900000001,0.090979665517807,2.3343467712402344,10.041281700134277,-34.5916748046875,-36.7279052734375,21.8658447265625
5.9699999,0.07422025501728058,2.2457611560821533,10.129867553710938,-29.2510986328125,-41.50390625,33.2183837890625
5.989999900000001,0.12210428714752197,2.0685901641845703,10.031704902648926,-44.9371337890625,-42.2210693359375,44.1741943359375
6.0099999,0.26096799969673157,1.8387469053268433,9.854534149169922,-70.6634521484375,-41.4276123046875,34.2559814453125
6.029999900000001,0.40222588181495667,1.5658079385757446,9.674968719482422,-39.703369140625,-29.6783447265625,17.6544189453125
6.0499999,0.5817909836769104,1.3239935636520386,9.603142738342285,-19.8516845703125,-30.059814453125,23.74267578125
6.069999900000001,0.7541735172271729,1.113303780555725,9.59835433959961,-31.9061279296875,-35.4156494140625,35.2630615234375
6.0899999000000005,0.9457096457481384,0.9289502501487732,9.59835433959961,-27.6336669921875,-32.2113037109375,31.3568115234375
6.109999900000001,1.1348515748977661,0.7374141216278076,9.617507934570312,-31.7535400390625,-27.89306640625,16.143798828125
6.1299999000000005,1.3000515699386597,0.5315127968788147,9.658209800720215,-41.748046875,-32.4554443359375,13.7176513671875
6.149999900000001,1.4101848602294922,0.363918662071228,9.684545516967773,-41.0919189453125,-39.215087890625,19.500732421875
6.1699999000000005,1.4867992401123047,0.26096799969673157,9.660603523254395,-35.003662109375,-38.14697265625,13.85498046875
6.1899999,1.556231141090393,0.1628057211637497,9.579200744628906,-33.1573486328125,-22.186279296875,5.2947998046875
6.209999900000001,1.6136919260025024,0.13168109953403473,9.490615844726562,-32.196044921875,-10.4827880859375,-0.5645751953125
6.2299999,1.6663644313812256,0.11971008777618408,9.497797966003418,-16.1285400390625,-8.4075927734375,2.3193359375
6.249999900000001,1.7190368175506592,0.1364694982767105,9.586383819580078,-2.2735595703125,-16.510009765625,8.758544921875
6.2699999,1.7717092037200928,0.14604631066322327,9.713275909423828,-1.7242431640625,-18.280029296875,6.744384765625
6.289999900000001,1.843535304069519,0.11013327538967133,9.821015357971191,-4.6844482421875,-10.284423828125,6.134033203125
6.3099999,1.9297266006469727,0.05985504388809204,9.837775230407715,0.5035400390625,-8.270263671875,6.16455078125
6.329999900000001,2.0159177780151367,-0.014365210197865963,9.847352027893066,6.7596435546875,-6.256103515625,0.1068115234375
6.3499999,2.0877439975738525,-0.06703764945268631,9.86650562286377,8.4075927734375,0.3204345703125,-9.2010498046875
6.369999900000001,2.1380221843719482,-0.11252748221158981,9.840168952941895,5.4168701171875,-2.716064453125,-9.490966796875
6.3899999,2.1356279850006104,-0.0933738648891449,9.775525093078613,5.126953125,-2.62451171875,-9.185791015625
6.409999900000001,2.094926595687866,-0.023942016065120697,9.66539192199707,7.87353515625,4.180908203125,-12.14599609375
6.4299999,2.0207061767578125,0.07422025501728058,9.5624418258667,9.0484619140625,10.7879638671875,-13.5955810546875
6.449999900000001,1.9536685943603516,0.18914192914962769,9.497797966003418,9.8724365234375,10.101318359375,-11.5814208984375
6.4699999,1.8962076902389526,0.2944868206977844,9.481039047241211,5.523681640625,4.974365234375,-9.27734375
6.489999900000001,1.8531121015548706,0.3734954595565796,9.452308654785156,-0.5950927734375,4.1656494140625,-8.2550048828125
6.5099999,1.821987509727478,0.4189853072166443,9.3828763961792,-12.8173828125,8.3160400390625,-8.30078125
6.529999900000001,1.7812861204147339,0.42856210470199585,9.318233489990234,-20.7366943359375,16.6778564453125,-7.659912109375
6.5499999,1.7405846118927002,0.38307225704193115,9.287108421325684,-9.3536376953125,24.749755859375,-7.8582763671875
6.569999900000001,1.699883222579956,0.24660277366638184,9.3828763961792,-3.3416748046875,30.609130859375,-9.857177734375
6.5899999000000005,1.656787633895874,0.08858546614646912,9.524134635925293,6.927490234375,30.8837890625,-18.2037353515625
6.609999900000001,1.601720929145813,-0.004788403399288654,9.682151794433594,17.852783203125,30.5023193359375,-27.6947021484375
6.6299999000000005,1.5131354331970215,0.05027823522686958,9.801861763000488,18.6920166015625,31.0516357421875,-26.1077880859375
6.649999900000001,1.3910311460494995,0.23942017555236816,9.849745750427246,9.3994140625,26.3824462890625,-13.641357421875
6.6699999000000005,1.2665326595306396,0.45010992884635925,9.816226959228516,2.8839111328125,20.56884765625,-1.922607421875
6.6899999,1.1228805780410767,0.6129156351089478,9.775525093078613,1.4190673828125,26.7486572265625,-4.608154296875
6.709999900000001,1.0007762908935547,0.6703764796257019,9.739612579345703,-3.4332275390625,30.6396484375,-8.1024169921875
6.7299999,0.912190854549408,0.6607996821403503,9.763554573059082,-0.54931640625,25.5889892578125,-1.15966796875
6.749999900000001,0.8427590131759644,0.6224924325942993,9.821015357971191,6.3323974609375,19.6990966796875,2.8076171875
6.7699999,0.8068459630012512,0.5793967843055725,9.892841339111328,5.4168701171875,15.5181884765625,0.30517578125
6.789999900000001,0.7852981686592102,0.545877993106842,9.950302124023438,-0.335693359375,12.542724609375,-0.1373291015625
6.8099999,0.768538773059845,0.5363011956214905,9.959878921508789,4.8675537109375,8.0413818359375,6.8359375
6.829999900000001,0.7422025203704834,0.5434837937355042,9.926360130310059,7.75146484375,3.5247802734375,12.20703125
6.8499999,0.727837324142456,0.5578489899635315,9.86650562286377,-1.6937255859375,2.471923828125,10.2691650390625
6.869999900000001,0.7206547260284424,0.49799394607543945,9.806650161743164,-6.866455078125,5.4473876953125,10.5438232421875
6.8899999,0.7326257228851318,0.3711012601852417,9.751583099365234,8.514404296875,6.16455078125,7.87353515625
6.909999900000001,0.730231523513794,0.2801215946674347,9.682151794433594,15.0146484375,2.8533935546875,-4.791259765625
6.9299999,0.727837324142456,0.20111294090747833,9.59835433959961,10.0250244140625,13.00048828125,-9.6588134765625
6.949999900000001,0.7038952708244324,0.23942017555236816,9.533711433410645,7.6904296875,28.411865234375,-8.148193359375
6.9699999,0.6607996821403503,0.33758243918418884,9.478644371032715,18.5546875,27.89306640625,-7.32421875
6.989999900000001,0.608127236366272,0.45250412821769714,9.509769439697266,-0.732421875,14.95361328125,-9.0179443359375
7.0099999,0.5386953949928284,0.47405192255973816,9.57201862335205,-6.2103271484375,24.3682861328125,-12.8173828125
7.029999900000001,0.45489832758903503,0.47644615173339844,9.710882186889648,-4.7607421875,30.9295654296875,-15.472412109375
7.0499999,0.33997663855552673,0.5171475410461426,9.864110946655273,-9.368896484375,8.0108642578125,-19.0277099609375
7.069999900000001,0.22266076505184174,0.6177040338516235,9.981427192687988,12.2528076171875,-3.173828125,-11.0015869140625
7.0899999000000005,0.12449848651885986,0.8068459630012512,10.055646896362305,24.1546630859375,-0.3204345703125,-0.457763671875
7.109999900000001,0.043095629662275314,1.0319008827209473,10.02452278137207,17.364501953125,-1.2969970703125,4.69970703125
7.1299999000000005,0.002394201699644327,1.1516109704971313,9.928754806518555,12.26806640625,-3.5247802734375,8.1939697265625
7.149999900000001,0.033518824726343155,1.1348515748977661,9.837775230407715,3.0364990234375,-3.509521484375,10.6353759765625
7.1699999000000005,0.08619125932455063,1.0223240852355957,9.768342971801758,3.570556640625,4.5013427734375,1.953125
7.1899999,0.17477671802043915,0.8619126081466675,9.734824180603027,-1.28173828125,4.21142578125,-3.204345703125
7.209999900000001,0.26575639843940735,0.727837324142456,9.737217903137207,-1.64794921875,0.701904296875,0.3204345703125
7.2299999,0.33758243918418884,0.6368576288223267,9.75637149810791,-6.04248046875,0.0152587890625,2.7618408203125
7.249999900000001,0.3734954595565796,0.5602431893348694,9.696516990661621,-9.033203125,9.5062255859375,-4.913330078125
7.2699999,0.3519476354122162,0.45489832758903503,9.660603523254395,-31.2652587890625,21.8048095703125,-14.190673828125
7.289999900000001,0.2968810200691223,0.42856210470199585,9.581595420837402,-47.66845703125,20.2789306640625,-28.5491943359375
7.3099999,0.20350714027881622,0.2849099934101105,9.497797966003418,-63.2781982421875,22.4761962890625,-37.567138671875
7.329999900000001,0.15083470940589905,-0.16519992053508759,9.390059471130371,-117.7978515625,18.4173583984375,-41.3970947265625
7.3499999,0.040701430290937424,-0.6153098344802856,9.404424667358398,-153.411865234375,45.9442138671875,-83.8775634765625
7.369999900000001,-0.1388636976480484,-0.8882488012313843,9.75397777557373,-172.3175048828125,60.8673095703125,-114.532470703125
7.3899999,-0.36152446269989014,-0.9097966551780701,10.244789123535156,-101.043701171875,27.313232421875,-55.96923828125
7.409999900000001,-0.5913678407669067,-0.8068459630012512,10.529699325561523,-12.8631591796875,-5.79833984375,-1.3427734375
7.4299999,-0.751779317855835,-0.7445967197418213,10.611102104187012,-41.50390625,15.3045654296875,-22.491455078125
7.449999900000001,-0.790086567401886,-1.0558429956436157,10.409989356994629,-72.5250244140625,42.5567626953125,-40.1763916015625
7.4699999,-0.7948749661445618,-1.4437036514282227,10.127472877502441,-38.6505126953125,26.9775390625,-26.85546875
7.489999900000001,-0.8331822156906128,-1.647210717201233,10.031704902648926,-6.5155029296875,13.00048828125,-15.716552734375
7.5099999,-0.8906430602073669,-1.7884687185287476,9.904812812805176,-10.3302001953125,24.383544921875,-8.2550048828125
7.529999900000001,-0.950498104095459,-1.889025092124939,9.718064308166504,-24.993896484375,37.3382568359375,-4.9591064453125
7.5499999,-0.9816226959228516,-2.0183119773864746,9.682151794433594,-32.501220703125,37.109375,-9.33837890625
7.569999900000001,-1.0199298858642578,-2.1499931812286377,9.720458984375,-20.6451416015625,12.02392578125,-3.448486328125
7.5899999000000005,-1.0271124839782715,-2.2888567447662354,9.885659217834473,-10.3759765625,-2.532958984375,0.640869140625
7.609999900000001,-1.0414776802062988,-2.4612393379211426,9.909601211547852,-12.115478515625,3.326416015625,-0.701904296875
7.6299999000000005,-1.0773907899856567,-2.6144683361053467,9.787496566772461,-10.2691650390625,17.6239013671875,-13.36669921875
7.649999900000001,-1.1085153818130493,-2.7222073078155518,9.706093788146973,-14.0380859375,27.1453857421875,-21.8963623046875
7.6699999000000005,-1.1324573755264282,-2.9065608978271484,9.564835548400879,-9.6588134765625,11.6119384765625,-13.0462646484375
7.6899999,-1.1180921792984009,-3.1531636714935303,9.57441234588623,-10.55908203125,8.5906982421875,-16.8609619140625
7.709999900000001,-1.091755986213684,-3.442862033843994,9.66539192199707,-35.614013671875,11.1083984375,-52.2308349609375
7.7299999,-1.1037269830703735,-3.5386300086975098,9.643844604492188,-41.3360595703125,-9.3994140625,-79.742431640625
7.749999900000001,-1.213860273361206,-3.2585084438323975,9.651026725769043,-25.8636474609375,-5.0811767578125,-52.9327392578125
7.7699999,-1.3718775510787964,-2.691082715988159,9.543288230895996,-10.0555419921875,12.0849609375,-11.4593505859375
7.789999900000001,-1.4963760375976562,-2.1811177730560303,9.421183586120605,-17.51708984375,11.016845703125,14.404296875
7.8099999,-1.4724340438842773,-2.0398597717285156,9.318233489990234,-13.0462646484375,3.6163330078125,12.3748779296875
7.829999900000001,-1.280897855758667,-2.4875755310058594,9.313444137573242,23.2391357421875,2.9754638671875,8.8348388671875
7.8499999,-1.0989385843276978,-2.9951462745666504,9.3828763961792,28.3355712890625,1.1138916015625,-12.725830078125
7.869999900000001,-0.9600749015808105,-3.4404678344726562,9.442731857299805,16.4947509765625,-5.1422119140625,-23.6053466796875
7.8899999,-1.0103530883789062,-3.4763808250427246,9.421183586120605,16.4642333984375,-6.2103271484375,-8.48388671875
7.909999900000001,-1.139639973640442,-3.1962592601776123,9.406818389892578,2.105712890625,5.67626953125,6.9580078125
7.9299999,-1.316810965538025,-2.7676970958709717,9.38048267364502,-9.4451904296875,8.7432861328125,18.707275390625
7.949999900000001,-1.436521053314209,-2.4181437492370605,9.406818389892578,5.43212890625,1.556396484375,31.06689453125
7.9699999,-1.4772224426269531,-2.2433669567108154,9.552865028381348,25.909423828125,-5.523681640625,45.501708984375
7.989999900000001,-1.4101848602294922,-2.31758713722229,9.651026725769043,19.500732421875,-18.1427001953125,49.102783203125
8.0099999,-1.3335703611373901,-2.542642116546631,9.57441234588623,9.063720703125,-23.49853515625,39.764404296875
8.0299999,-1.2689268589019775,-2.691082715988159,9.442731857299805,14.8468017578125,8.5296630859375,20.355224609375
8.049999900000001,-1.2018892765045166,-2.808398485183716,9.260771751403809,14.9383544921875,25.5126953125,36.376953125
8.069999900000001,-1.3215993642807007,-2.691082715988159,9.186552047729492,2.410888671875,23.8037109375,36.3616943359375
8.0899999,-1.3742717504501343,-2.5498247146606445,9.220070838928223,-8.941650390625,18.8446044921875,25.9857177734375
8.1099999,-1.4484920501708984,-2.612074136734009,9.402029991149902,-4.425048828125,31.25,31.9671630859375
8.129999900000001,-1.5394717454910278,-2.6360161304473877,9.53849983215332,-2.349853515625,15.960693359375,23.8037109375
8.149999900000001,-1.5897499322891235,-2.6862943172454834,9.655815124511719,-15.960693359375,-2.3345947265625,22.15576171875
8.1699999,-1.702277421951294,-2.631227731704712,9.622296333312988,4.5166015625,12.237548828125,39.24560546875
8.1899999,-1.8315643072128296,-2.492363929748535,9.478644371032715,15.7623291015625,30.8837890625,51.8341064453125
8.2099999,-1.968033790588379,-2.3965959548950195,9.366117477416992,-11.0626220703125,29.1748046875,45.196533203125
8.229999900000001,-2.051830768585205,-2.4636335372924805,9.363722801208496,-9.9639892578125,17.88330078125,38.0706787109375
8.2499999,-2.097320795059204,-2.6815059185028076,9.50498104095459,9.918212890625,-4.9896240234375,39.2913818359375
8.2699999,-2.073378562927246,-2.9735984802246094,9.622296333312988,10.2691650390625,-30.7769775390625,20.233154296875
8.2899999,-2.0422539710998535,-3.1435868740081787,9.641449928283691,16.632080078125,-28.656005859375,-10.223388671875
8.309999900000001,-1.9919757843017578,-3.1220390796661377,9.5408935546875,25.87890625,-22.0794677734375,-14.95361328125
8.3299999,-2.0207061767578125,-2.7485435009002686,9.402029991149902,38.1317138671875,-23.5443115234375,-6.5155029296875
8.3499999,-2.078166961669922,-2.298433542251587,9.239224433898926,64.3157958984375,-16.9525146484375,10.80322265625
8.3699999,-2.1140801906585693,-1.965639591217041,9.265560150146484,56.3507080078125,3.1280517578125,26.1077880859375
8.389999900000001,-2.123656988143921,-1.86508309841156,9.361329078674316,59.906005859375,14.2669677734375,9.9639892578125
8.4099999,-2.0829553604125977,-1.9105730056762695,9.466673851013184,78.338623046875,1.4190673828125,-11.627197265625
8.4299999,-2.1116859912872314,-1.766920804977417,9.533711433410645,87.7532958984375,11.077880859375,-19.47021484375
8.4499999,-2.2002713680267334,-1.3455413579940796,9.586383819580078,69.7784423828125,41.8548583984375,9.33837890625
8.469999900000001,-2.365471363067627,-0.6871358752250671,9.593565940856934,49.6063232421875,40.130615234375,46.2188720703125
8.4899999,-2.5091233253479004,-0.090979665517807,9.679757118225098,72.6318359375,26.1688232421875,66.070556640625
8.5099999,-2.585737943649292,0.2346317619085312,9.818621635437012,77.5146484375,24.3682861328125,75.714111328125
8.5299999,-2.5761611461639404,0.2849099934101105,9.856928825378418,62.225341796875,23.3612060546875,59.38720703125
8.549999900000001,-2.5546131134033203,0.1843535304069519,9.828198432922363,52.3681640625,27.496337890625,45.59326171875
8.569999900000001,-2.580949544906616,0.10773907601833344,9.706093788146973,45.8526611328125,35.3240966796875,36.376953125
8.5899999,-2.7269957065582275,0.0454898327589035,9.66539192199707,-8.8958740234375,16.265869140625,13.7939453125
8.6099999,-2.87064790725708,0.11252748221158981,9.526528358459473,27.3895263671875,27.9541015625,-1.4495849609375
8.629999900000001,-2.9065608978271484,0.26815059781074524,9.30386734008789,55.0384521484375,42.1142578125,-5.4931640625
8.649999900000001,-2.937685489654541,0.45250412821769714,9.320627212524414,-27.1759033203125,33.3404541015625,3.84521484375
8.6699999,-2.9328970909118652,0.8690952062606812,9.346963882446289,-19.287109375,23.5137939453125,-7.5836181640625
8.6899999,-3.0597896575927734,1.2473790645599365,9.524134635925293,57.525634765625,15.3350830078125,5.5694580078125
8.709999900000001,-3.251325845718384,1.5514427423477173,9.763554573059082,71.044921875,29.0374755859375,38.75732421875
8.729999900000001,-3.383007049560547,1.6879122257232666,9.799467086791992,40.5426025390625,37.0941162109375,38.0706787109375
8.7499999,-3.4548330307006836,1.6903064250946045,9.655815124511719,25.2227783203125,9.429931640625,-6.5155029296875
8.7699999,-3.4189200401306152,1.6304513216018677,9.428366661071777,-3.35693359375,-16.387939453125,-10.2081298828125
8.7899999,-3.4548330307006836,1.5969325304031372,9.184157371520996,2.838134765625,-7.9498291015625,4.3792724609375
8.809999900000001,-3.4165258407592773,1.580173134803772,9.006986618041992,-0.1678466796875,-7.476806640625,12.664794921875
8.8299999,-3.3662476539611816,1.53707754611969,8.939949035644531,-9.429931640625,-20.172119140625,5.1116943359375
8.8499999,-3.1938650608062744,1.4317326545715332,8.990227699279785,-14.8773193359375,-29.11376953125,-0.701904296875
8.8699999,-2.9688100814819336,1.2761094570159912,8.966285705566406,-22.4609375,-37.4755859375,-0.7781982421875
8.889999900000001,-2.8179752826690674,1.2737152576446533,8.846575736999512,-44.586181640625,-51.1474609375,-18.9056396484375
8.9099999,-2.734178304672241,1.3263877630233765,8.686163902282715,-16.8914794921875,-15.9912109375,-12.26806640625
8.9299999,-2.7222073078155518,1.338358759880066,8.767566680908203,-26.79443359375,15.56396484375,23.4832763671875
8.9499999,-2.738966703414917,1.3024457693099976,9.07641887664795,-26.8402099609375,-7.5836181640625,23.8037109375
8.969999900000001,-2.6623523235321045,1.0678139925003052,9.66299819946289,-14.4195556640625,-38.2537841796875,10.711669921875
8.9899999,-2.5115175247192383,0.7948749661445618,10.137049674987793,-5.7830810546875,-58.7921142578125,3.2196044921875
9.0099999,-2.31758713722229,0.6200982332229614,10.292673110961914,-4.2877197265625,-66.192626953125,3.2958984375
9.0299999,-2.121262788772583,0.6200982332229614,10.04846477508545,-6.04248046875,-54.5654296875,7.5225830078125
9.049999900000001,-1.9321208000183105,0.7829039692878723,9.605537414550781,-3.3721923828125,-31.5704345703125,7.7972412109375
9.069999900000001,-1.7741034030914307,1.01753568649292,9.263166427612305,-8.880615234375,-15.655517578125,11.2152099609375
9.0899999,-1.6376339197158813,1.1492167711257935,9.181763648986816,-2.105712890625,-20.294189453125,26.6265869140625
9.1099999,-1.414973258972168,1.115697979927063,9.375694274902344,12.176513671875,-44.00634765625,46.6461181640625
9.129999900000001,-1.1875240802764893,0.9002198576927185,9.619902610778809,-10.9100341796875,-70.2667236328125,35.1715087890625
9.149999900000001,-0.9145850539207458,0.5913678407669067,9.780313491821289,-10.711669921875,-43.0450439453125,10.43701171875
9.1699999,-0.6655880808830261,0.33518823981285095,9.797073364257812,-13.8702392578125,-17.02880859375,4.9591064453125
9.1899999,-0.5626373887062073,0.31842881441116333,9.768342971801758,0.9613037109375,0.5035400390625,-0.4730224609375
9.209999900000001,-0.5386953949928284,0.4357447028160095,9.78989028930664,9.94873046875,3.2958984375,9.5062255859375
9.229999900000001,-0.545877993106842,0.5482721924781799,9.880870819091797,-1.7242431640625,-10.5438232421875,25.146484375
9.2499999,-0.5602431893348694,0.6320692300796509,10.029311180114746,-5.67626953125,-14.434814453125,17.0745849609375
9.2699999,-0.5219359993934631,0.6631938815116882,10.163386344909668,-4.8675537109375,-21.1181640625,5.3558349609375
9.2899999,-0.4189853072166443,0.7206547260284424,10.266336441040039,-7.6751708984375,-32.470703125,11.5966796875
9.309999900000001,-0.31603461503982544,0.7996633648872375,10.323798179626465,-3.0975341796875,-31.31103515625,28.4881591796875
9.3299999,-0.21308395266532898,0.8667010068893433,10.316615104675293,-12.0697021484375,-33.1878662109375,30.5328369140625
9.3499999,-0.1412578970193863,0.7876923680305481,10.268731117248535,-34.1033935546875,-37.7197265625,26.9622802734375
9.3699999,-0.16998831927776337,0.6847416758537292,10.249577522277832,-48.5382080078125,-45.196533203125,20.599365234375
9.389999900000001,-0.2537853717803955,0.5578489899635315,10.134655952453613,-32.0281982421875,-55.999755859375,26.1383056640625
9.4099999,-0.304063618183136,0.4668693244457245,10.098742485046387,-15.6097412109375,-64.0716552734375,31.6619873046875
9.4299999,-0.2968810200691223,0.49799394607543945,9.797073364257812,-1.6632080078125,-64.910888671875,24.3682861328125
9.4499999,-0.08619125932455063,0.4189853072166443,9.660603523254395,-11.016845703125,-39.00146484375,27.435302734375
9.469999900000001,0.19153612852096558,0.3663128614425659,9.497797966003418,-11.04736328125,-18.6614990234375,23.4375
9.4899999,0.5051765441894531,0.24660277366638184,9.406818389892578,-10.1470947265625,-22.2930908203125,14.5416259765625
9.5099999,0.730231523513794,0.12928688526153564,9.41639518737793,-24.4598388671875,-12.5885009765625,5.7220458984375
9.5299999,0.811634361743927,0.05746084079146385,9.459490776062012,-22.125244140625,3.3416748046875,-3.143310546875
9.549999900000001,0.7613561153411865,0.1173158809542656,9.473855972290039,-1.4801025390625,0.06103515625,-7.1563720703125
9.569999900000001,0.6488286852836609,0.22266076505184174,9.545681953430176,8.9569091796875,-5.706787109375,-3.3721923828125
9.5899999,0.5482721924781799,0.33518823981285095,9.641449928283691,10.5743408203125,-2.9296875,-0.30517578125
9.6099999,0.45010992884635925,0.4141969084739685,9.68933391571045,8.9569091796875,-4.302978515625,-3.2196044921875
9.629999900000001,0.40462008118629456,0.4189853072166443,9.75637149810791,2.227783203125,-1.6021728515625,-2.5482177734375
9.649999900000001,0.35434186458587646,0.40462008118629456,9.856928825378418,0.9918212890625,2.593994140625,-2.899169921875
9.6699999,0.304063618183136,0.3902548849582672,9.890447616577148,8.72802734375,-2.01416015625,-2.74658203125
9.6899999,0.272938996553421,0.3687070608139038,9.952696800231934,2.7313232421875,-1.312255859375,-1.28173828125
9.709999900000001,0.2537853717803955,0.35673606395721436,9.921571731567383,-6.0577392578125,3.753662109375,-1.15966796875
9.729999900000001,0.26336219906806946,0.30885201692581177,9.873687744140625,-12.420654296875,5.889892578125,0.152587890625
9.7499999,0.28730419278144836,0.22266076505184174,9.797073364257812,-18.37158203125,6.103515625,2.99072265625
9.7699999,0.30885201692581177,0.10295066982507706,9.643844604492188,-12.5579833984375,8.7432861328125,-0.762939453125
9.7899999,0.33518823981285095,-0.1149216815829277,9.567230224609375,-10.2691650390625,29.1748046875,-5.37109375
9.809999900000001,0.33279404044151306,-0.3280056416988373,9.627084732055664,-4.3182373046875,43.6248779296875,-13.0157470703125
9.8299999,0.2777273952960968,-0.4357447028160095,9.770736694335938,17.5933837890625,27.069091796875,-23.1170654296875
9.8499999,0.19153612852096558,-0.4644751250743866,9.919178009033203,32.9742431640625,12.5274658203125,-22.0947265625
9.8699999,0.08619125932455063,-0.35434186458587646,10.04846477508545,22.7203369140625,34.942626953125,-18.0206298828125
9.889999900000001,-0.047884032130241394,-0.09576806426048279,10.067618370056152,-8.4686279296875,33.1268310546875,-19.34814453125
9.9099999,-0.17477671802043915,0.19393034279346466,9.971850395202637,-6.8817138671875,10.711669921875,-14.9383544921875
9.9299999,-0.31603461503982544,0.4884171485900879,9.840168952941895,5.9661865234375,15.533447265625,-3.692626953125
9.9499999,-0.45010992884635925,0.689530074596405,9.80904483795166,-15.228271484375,39.0472412109375,3.2196044921875
9.969999900000001,-0.5339069962501526,0.7350199222564697,9.72285270690918,-19.805908203125,23.4222412109375,4.8980712890625
9.9899999,-0.608127236366272,0.6488286852836609,9.732429504394531,-14.8773193359375,-2.960205078125,0.152587890625
10.0099999,-0.6177040338516235,0.38546648621559143,9.785101890563965,-21.0723876953125,2.9296875,12.2833251953125
10.0299999,-0.6105214357376099,0.11252748221158981,9.727641105651855,-17.88330078125,16.4337158203125,14.0380859375
10.049999900000001,-0.5578489899635315,-0.2849099934101105,9.825803756713867,-13.1683349609375,25.2838134765625,9.521484375
10.069999900000001,-0.5099649429321289,-0.5841852426528931,9.828198432922363,5.706787109375,5.79833984375,-5.035400390625
10.0899999,-0.4596867263317108,-0.8188169598579407,9.93354320526123,6.4697265625,-5.4779052734375,-8.1329345703125
10.1099999,-0.45489832758903503,-0.8427590131759644,9.959878921508789,-7.6446533203125,1.6632080078125,-9.9945068359375
10.129999900000001,-0.4884171485900879,-0.7086837291717529,9.923966407775879,-9.735107421875,-3.0059814453125,-16.021728515625
10.149999900000001,-0.5267243981361389,-0.5171475410461426,9.861717224121094,-13.0157470703125,-15.0299072265625,-15.869140625
10.1699999,-0.5722141861915588,-0.2944868206977844,9.765948295593262,-17.2882080078125,-12.4053955078125,-15.289306640625
10.1899999,-0.608127236366272,-0.13168109953403473,9.677363395690918,-8.6517333984375,3.60107421875,-15.2435302734375
10.209999900000001,-0.629675030708313,-0.014365210197865963,9.59596061706543,-6.8206787109375,10.284423828125,-12.725830078125
10.229999900000001,-0.6153098344802856,0.038307227194309235,9.576807022094727,-4.94384765625,6.8817138671875,-12.0391845703125
10.2499999,-0.5482721924781799,-0.05506663769483566,9.768342971801758,-5.2337646484375,9.9945068359375,-7.9498291015625
10.2699999,-0.4812345504760742,-0.1843535304069519,9.943120002746582,2.8228759765625,1.7852783203125,-14.251708984375
10.2899999,-0.4213795065879822,-0.3447650372982025,10.098742485046387,0.54931640625,-8.5906982421875,-22.0184326171875
10.309999900000001,-0.3734954595565796,-0.47405192255973816,10.213664054870605,-8.3465576171875,1.2969970703125,-21.0723876953125
10.3299999,-0.35913026332855225,-0.4836287498474121,10.158597946166992,-10.2386474609375,2.2430419921875,-23.162841796875
10.3499999,-0.36152446269989014,-0.363918662071228,10.08437728881836,-14.9078369140625,-2.01416015625,-28.7322998046875
10.3699999,-0.37828385829925537,-0.20350714027881622,10.019734382629395,-19.5159912109375,3.5552978515625,-22.7203369140625
10.389999900000001,-0.3974374830722809,-0.06464344263076782,9.962273597717285,-16.693115234375,10.43701171875,-11.3372802734375
10.4099999,-0.4189853072166443,0.014365210197865963,10.007762908935547,-17.4713134765625,15.3350830078125,-9.6435546875
10.4299999,-0.4596867263317108,0.028730420395731926,10.070012092590332,-14.2669677734375,9.3231201171875,-15.533447265625
10.4499999,-0.5123591423034668,-0.0071826050989329815,10.096348762512207,-5.0506591796875,2.2430419921875,-10.2081298828125
10.469999900000001,-0.5913678407669067,-0.06703764945268631,10.079588890075684,-7.9498291015625,5.6304931640625,-0.9307861328125
10.4899999,-0.6775590777397156,-0.20111294090747833,9.986215591430664,-21.05712890625,11.5966796875,0.3509521484375
10.5099999,-0.7182605266571045,-0.4812345504760742,9.849745750427246,-29.083251953125,8.11767578125,-5.615234375
10.5299999,-0.7398083209991455,-0.7469909191131592,9.679757118225098,-25.32958984375,7.293701171875,-18.06640625
10.549999900000001,-0.7637503147125244,-0.871489405632019,9.550470352172852,-17.486572265625,20.263671875,-22.613525390625
10.569999900000001,-0.7972691655158997,-0.8571242094039917,9.490615844726562,-12.6495361328125,27.7862548828125,-7.99560546875
10.5899999,-0.811634361743927,-0.8619126081466675,9.615114212036133,-10.4522705078125,22.4151611328125,10.1165771484375
10.6099999,-0.8355764150619507,-0.8643068075180054,9.86889934539795,-7.6446533203125,5.4779052734375,0.54931640625
10.629999900000001,-0.8451532125473022,-0.993593692779541,10.11789608001709,-4.547119140625,-10.1165771484375,-7.99560546875
10.649999900000001,-0.8619126081466675,-1.1180921792984009,10.223240852355957,3.47900390625,-6.5765380859375,0.457763671875
10.6699999,-0.9097966551780701,-1.0678139925003052,10.194510459899902,5.5999755859375,5.92041015625,-2.960205078125
10.6899999,-0.9624691009521484,-0.9002198576927185,10.046070098876953,10.5133056640625,8.8348388671875,-7.080078125
10.709999900000001,-0.9792284965515137,-0.7852981686592102,9.90241813659668,18.341064453125,8.4381103515625,7.32421875
10.729999900000001,-0.9888052940368652,-0.667982280254364,9.818621635437012,7.8277587890625,13.1683349609375,9.6588134765625
10.7499999,-0.9864110946655273,-0.6655880808830261,9.81143856048584,-5.9051513671875,15.56396484375,-1.8157958984375
10.7699999,-0.9744400978088379,-0.7637503147125244,9.8784761428833,-13.458251953125,12.4969482421875,-1.7852783203125
10.7899999,-0.9816226959228516,-0.8475474119186401,9.988609313964844,-7.4615478515625,8.1787109375,-2.716064453125
10.809999900000001,-0.9911994934082031,-0.8930372595787048,10.08198356628418,-0.2593994140625,1.678466796875,-4.6539306640625
10.8299999,-1.0223240852355957,-0.933738648891449,10.067618370056152,-4.7607421875,-5.3863525390625,-1.953125
10.8499999,-1.048660397529602,-0.993593692779541,9.99100399017334,-6.9427490234375,-1.8463134765625,0.7476806640625
10.8699999,-1.091755986213684,-1.01753568649292,9.840168952941895,-3.23486328125,4.0740966796875,-5.615234375
10.889999900000001,-1.1324573755264282,-1.015141487121582,9.674968719482422,-4.180908203125,4.669189453125,-7.75146484375
10.9099999,-1.1827356815338135,-0.9792284965515137,9.588777542114258,-10.223388671875,5.157470703125,-3.90625
10.9299999,-1.213860273361206,-0.9744400978088379,9.531316757202148,0.91552734375,3.173828125,2.3040771484375
10.9499999,-1.2330138683319092,-0.9816226959228516,9.555258750915527,8.544921875,4.3182373046875,-1.6632080078125
10.969999900000001,-1.2282254695892334,-1.0438719987869263,9.624691009521484,0.5950927734375,4.1351318359375,-2.960205078125
10.9899999,-1.2258312702178955,-1.036689281463623,9.749189376831055,3.3416748046875,2.3040771484375,1.678466796875
11.0099999,-1.2090718746185303,-1.0319008827209473,9.813833236694336,25.6195068359375,-0.244140625,10.8184814453125
11.0299999,-1.1779472827911377,-1.0582371950149536,9.876082420349121,32.53173828125,0.152587890625,12.1307373046875
11.049999900000001,-1.1516109704971313,-1.070208191871643,9.9000244140625,25.0701904296875,4.3182373046875,-0.4119873046875
11.069999900000001,-1.1204863786697388,-1.1228805780410767,9.847352027893066,13.6871337890625,0.091552734375,-2.9144287109375
11.0899999,-1.1109095811843872,-1.0893617868423462,9.806650161743164,5.1727294921875,1.9989013671875,0.5035400390625
11.1099999,-1.139639973640442,-0.9169792532920837,9.715670585632324,-4.180908203125,5.18798828125,-2.7008056640625
11.129999900000001,-1.1851298809051514,-0.751779317855835,9.610325813293457,-9.3231201171875,7.99560546875,0
11.149999900000001,-1.2186486721038818,-0.7182605266571045,9.612719535827637,-7.6904296875,14.2974853515625,7.4462890625
11.1699999,-1.2545616626739502,-0.7709329724311829,9.62947940826416,-3.4942626953125,5.67626953125,0.42724609375
11.1899999,-1.292868971824646,-0.8786720037460327,9.643844604492188,3.204345703125,-1.6326904296875,-11.9476318359375
11.209999900000001,-1.3263877630233765,-0.9696516990661621,9.655815124511719,2.716064453125,8.9111328125,-9.1094970703125
11.229999900000001,-1.37906014919281,-0.9457096457481384,9.655815124511719,-4.5623779296875,15.68603515625,-0.9613037109375
11.2499999,-1.4197616577148438,-0.912190854549408,9.639056205749512,-0.885009765625,5.6304931640625,-0.7171630859375
11.2699999,-1.455674648284912,-0.9624691009521484,9.643844604492188,1.3427734375,4.1961669921875,-6.16455078125
11.2899999,-1.4437036514282227,-1.2018892765045166,9.639056205749512,-7.720947265625,15.228271484375,-7.9345703125
11.309999900000001,-1.4101848602294922,-1.5059528350830078,9.684545516967773,-16.1590576171875,26.2603759765625,-16.326904296875
11.3299999,-1.3910311460494995,-1.9057846069335938,9.588777542114258,-8.758544921875,15.7012939453125,-28.8238525390625
11.3499999,-1.2832920551300049,-2.7317841053009033,9.648633003234863,-18.8140869140625,20.477294921875,-27.0233154296875
11.3699999,-1.1803414821624756,-3.5051112174987793,9.909601211547852,-39.36767578125,45.6695556640625,-61.3861083984375
11.389999900000001,-1.1204863786697388,-4.299986362457275,10.45547866821289,-33.9508056640625,44.0216064453125,-107.4676513671875
11.4099999,-1.0438719987869263,-5.430049419403076,11.528080940246582,-0.3204345703125,26.123046875,-105.316162109375
11.4299999,-1.091755986213684,-6.143521785736084,13.273454666137695,5.1116943359375,19.989013671875,-152.2369384765625
11.4499999,-1.3263877630233765,-6.418854713439941,15.33965015411377,-18.0206298828125,-29.8614501953125,-237.48779296875
11.469999900000001,-1.6328455209732056,-6.229712963104248,17.417818069458008,-2.1820068359375,-99.54833984375,-231.964111328125
11.4899999,-2.1332337856292725,-4.6255974769592285,19.3044490814209,29.0679931640625,-132.7972412109375,-231.62841796875
11.5099999,-2.604891538619995,-2.1715409755706787,20.379444122314453,22.247314453125,-167.8009033203125,-214.7369384765625
11.5299999,-2.956839084625244,0.5841852426528931,20.7289981842041,14.09912109375,-217.71240234375,-146.9573974609375
11.549999900000001,-3.1866824626922607,3.028665065765381,20.211851119995117,49.98779296875,-251.678466796875,-92.9107666015625
11.569999900000001,-3.3901896476745605,4.809951305389404,18.84236717224121,110.83984375,-291.1834716796875,-75.0579833984375
11.5899999,-3.6080620288848877,5.746084213256836,16.65406608581543,169.097900390625,-318.0694580078125,-43.1365966796875
11.6099999,-3.890577793121338,6.361393928527832,13.651738166809082,229.522705078125,-308.8531494140625,15.7470703125
11.629999900000001,-4.218583583831787,6.754043102264404,10.000580787658691,263.7481689453125,-284.5001220703125,66.46728515625
11.649999900000001,-4.4532151222229,6.904877662658691,6.232107162475586,227.05078125,-191.22314453125,134.3231201171875
11.6699999,-4.7836151123046875,6.799532890319824,2.2433669567108154,197.296142578125,-161.2396240234375,165.46630859375
11.6899999,-5.049371242523193,6.200982570648193,-1.8100165128707886,202.545166015625,-114.2120361328125,210.052490234375
11.709999900000001,-5.43723201751709,5.377377033233643,-5.080495834350586,183.349609375,80.74951171875,240.325927734375
11.729999900000001,-5.758055210113525,3.9647979736328125,-7.204153060913086,126.220703125,216.888427734375,290.069580078125
11.7499999,-6.191405773162842,2.0685901641845703,-7.922413349151611,169.1131591796875,254.913330078125,324.76806640625
11.7699999,-6.845022678375244,-0.3878606855869293,-6.97430944442749,192.1234130859375,340.27099609375,311.1419677734375
11.7899999,-7.659051418304443,-3.4763808250427246,-4.242525577545166,64.1326904296875,499.9847412109375,311.4166259765625
11.809999900000001,-8.389283180236816,-6.7492547035217285,-0.26815059781074524,-50.1861572265625,499.9847412109375,276.8096923828125
11.8299999,-9.169792175292969,-9.246406555175781,4.0294413566589355,-25.6805419921875,443.5577392578125,173.736572265625
11.8499999,-9.239224433898926,-11.774683952331543,9.830592155456543,-44.647216796875,479.6142578125,143.73779296875
11.8699999,-8.676587104797363,-14.041993141174316,14.947001457214355,-104.0802001953125,439.544677734375,105.621337890625
11.889999900000001,-7.790732383728027,-15.89271068572998,19.220651626586914,-65.6280517578125,236.99951171875,-59.906005859375
11.9099999,-6.794744491577148,-16.479290008544922,22.400150299072266,-77.08740234375,152.4200439453125,-233.8714599609375
11.9299999,-5.995080947875977,-16.05312156677246,24.334665298461914,-172.637939453125,133.7738037109375,-244.56787109375
11.9499999,-5.92325496673584,-14.269442558288574,24.514230728149414,-128.5247802734375,7.2021484375,-243.2861328125
11.969999900000001,-6.335057735443115,-11.769895553588867,24.17664909362793,-48.2177734375,-104.1717529296875,-341.1407470703125
11.9899999,-7.12035608291626,-8.56645393371582,23.183055877685547,-47.42431640625,-131.28662109375,-420.623779296875
12.0099999,-7.931990146636963,-4.345476150512695,21.21502113342285,-4.3792724609375,-195.6634521484375,-358.3221435546875
12.0299999,-8.348581314086914,0.6751648783683777,18.452112197875977,50.994873046875,-213.8671875,-197.235107421875
12.049999900000001,-7.884106159210205,4.9368438720703125,14.599842071533203,26.763916015625,-210.1898193359375,-60.3485107421875
12.069999900000001,-6.4834980964660645,6.691793918609619,10.78587818145752,-67.19970703125,-111.1602783203125,16.3726806640625
12.0899999,-4.479551315307617,5.676652431488037,7.084442615509033,-62.7593994140625,-63.96484375,5.096435546875
12.1099999,-2.31758713722229,2.8443117141723633,4.745307922363281,12.6190185546875,-73.211669921875,-31.9366455078125
12.129999900000001,-0.5626373887062073,-0.05746084079146385,3.6343982219696045,45.5322265625,-61.46240234375,-55.816650390625
12.149999900000001,0.586579442024231,-2.1308395862579346,3.1914708614349365,54.38232421875,-45.0897216796875,-13.946533203125
12.1699999,1.1276689767837524,-2.9879636764526367,3.423708438873291,41.2445068359375,1.0223388671875,32.9742431640625
12.1899999,1.2545616626739502,-3.4380736351013184,4.0533833503723145,30.5633544921875,36.7279052734375,50.5523681640625
12.209999900000001,1.2473790645599365,-3.950432777404785,5.013458251953125,33.7066650390625,30.853271484375,37.6739501953125
12.229999900000001,1.1851298809051514,-4.412513732910156,6.387730121612549,12.8173828125,22.6287841796875,-1.3885498046875
12.2499999,1.113303780555725,-4.55616569519043,7.5968017578125,0.9918212890625,5.4779052734375,-12.02392578125
12.2699999,0.9768342971801758,-4.2090067863464355,8.365341186523438,30.94482421875,-2.3193359375,11.7340087890625
12.289999900000002,0.8810662031173706,-3.773261785507202,8.939949035644531,16.326904296875,26.3519287109375,43.1671142578125
12.309999900000001,0.8092401623725891,-3.5482068061828613,9.100360870361328,1.8463134765625,30.975341796875,34.72900390625
12.3299999,0.8164227604866028,-3.7493197917938232,9.241618156433105,23.1475830078125,14.95361328125,7.1258544921875
12.3499999,0.849941611289978,-4.060565948486328,9.41639518737793,43.548583984375,15.2130126953125,-6.011962890625
12.3699999,0.8236053586006165,-4.079719543457031,9.552865028381348,35.064697265625,16.2506103515625,-2.2125244140625
12.389999900000001,0.727837324142456,-3.8067808151245117,9.72285270690918,1.0223388671875,12.8021240234375,10.9710693359375
12.4099999,0.6177040338516235,-3.4811692237854004,9.888052940368652,1.7242431640625,8.6212158203125,20.9808349609375
12.4299999,0.5363011956214905,-3.3039982318878174,10.065223693847656,17.08984375,7.2021484375,13.48876953125
12.4499999,0.49559974670410156,-3.332728862762451,10.187328338623047,16.17431640625,5.3558349609375,3.4942626953125
12.469999900000001,0.4836287498474121,-3.445256233215332,10.158597946166992,17.63916015625,-1.9378662109375,-0.518798828125
12.4899999,0.4572925269603729,-3.423708438873291,10.101137161254883,14.16015625,-1.739501953125,0.3509521484375
12.5099999,0.4213795065879822,-3.40216064453125,9.77791976928711,14.9993896484375,-5.126953125,8.60595703125
12.5299999,0.4189853072166443,-3.3854012489318848,9.53849983215332,9.9639892578125,2.25830078125,11.2457275390625
12.549999900000001,0.40222588181495667,-3.3710360527038574,9.23682975769043,4.0130615234375,12.4969482421875,-2.5177001953125
12.569999900000001,0.42616790533065796,-3.450044631958008,9.016563415527344,8.3770751953125,2.99072265625,-2.5482177734375
12.5899999,0.43335050344467163,-3.4356794357299805,9.009381294250488,-0.7781982421875,8.5601806640625,0.274658203125
12.6099999,0.4141969084739685,-3.3303346633911133,9.02135181427002,1.9073486328125,9.58251953125,-1.4190673828125
12.629999900000001,0.37828385829925537,-3.1651346683502197,9.074024200439453,4.7454833984375,8.0108642578125,0.30517578125
12.649999900000001,0.3280056416988373,-3.004723072052002,9.217676162719727,-4.058837890625,14.8162841796875,5.4168701171875
12.6699999,0.28969839215278625,-3.028665065765381,9.35654067993164,-6.2713623046875,12.237548828125,10.223388671875
12.6899999,0.24420857429504395,-3.066972494125366,9.516951560974121,0.8392333984375,5.3863525390625,-2.7313232421875
12.709999900000001,0.19871874153614044,-3.136404275894165,9.622296333312988,8.6669921875,5.79833984375,-15.44189453125
12.729999900000001,0.17238251864910126,-3.138798475265503,9.646238327026367,5.615234375,10.3302001953125,-1.9989013671875
12.7499999,0.1412578970193863,-3.0382418632507324,9.603142738342285,-3.6163330078125,9.7503662109375,3.6468505859375
12.7699999,0.12928688526153564,-2.980781078338623,9.57201862335205,4.5623779296875,10.0555419921875,0.2899169921875
12.789999900000002,0.12689268589019775,-2.9759926795959473,9.560047149658203,12.14599609375,8.270263671875,-6.0882568359375
12.809999900000001,0.10534487664699554,-2.9520506858825684,9.564835548400879,10.1470947265625,6.0272216796875,-6.744384765625
12.8299999,0.08140286058187485,-2.896984100341797,9.586383819580078,7.2479248046875,8.3770751953125,0.4119873046875
12.8499999,0.033518824726343155,-2.8107926845550537,9.576807022094727,5.126953125,6.6375732421875,4.150390625
12.8699999,-0.011971008032560349,-2.7509377002716064,9.57201862335205,3.1890869140625,6.378173828125,1.1138916015625
12.889999900000001,-0.038307227194309235,-2.7772738933563232,9.560047149658203,1.15966796875,8.0108642578125,0.579833984375
12.9099999,-0.05746084079146385,-2.8107926845550537,9.528923034667969,-4.7149658203125,6.0882568359375,-0.18310546875
12.9299999,-0.05985504388809204,-2.8658595085144043,9.509769439697266,-5.279541015625,4.7760009765625,-1.15966796875
12.9499999,-0.06703764945268631,-2.875436305999756,9.497797966003418,0.0762939453125,4.5928955078125,-1.5869140625
12.969999900000001,-0.08858546614646912,-2.8826189041137695,9.464279174804688,6.195068359375,4.1656494140625,0.30517578125
12.9899999,-0.11013327538967133,-2.875436305999756,9.430760383605957,5.340576171875,5.5999755859375,2.593994140625
13.0099999,-0.1364694982767105,-2.851494312286377,9.409213066101074,-0.1678466796875,9.1552734375,0.457763671875
13.0299999,-0.1604115068912506,-2.82515811920166,9.354146003723145,4.0740966796875,8.1634521484375,-0.1220703125
13.049999900000001,-0.17956513166427612,-2.7772738933563232,9.344569206237793,1.8463134765625,11.4898681640625,1.6632080078125
13.069999900000001,-0.21308395266532898,-2.7269957065582275,9.344569206237793,-12.4664306640625,9.33837890625,2.288818359375
13.0899999,-0.23942017555236816,-2.7509377002716064,9.296685218811035,-15.7623291015625,0.5950927734375,4.180908203125
13.1099999,-0.26815059781074524,-2.8227639198303223,9.258378028869629,-14.923095703125,4.364013671875,0.2899169921875
13.129999900000001,-0.2849099934101105,-2.9161376953125,9.188945770263672,-18.06640625,13.9923095703125,-5.1116943359375
13.149999900000001,-0.31603461503982544,-2.9712042808532715,9.117119789123535,-25.5126953125,15.625,-4.486083984375
13.1699999,-0.35434186458587646,-3.026270866394043,9.074024200439453,-20.8587646484375,13.092041015625,1.1138916015625
13.1899999,-0.395043283700943,-3.134010076522827,9.062053680419922,-13.7939453125,14.8468017578125,2.685546875
13.209999900000001,-0.4357447028160095,-3.2537200450897217,9.059659004211426,-24.1241455078125,15.7928466796875,-4.364013671875
13.229999900000001,-0.4884171485900879,-3.3638534545898438,9.11233139038086,-44.73876953125,14.0228271484375,-9.368896484375
13.2499999,-0.5434837937355042,-3.404554843902588,9.181763648986816,-38.4521484375,12.4969482421875,-3.1280517578125
13.2699999,-0.5913678407669067,-3.4572272300720215,9.26795482635498,-23.101806640625,11.1541748046875,3.6163330078125
13.289999900000002,-0.6248866319656372,-3.5410242080688477,9.327810287475586,-13.9617919921875,13.519287109375,0.457763671875
13.309999900000001,-0.6536170840263367,-3.648763418197632,9.318233489990234,-26.7181396484375,11.0931396484375,-7.9345703125
13.3299999,-0.646434485912323,-3.861847400665283,9.387664794921875,-42.236328125,12.6953125,-0.1678466796875
13.3499999,-0.6440402865409851,-4.027047157287598,9.363722801208496,-18.3258056640625,6.0882568359375,0.8697509765625
13.3699999,-0.6488286852836609,-4.110844135284424,9.354146003723145,-11.7340087890625,2.166748046875,-12.847900390625
13.389999900000001,-0.6631938815116882,-4.122815132141113,9.339780807495117,-34.1033935546875,6.6680908203125,-10.8489990234375
13.4099999,-0.6967126727104187,-4.055777549743652,9.30386734008789,-44.189453125,0.8087158203125,-0.0457763671875
13.4299999,-0.7038952708244324,-4.153939723968506,9.299078941345215,-68.1610107421875,-23.345947265625,-1.6632080078125
13.4499999,-0.646434485912323,-4.338293552398682,9.368511199951172,-118.22509765625,-38.4521484375,-9.9334716796875
13.469999900000001,-0.5434837937355042,-4.580107688903809,9.368511199951172,-101.3946533203125,-46.051025390625,-8.5296630859375
13.4899999,-0.44532153010368347,-4.853046894073486,9.337387084960938,-89.9505615234375,-52.6275634765625,6.591796875
13.5099999,-0.3663128614425659,-5.039794445037842,8.995016098022461,-89.7979736328125,-46.356201171875,-0.030517578125
13.5299999,-0.26815059781074524,-5.403713226318359,8.614337921142578,-85.4339599609375,-13.7939453125,1.77001953125
13.549999900000001,-0.1843535304069519,-5.69580602645874,8.099584579467773,-53.558349609375,2.6702880859375,1.3580322265625
13.569999900000001,-0.09816227108240128,-5.901707172393799,7.82185697555542,-13.671875,17.486572265625,-3.997802734375
13.5899999,-0.06224924325942993,-5.9519853591918945,7.740454196929932,-19.927978515625,10.5743408203125,-2.9144287109375
13.6099999,-0.05506663769483566,-6.035782337188721,7.773972988128662,-25.665283203125,2.4871826171875,16.8914794921875
13.629999900000001,-0.090979665517807,-6.098031520843506,7.740454196929932,-25.5126953125,-0.3204345703125,19.287109375
13.649999900000001,-0.1364694982767105,-6.222530364990234,7.750030994415283,-48.9654541015625,6.40869140625,8.6822509765625
13.6699999,-0.17238251864910126,-6.50025749206543,7.718906402587891,-66.71142578125,2.3193359375,13.0157470703125
13.6899999,-0.1867477297782898,-6.823474884033203,7.63989782333374,-50.9490966796875,-8.6669921875,18.9056396484375
13.709999900000001,-0.22266076505184174,-6.993463039398193,7.5848307609558105,-51.57470703125,-4.730224609375,1.5411376953125
13.729999900000001,-0.22266076505184174,-7.194576263427734,7.548917770385742,-60.5926513671875,9.0789794921875,2.227783203125
13.7499999,-0.2513911724090576,-7.280767440795898,7.38132381439209,-41.56494140625,2.8076171875,11.7034912109375
13.7699999,-0.272938996553421,-7.307103633880615,7.184999465942383,-33.14208984375,0.67138671875,7.6446533203125
13.789999900000002,-0.2944868206977844,-7.347805023193359,7.091625213623047,-58.3343505859375,14.0838623046875,2.655029296875
13.809999900000001,-0.3232172429561615,-7.390900611877441,6.912060260772705,-57.55615234375,6.4239501953125,4.08935546875
13.8299999,-0.36152446269989014,-7.357381820678711,6.777985095977783,-24.47509765625,-4.638671875,5.0506591796875
13.8499999,-0.4189853072166443,-7.252037048339844,6.696582317352295,-21.026611328125,2.3193359375,7.50732421875
13.8699999,-0.4644751250743866,-7.249642848968506,6.588842868804932,-29.266357421875,8.4075927734375,17.88330078125
13.889999900000001,-0.5123591423034668,-7.347805023193359,6.430825710296631,-10.2081298828125,5.9967041015625,14.5721435546875
13.9099999,-0.5410895943641663,-7.529764175415039,6.325480937957764,1.6937255859375,8.23974609375,3.2958984375
13.9299999,-0.5626373887062073,-7.7428483963012695,6.291962146759033,-7.3394775390625,14.7552490234375,-1.1138916015625
13.9499999,-0.6033388376235962,-7.927201747894287,6.186617374420166,-3.6468505859375,10.9100341796875,0.6256103515625
13.969999900000001,-0.6488286852836609,-8.039729118347168,6.1267619132995605,2.62451171875,10.2996826171875,-2.8533935546875
13.9899999,-0.7015010714530945,-8.063671112060547,5.987898349761963,-2.9754638671875,22.15576171875,-9.063720703125
14.0099999,-0.7086837291717529,-8.20492935180664,5.870582580566406,-7.720947265625,32.89794921875,-6.378173828125
14.0299999,-0.7206547260284424,-8.365341186523438,5.638344764709473,3.9825439453125,33.87451171875,-14.404296875
14.049999900000001,-0.6440402865409851,-8.93037223815918,5.252878665924072,26.30615234375,40.6341552734375,-26.4892578125
14.069999900000001,-0.4836287498474121,-9.713275909423828,4.891354084014893,42.9840087890625,78.8116455078125,-42.90771484375
14.0899999,-0.33758243918418884,-10.735600471496582,4.838681697845459,51.3458251953125,113.1134033203125,-75.1800537109375
14.1099999,-0.17238251864910126,-12.495338439941406,5.12119722366333,54.50439453125,112.548828125,-82.855224609375
14.129999900000001,-0.12928688526153564,-13.951013565063477,6.629544734954834,15.5792236328125,128.8299560546875,-140.2130126953125
14.149999900000001,-0.2825157940387726,-15.0355863571167,9.428366661071777,-59.9365234375,126.8310546875,-210.1898193359375
14.1699999,-0.6368576288223267,-15.600618362426758,12.164938926696777,-28.778076171875,1.9073486328125,-208.1451416015625
14.1899999,-1.0079588890075684,-15.085865020751953,15.014039039611816,18.3563232421875,-54.931640625,-209.1522216796875
14.209999900000001,-1.5897499322891235,-13.469779014587402,17.85595703125,-20.1416015625,-20.9503173828125,-267.4560546875
14.229999900000001,-2.1811177730560303,-11.561599731445312,19.24938201904297,-1.03759765625,-152.2216796875,-252.899169921875
14.2499999,-3.002328872680664,-8.56884765625,20.211851119995117,13.8092041015625,-268.6309814453125,-222.2747802734375
14.2699999,-3.8522706031799316,-5.748478412628174,19.524715423583984,6.4849853515625,-290.2374267578125,-168.64013671875
14.289999900000002,-4.680664539337158,-2.3558945655822754,17.228675842285156,0.8697509765625,-303.955078125,-134.307861328125
14.309999900000001,-5.360617637634277,0.9145850539207458,13.673285484313965,14.2364501953125,-342.254638671875,-92.2088623046875
14.3299999,-5.825092792510986,4.651933670043945,9.524134635925293,63.2171630859375,-388.885498046875,6.378173828125
14.3499999,-6.787561893463135,8.516175270080566,5.420472621917725,121.246337890625,-378.23486328125,106.8878173828125
14.3699999,-7.922413349151611,9.188945770263672,0.3878606855869293,203.948974609375,-385.589599609375,319.1070556640625
14.389999900000001,-8.56884765625,7.860164165496826,-5.398924827575684,126.068115234375,-301.3458251953125,365.8294677734375
14.4099999,-8.978256225585938,4.838681697845459,-9.832986831665039,-50.6439208984375,31.06689453125,202.423095703125
14.4299999,-8.022970199584961,0.7565677165985107,-12.627019882202148,-27.4658203125,141.8914794921875,305.23681640625
14.4499999,-7.168240070343018,-1.039083480834961,-12.050017356872559,125.7476806640625,66.436767578125,389.9383544921875
14.469999900000001,-7.079654216766357,-2.920926094055176,-9.02135181427002,186.9049072265625,25.146484375,445.953369140625
14.4899999,-7.273584842681885,-7.785943984985352,-6.186617374420166,29.144287109375,60.1654052734375,499.9847412109375
14.5099999,-8.549694061279297,-13.704410552978516,-6.229712963104248,-84.6405029296875,63.4765625,397.5067138671875
14.5299999,-9.557653427124023,-20.278888702392578,-5.468356609344482,1.40380859375,496.063232421875,118.65234375
14.549999900000001,-9.500192642211914,-25.256433486938477,-3.6774938106536865,57.9376220703125,499.9847412109375,122.6959228515625
14.569999900000001,-9.344569206237793,-26.336217880249023,-0.6560112833976746,-36.07177734375,177.642822265625,87.1734619140625
14.5899999,-8.015787124633789,-26.61873435974121,4.9799394607543945,-61.737060546875,79.132080078125,19.1497802734375
14.6099999,-6.885724067687988,-26.103981018066406,8.595184326171875,-15.2435302734375,90.911865234375,-126.2664794921875
14.629999900000001,-6.296750545501709,-25.007436752319336,9.885659217834473,-19.4854736328125,48.309326171875,-304.473876953125
14.649999900000001,-5.9519853591918945,-22.402545928955078,11.353304862976074,-66.6656494140625,181.427001953125,-287.750244140625
14.6699999,-5.810727596282959,-17.944541931152344,12.39957046508789,-80.322265625,176.3763427734375,-186.492919921875
14.6899999,-5.420472621917725,-12.559982299804688,12.763489723205566,-17.730712890625,-69.6563720703125,-147.8271484375
14.709999900000001,-4.460397720336914,-7.86734676361084,12.550405502319336,-18.3563232421875,-82.1533203125,-119.1864013671875
14.729999900000001,-3.3063924312591553,-4.709394931793213,10.022128105163574,-14.556884765625,-72.6165771484375,-108.0169677734375
14.7499999,-2.1284453868865967,-3.1028854846954346,6.584054470062256,46.5087890625,-93.3990478515625,-95.0927734375
14.7699999,-1.3000515699386597,-2.4372973442077637,3.141192674636841,129.5013427734375,-115.6768798828125,-87.188720703125
14.789999900000002,-0.646434485912323,-2.6815059185028076,0.5147533416748047,131.988525390625,-110.2752685546875,-49.3316650390625
14.809999900000001,-0.3495534360408783,-3.3255462646484375,-0.8978256583213806,77.8656005859375,-52.0477294921875,-19.989013671875
14.8299999,-0.07422025501728058,-4.594472885131836,-1.3527239561080933,84.747314453125,-43.2891845703125,-4.486083984375
14.8499999,0.1412578970193863,-5.966350555419922,-0.9361328482627869,93.5821533203125,-60.6536865234375,-7.049560546875
14.8699999,0.33758243918418884,-7.297526836395264,-0.4357447028160095,85.87646484375,-80.2001953125,-7.476806640625
14.889999900000001,0.4836287498474121,-8.635885238647461,0.07900865375995636,78.91845703125,-41.7022705078125,23.1781005859375
14.9099999,0.7015010714530945,-9.799467086791992,0.4668693244457245,92.34619140625,6.4849853515625,20.1568603515625
14.9299999,0.8690952062606812,-10.400412559509277,1.4939818382263184,38.8946533203125,2.2125244140625,-32.440185546875
14.9499999,1.213860273361206,-10.848128318786621,3.265691041946411,-23.9105224609375,-24.2462158203125,-10.2081298828125
14.969999900000001,1.381454348564148,-10.668562889099121,4.831499099731445,4.69970703125,-101.07421875,18.280029296875
14.9899999,1.4532804489135742,-10.285490036010742,5.535394191741943,33.599853515625,-124.5574951171875,4.7760009765625
15.0099999,1.4963760375976562,-10.340557098388672,5.2696380615234375,14.6636962890625,-38.6199951171875,4.5013427734375
15.0299999,1.4532804489135742,-10.20648193359375,4.230554580688477,21.484375,-6.6986083984375,-37.9791259765625
15.049999900000001,1.4508862495422363,-9.876082420349121,3.2824504375457764,33.2489013671875,-32.9742431640625,-50.0640869140625
15.069999900000001,1.5155296325683594,-9.411606788635254,2.935291290283203,-1.0833740234375,-23.651123046875,-0.823974609375
15.0899999,1.5705963373184204,-8.920795440673828,2.87064790725708,-0.9307861328125,7.568359375,31.3262939453125
15.1099999,1.6160861253738403,-8.664615631103516,2.9017724990844727,25.7415771484375,4.1046142578125,0.5950927734375
15.129999900000001,1.7046716213226318,-8.87291145324707,3.1052796840667725,36.2548828125,7.14111328125,-11.16943359375
15.149999900000001,1.7621324062347412,-8.954314231872559,3.5434184074401855,28.7017822265625,19.8974609375,-8.6212158203125
15.1699999,1.778891921043396,-8.856152534484863,4.0749311447143555,32.04345703125,9.09423828125,0.732421875
15.1899999,1.7190368175506592,-8.71489429473877,4.568136692047119,53.0242919921875,-9.9334716796875,18.463134765625
15.209999900000001,1.5466543436050415,-8.628703117370605,4.587290287017822,72.44873046875,-4.4708251953125,22.27783203125
15.229999900000001,1.3048399686813354,-8.743624687194824,4.290409564971924,49.1790771484375,36.1328125,13.336181640625
15.2499999,1.161187767982483,-9.117119789123535,3.8498764038085938,14.2669677734375,71.2127685546875,18.98193359375
15.2699999,1.015141487121582,-9.114726066589355,3.8067808151245117,4.0130615234375,55.7098388671875,-12.786865234375
15.289999900000002,1.0319008827209473,-8.987833023071289,4.259284973144531,46.0357666015625,12.3748779296875,-7.0037841796875
15.309999900000001,1.0031704902648926,-8.5903959274292,4.891354084014893,86.60888671875,-14.2822265625,22.918701171875
15.3299999,1.0247182846069336,-8.307879447937012,5.4252610206604,92.498779296875,-14.923095703125,34.454345703125
15.3499999,1.0438719987869263,-8.185775756835938,5.70777702331543,78.948974609375,5.37109375,19.3328857421875
15.3699999,1.0845733880996704,-8.183381080627441,5.781997203826904,100.2655029296875,12.2528076171875,-0.8697509765625
15.389999900000001,1.1013327836990356,-8.125920295715332,5.834669589996338,113.1439208984375,14.312744140625,3.4027099609375
15.4099999,1.1037269830703735,-7.915230751037598,5.9519853591918945,83.404541015625,22.308349609375,13.275146484375
15.4299999,1.0582371950149536,-7.718906402587891,6.143521785736084,51.6357421875,26.0009765625,16.9677734375
15.4499999,1.0247182846069336,-7.642292022705078,6.3302693367004395,66.436767578125,22.0184326171875,10.68115234375
15.469999900000001,0.9457096457481384,-7.524975776672363,6.560112476348877,57.43408203125,25.970458984375,-5.67626953125
15.4899999,0.8690952062606812,-7.393294811248779,6.794744491577148,13.4429931640625,34.0576171875,-3.3111572265625
15.5099999,0.7398083209991455,-7.182605266571045,7.062894821166992,-15.9912109375,33.905029296875,11.8255615234375
15.5299999,0.6392518281936646,-7.022193431854248,7.254431247711182,-14.58740234375,11.810302734375,15.9454345703125
15.549999900000001,0.5530605912208557,-7.134721279144287,7.3693528175354,-30.1666259765625,4.852294921875,15.5181884765625
15.569999900000001,0.49559974670410156,-7.350199222564697,7.354987621307373,-55.60302734375,17.8070068359375,2.62451171875
15.5899999,0.4405331015586853,-7.575253963470459,7.161057472229004,-73.05908203125,19.8516845703125,-13.0462646484375
15.6099999,0.40701428055763245,-7.843404769897461,6.926425457000732,-74.676513671875,15.350341796875,2.3651123046875
15.629999900000001,0.40940847992897034,-7.970297336578369,6.734889507293701,-81.0394287109375,22.39990234375,1.64794921875
15.649999900000001,0.395043283700943,-7.989450931549072,6.593631267547607,-99.7314453125,25.1007080078125,-21.484375
15.6699999,0.3471592366695404,-7.972691535949707,6.440402507781982,-95.76416015625,12.725830078125,-17.15087890625
15.6899999,0.304063618183136,-8.01339340209961,6.200982570648193,-74.3560791015625,7.1563720703125,10.711669921875
15.709999900000001,0.23942017555236816,-8.10437297821045,5.863399982452393,-69.5037841796875,17.3187255859375,4.9591064453125
15.729999900000001,0.19393034279346466,-8.226476669311523,5.521028995513916,-81.9091796875,30.6243896484375,-21.6827392578125
15.7499999,0.15801730751991272,-8.245630264282227,5.22175407409668,-91.339111328125,22.674560546875,-16.1285400390625
15.7699999,0.05027823522686958,-8.054094314575195,4.98472785949707,-74.7528076171875,12.176513671875,18.4783935546875
15.789999900000002,-0.0933738648891449,-7.960720539093018,4.728548526763916,-50.6134033203125,17.3187255859375,53.9398193359375
15.809999900000001,-0.21547815203666687,-8.125920295715332,4.3406877517700195,-61.7828369140625,20.5230712890625,51.5289306640625
15.8299999,-0.3711012601852417,-8.315062522888184,3.909731388092041,-79.6356201171875,27.8167724609375,18.798828125
15.8499999,-0.4620809257030487,-8.609549522399902,3.7397429943084717,-79.9560546875,42.0074462890625,27.801513671875
15.869999900000002,-0.5602431893348694,-8.78193187713623,3.799597978591919,-57.92236328125,26.5960693359375,56.6253662109375
15.889999900000001,-0.6703764796257019,-9.133879661560059,3.9815573692321777,-33.0810546875,-9.521484375,53.375244140625
15.9099999,-0.6607996821403503,-9.785101890563965,4.017470359802246,-22.552490234375,-43.5028076171875,27.2064208984375
15.9299999,-0.6584054827690125,-10.096348762512207,4.050989151000977,-45.34912109375,-23.101806640625,-28.564453125
15.9499999,-0.6488286852836609,-10.046070098876953,4.027047157287598,-77.728271484375,-22.216796875,-30.7464599609375
15.969999900000001,-0.6560112833976746,-9.5624418258667,3.892971992492676,-19.04296875,-46.478271484375,20.3857421875
15.9899999,-0.9265560507774353,-8.731653213500977,3.3016040325164795,30.1513671875,-53.2989501953125,18.4478759765625
16.0099999,-1.0749965906143188,-8.487444877624512,2.5019407272338867,-32.501220703125,-8.148193359375,41.656494140625
16.0299999,-1.2832920551300049,-8.40843677520752,2.0829553604125977,-113.7847900390625,52.9937744140625,63.232421875
16.0499999,-1.3407529592514038,-8.700529098510742,1.900996208190918,-37.8265380859375,-7.6904296875,52.6580810546875
16.0699999,-1.2689268589019775,-9.229647636413574,2.3702597618103027,-20.416259765625,-83.4197998046875,65.765380859375
16.089999900000002,-1.3503297567367554,-9.44991397857666,2.274491548538208,-46.051025390625,-69.061279296875,38.9251708984375
16.109999900000002,-1.4269442558288574,-9.871294021606445,1.7046716213226318,-189.544677734375,-20.56884765625,58.2122802734375
16.1299999,-1.5729905366897583,-10.086771965026855,0.9552865028381348,-255.2337646484375,47.8973388671875,73.0743408203125
16.1499999,-1.7046716213226318,-10.110713958740234,0.35434186458587646,-252.6397705078125,30.029296875,42.66357421875
16.1699999,-1.8746598958969116,-10.079588890075684,0.2322375625371933,-326.3397216796875,-23.9410400390625,51.8341064453125
16.1899999,-2.1715409755706787,-9.773131370544434,0.07661445438861847,-311.065673828125,-56.3507080078125,92.3309326171875
16.2099999,-2.427720546722412,-9.873687744140625,-0.10534487664699554,-160.308837890625,-47.18017578125,128.4332275390625
16.2299999,-2.7246015071868896,-10.122684478759766,-0.49559974670410156,38.75732421875,-2.471923828125,75.0885009765625
16.249999900000002,-2.9161376953125,-10.474632263183594,-0.8020575642585754,200.3936767578125,26.4892578125,-23.8037109375
16.269999900000002,-2.9089550971984863,-10.943896293640137,-1.1420341730117798,392.3797607421875,99.18212890625,-35.888671875
16.2899999,-3.021482467651367,-10.821791648864746,-1.2186486721038818,419.5404052734375,117.8741455078125,-36.4837646484375
16.3099999,-2.940079689025879,-10.757147789001465,-1.0319008827209473,236.358642578125,53.314208984375,-8.331298828125
16.3299999,-2.8993782997131348,-10.457873344421387,-0.5817909836769104,133.575439453125,-4.058837890625,-19.7601318359375
16.3499999,-2.801215887069702,-10.077195167541504,0.009576806798577309,90.0726318359375,-5.5999755859375,-25.543212890625
16.3699999,-2.671929121017456,-9.6989107131958,0.6392518281936646,25.7720947265625,16.448974609375,1.0223388671875
16.3899999,-2.58813214302063,-9.222464561462402,1.3048399686813354,-28.5186767578125,26.1383056640625,1.708984375
16.4099999,-2.5689783096313477,-8.93037223815918,1.6615760326385498,-21.3623046875,2.471923828125,-6.9427490234375
16.429999900000002,-2.561795711517334,-8.944737434387207,1.53707754611969,-99.8382568359375,-27.1453857421875,2.105712890625
16.4499999,-2.628833532333374,-9.217676162719727,1.37906014919281,-248.138427734375,26.702880859375,4.852294921875
16.4699999,-2.671929121017456,-9.488221168518066,0.9983820915222168,-197.8302001953125,69.3511962890625,-17.8680419921875
16.4899999,-2.6431987285614014,-9.837775230407715,1.0007762908935547,-148.162841796875,5.1727294921875,-20.6146240234375
16.5099999,-2.6144683361053467,-9.931148529052734,1.0797849893569946,-76.416015625,-18.9361572265625,-15.0299072265625
16.5299999,-2.537853717803955,-10.091560363769531,0.8379706144332886,-43.76220703125,-18.707275390625,-21.3165283203125
16.5499999,-2.5498247146606445,-10.005369186401367,0.33758243918418884,-1.7242431640625,16.143798828125,-41.5496826171875
16.5699999,-2.540247917175293,-9.955090522766113,-0.2513911724090576,21.91162109375,26.1993408203125,-39.5050048828125
16.589999900000002,-2.5689783096313477,-9.782708168029785,-0.6584054827690125,20.965576171875,2.655029296875,-13.885498046875
16.609999900000002,-2.5067291259765625,-9.66539192199707,-0.7589619159698486,22.0794677734375,-5.2337646484375,-14.984130859375
16.6299999,-2.3989901542663574,-9.682151794433594,-0.7230489253997803,35.46142578125,1.1444091796875,-20.6298828125
16.6499999,-2.2409727573394775,-9.832986831665039,-0.7637503147125244,73.1201171875,-0.244140625,-42.05322265625
16.6699999,-2.121262788772583,-9.9000244140625,-0.6057330369949341,76.7364501953125,9.490966796875,-49.86572265625
16.6899999,-2.0254945755004883,-9.90241813659668,-0.2944868206977844,103.3782958984375,28.1524658203125,-40.22216796875
16.7099999,-1.9991583824157715,-9.725247383117676,0.08140286058187485,167.2515869140625,15.5029296875,-37.2314453125
16.7299999,-1.9823989868164062,-9.485827445983887,0.5674257874488831,188.629150390625,4.058837890625,-41.9464111328125
16.749999900000002,-1.9081788063049316,-9.20091724395752,1.1228805780410767,147.552490234375,18.585205078125,-25.69580078125
16.769999900000002,-1.889025092124939,-8.882488250732422,1.7094600200653076,94.024658203125,8.8653564453125,0.6866455078125
16.7899999,-1.8363527059555054,-8.700529098510742,1.920149803161621,121.64306640625,-25.421142578125,13.6871337890625
16.8099999,-1.7860745191574097,-8.552088737487793,2.070984363555908,84.686279296875,-22.2320556640625,7.4005126953125
16.8299999,-1.7190368175506592,-8.595184326171875,2.1811177730560303,42.144775390625,34.24072265625,6.1492919921875
16.8499999,-1.6974890232086182,-8.552088737487793,2.1930887699127197,55.0384521484375,15.3350830078125,3.9520263671875
16.8699999,-1.7621324062347412,-8.60236644744873,2.650381326675415,47.91259765625,8.575439453125,14.892578125
16.8899999,-1.941697597503662,-8.779537200927734,2.9759926795959473,4.791259765625,16.6168212890625,26.2603759765625
16.9099999,-2.0829553604125977,-9.119514465332031,3.251325845718384,8.0413818359375,32.9742431640625,11.3983154296875
16.929999900000002,-2.185906171798706,-9.337387084960938,3.313575267791748,48.9654541015625,49.652099609375,-17.3797607421875
16.9499999,-2.1140801906585693,-9.509769439697266,3.5434184074401855,70.526123046875,40.557861328125,-5.2642822265625
16.9699999,-2.056619167327881,-9.339780807495117,4.015076160430908,87.860107421875,43.243408203125,23.9410400390625
16.9899999,-1.9919757843017578,-9.124302864074707,4.522646903991699,103.118896484375,16.1895751953125,27.7099609375
17.0099999,-1.9919757843017578,-9.028534889221191,4.929661273956299,65.4144287109375,-9.3841552734375,23.9410400390625
17.0299999,-2.0231003761291504,-9.026140213012695,5.200206279754639,22.6287841796875,-3.4942626953125,15.5792236328125
17.0499999,-2.0015525817871094,-9.004592895507812,5.173870086669922,59.2803955078125,7.110595703125,17.5323486328125
17.0699999,-2.0446481704711914,-8.89445972442627,5.116408824920654,105.438232421875,15.07568359375,24.47509765625
17.089999900000002,-2.0638017654418945,-8.549694061279297,5.240907669067383,64.0411376953125,26.123046875,22.0489501953125
17.109999900000002,-2.1356279850006104,-8.329427719116211,5.382165431976318,34.210205078125,18.49365234375,36.0565185546875
17.1299999,-2.3127987384796143,-8.166622161865234,5.492298603057861,54.6112060546875,6.2713623046875,40.34423828125
17.1499999,-2.3271639347076416,-8.324639320373535,5.367800235748291,76.7364501953125,-2.0599365234375,33.99658203125
17.1699999,-2.3965959548950195,-8.494627952575684,5.142745018005371,27.40478515625,26.947021484375,8.9111328125
17.1899999,-2.47560453414917,-8.497021675109863,5.183446884155273,-54.0008544921875,71.9757080078125,-12.5732421875
17.2099999,-2.542642116546631,-8.394071578979492,5.4659624099731445,3.2501220703125,42.1295166015625,12.786865234375
17.2299999,-2.7557260990142822,-8.02536392211914,6.057330131530762,69.9462890625,-12.9241943359375,24.7039794921875
17.249999900000002,-2.829946517944336,-7.757213592529297,6.414066314697266,94.8638916015625,-17.059326171875,23.3612060546875
17.269999900000002,-2.9281086921691895,-7.558494567871094,6.3063273429870605,70.5413818359375,7.7362060546875,19.1497802734375
17.2899999,-2.8227639198303223,-7.462726593017578,6.114790916442871,-50.72021484375,29.815673828125,-9.09423828125
17.3099999,-2.8993782997131348,-7.544129371643066,5.9088897705078125,-3.4332275390625,20.904541015625,-0.06103515625
17.3299999,-2.8802247047424316,-7.558494567871094,6.212953567504883,2.44140625,34.332275390625,-6.4849853515625
17.3499999,-3.0597896575927734,-7.618350028991699,6.414066314697266,33.0810546875,-3.4637451171875,-21.54541015625
17.3699999,-3.00711727142334,-7.63989782333374,6.6127848625183105,20.81298828125,-10.467529296875,-12.5579833984375
17.3899999,-3.112462282180786,-7.441178798675537,6.3733649253845215,20.050048828125,9.5672607421875,-20.538330078125
17.409999900000003,-3.004723072052002,-7.5632829666137695,6.1315507888793945,23.2391357421875,25.7415771484375,-3.0059814453125
17.429999900000002,-3.026270866394043,-7.402871608734131,5.92325496673584,38.1927490234375,27.313232421875,-23.13232421875
17.4499999,-3.0310592651367188,-7.326257228851318,5.954379558563232,65.826416015625,13.2598876953125,-24.0936279296875
17.4699999,-3.098097085952759,-7.38132381439209,6.1052141189575195,68.2830810546875,15.56396484375,6.1798095703125
17.4899999,-2.9735984802246094,-7.151480674743652,6.145915985107422,47.6226806640625,28.961181640625,-23.25439453125
17.5099999,-2.9089550971984863,-7.06528902053833,6.2392897605896,-0.2288818359375,43.7774658203125,-55.633544921875
17.5299999,-2.7533318996429443,-6.919242858886719,6.368576526641846,-29.5867919921875,36.80419921875,-21.728515625
17.5499999,-2.7485435009002686,-6.763619899749756,6.572083473205566,-32.440185546875,3.7841796875,0.7476806640625
17.5699999,-2.8179752826690674,-6.787561893463135,6.715735912322998,-38.3758544921875,-15.6707763671875,7.8887939453125
17.589999900000002,-2.937685489654541,-6.871358871459961,6.799532890319824,-34.48486328125,8.4381103515625,1.03759765625
17.609999900000002,-2.959233283996582,-7.048529624938965,6.722918510437012,-28.01513671875,14.2059326171875,0.1068115234375
17.6299999,-2.913743495941162,-7.177816867828369,6.45476770401001,-19.95849609375,-7.6446533203125,4.3792724609375
17.6499999,-2.829946517944336,-7.311892032623291,6.095637321472168,-38.177490234375,-5.9814453125,-2.3193359375
17.6699999,-2.7772738933563232,-7.407660007476807,5.631162166595459,-54.5501708984375,25.726318359375,-8.453369140625
17.6899999,-2.691082715988159,-7.548917770385742,5.22175407409668,-78.155517578125,49.8046875,-4.547119140625
17.7099999,-2.6408045291900635,-7.785943984985352,4.774038314819336,-124.420166015625,40.130615234375,-12.5579833984375
17.7299999,-2.647987127304077,-8.018181800842285,4.661510944366455,-267.974853515625,39.2608642578125,-37.65869140625
17.749999900000002,-2.676717519760132,-8.238448143005371,4.395754337310791,-246.673583984375,50.1251220703125,-41.4886474609375
17.769999900000002,-2.7246015071868896,-8.674192428588867,3.8522706031799316,-143.85986328125,40.679931640625,-18.157958984375
17.7899999,-2.808398485183716,-9.059659004211426,3.466804027557373,-248.4283447265625,63.0950927734375,-45.7305908203125
17.8099999,-2.8562827110290527,-9.248801231384277,3.1483752727508545,-248.7335205078125,85.2508544921875,-69.27490234375
17.8299999,-2.7940332889556885,-9.437943458557129,2.6815059185028076,-113.5711669921875,24.2156982421875,-14.58740234375
17.8499999,-2.786850690841675,-9.47146224975586,2.0374655723571777,-122.7264404296875,-10.0555419921875,5.2490234375
17.8699999,-2.7246015071868896,-9.445125579833984,1.2832920551300049,-208.67919921875,55.17578125,-17.27294921875
17.8899999,-2.5953147411346436,-9.615114212036133,0.5147533416748047,-152.89306640625,90.4388427734375,1.617431640625
17.909999900000003,-2.52109432220459,-9.770736694335938,-0.12449848651885986,-69.0460205078125,19.378662109375,9.3536376953125
17.929999900000002,-2.3942017555236816,-9.832986831665039,-0.3064578175544739,-54.7027587890625,0.946044921875,-6.378173828125
17.9499999,-2.3271639347076416,-9.761159896850586,-0.5530605912208557,-53.0242919921875,12.6953125,-10.7421875
17.9699999,-2.276885747909546,-9.670180320739746,-0.727837324142456,-11.8865966796875,2.86865234375,13.824462890625
17.9899999,-2.3271639347076416,-9.50737476348877,-1.048660397529602,56.060791015625,-29.23583984375,29.84619140625
18.0099999,-2.3750481605529785,-9.490615844726562,-1.4269442558288574,48.8739013671875,-41.44287109375,25.5584716796875
18.0299999,-2.454056739807129,-9.651026725769043,-1.7932571172714233,14.617919921875,5.126953125,12.2528076171875
18.0499999,-2.52109432220459,-9.832986831665039,-1.9560627937316895,-4.150390625,36.102294921875,-0.732421875
18.0699999,-2.5258827209472656,-10.180145263671875,-1.8411411046981812,5.8746337890625,-7.0037841796875,-0.1068115234375
18.089999900000002,-2.5258827209472656,-10.359710693359375,-1.501164436340332,11.1236572265625,-39.5660400390625,-3.326416015625
18.109999900000002,-2.473210334777832,-10.548852920532227,-1.4772224426269531,11.3525390625,-36.7279052734375,-8.97216796875
18.1299999,-2.410961151123047,-10.797849655151367,-1.843535304069519,-24.4903564453125,-1.220703125,-2.593994140625
18.1499999,-2.3104045391082764,-11.204863548278809,-2.497152328491211,-73.3795166015625,25.08544921875,15.0146484375
18.1699999,-2.252943754196167,-11.930307388305664,-2.9472622871398926,-72.1588134765625,29.693603515625,14.9078369140625
18.1899999,-2.1164743900299072,-13.220781326293945,-3.0885202884674072,-64.3768310546875,27.9388427734375,10.345458984375
18.2099999,-2.070984363555908,-14.896722793579102,-3.1914708614349365,-36.346435546875,0.152587890625,-13.97705078125
18.2299999,-2.0374655723571777,-17.19276237487793,-3.24414324760437,-58.563232421875,10.1165771484375,-38.3148193359375
18.249999900000002,-2.1164743900299072,-19.464859008789062,-3.047818660736084,-92.9412841796875,81.5582275390625,-84.6099853515625
18.269999900000002,-2.473210334777832,-20.760122299194336,-2.9065608978271484,-84.5947265625,78.8421630859375,-172.3785400390625
18.2899999,-2.8634653091430664,-21.179107666015625,-2.47560453414917,-39.3829345703125,47.0428466796875,-182.6934814453125
18.3099999,-3.3949780464172363,-20.238187789916992,-1.6328455209732056,-12.87841796875,83.8623046875,-175.7965087890625
18.3299999,-3.8594532012939453,-18.567033767700195,-0.7206547260284424,-5.9814453125,74.310302734375,-222.4273681640625
18.3499999,-4.223371982574463,-16.814477920532227,0.4165911078453064,23.5595703125,17.39501953125,-253.082275390625
18.3699999,-4.599261283874512,-14.966155052185059,1.647210717201233,60.9588623046875,-12.0086669921875,-282.012939453125
18.3899999,-5.116408824920654,-12.473791122436523,2.736572504043579,57.2662353515625,-30.2581787109375,-325.439453125
18.409999900000003,-5.657498836517334,-9.351752281188965,2.8658595085144043,30.0140380859375,-106.3690185546875,-300.0335693359375
18.429999900000002,-6.026205539703369,-5.846640586853027,3.1220390796661377,-12.542724609375,-95.3826904296875,-210.9222412109375
18.4499999,-6.2416839599609375,-2.140416383743286,3.550601005554199,-2.38037109375,-42.449951171875,-157.1197509765625
18.4699999,-6.402095317840576,1.5729905366897583,5.035006046295166,19.2108154296875,-104.4769287109375,-163.8641357421875
18.4899999,-6.732495307922363,4.426878929138184,6.766014099121094,81.4666748046875,-276.06201171875,-66.9708251953125
18.5099999,-7.436390399932861,6.873753070831299,8.106766700744629,126.6937255859375,-382.9193115234375,29.0069580078125
18.5299999,-8.468291282653809,8.183381080627441,7.465120792388916,87.493896484375,-448.822021484375,81.60400390625
18.5499999,-9.567230224609375,8.259995460510254,3.9600095748901367,72.3114013671875,-500,155.45654296875
18.5699999,-10.077195167541504,6.555324077606201,-2.1380221843719482,63.5833740234375,-454.6051025390625,272.4456787109375
18.589999900000002,-10.134655952453613,3.971980571746826,-8.59997272491455,-24.7802734375,-236.0076904296875,297.2259521484375
18.609999900000002,-9.854534149169922,0.9576807022094727,-14.765042304992676,-122.161865234375,-112.4114990234375,248.504638671875
18.6299999,-9.466673851013184,-2.8850131034851074,-20.11129379272461,-155.1513671875,-223.114013671875,354.339599609375
18.6499999,-9.428366661071777,-6.931213855743408,-22.888568878173828,-121.6278076171875,-59.539794921875,406.097412109375
18.6699999,-9.730035781860352,-10.737994194030762,-25.017013549804688,-46.6766357421875,186.70654296875,331.085205078125
18.6899999,-10.845733642578125,-14.683638572692871,-26.724079132080078,-49.0264892578125,149.59716796875,266.8609619140625
18.7099999,-11.774683952331543,-19.637243270874023,-26.283546447753906,-172.454833984375,309.99755859375,374.603271484375
18.7299999,-12.557587623596191,-23.965959548950195,-23.934833526611328,-237.396240234375,499.9847412109375,270.8282470703125
18.749999900000002,-12.337321281433105,-28.227638244628906,-19.45049476623535,-154.1748046875,454.010009765625,8.5296630859375
18.769999900000002,-11.05402946472168,-29.88921356201172,-12.76109504699707,7.4310302734375,264.617919921875,-170.7000732421875
18.7899999,-9.272743225097656,-26.37452507019043,-5.628767967224121,-88.7603759765625,241.5313720703125,-314.7125244140625
18.8099999,-7.481880187988281,-18.928558349609375,0.20350714027881622,-167.938232421875,130.828857421875,-254.8828125
18.8299999,-5.726930618286133,-9.734824180603027,4.07014274597168,-51.1627197265625,34.8358154296875,-49.0875244140625
18.8499999,-4.14915132522583,-1.5107412338256836,5.8203043937683105,21.0113525390625,6.9122314453125,-10.07080078125
18.8699999,-2.5522189140319824,3.337517261505127,5.25527286529541,19.317626953125,-21.42333984375,-37.4603271484375
18.8899999,-1.2617442607879639,5.013458251953125,2.9664158821105957,-27.34375,-60.60791015625,-36.4837646484375
18.909999900000003,-0.5027823448181152,4.924872875213623,-0.5506663918495178,-91.9036865234375,-58.746337890625,-42.8314208984375
18.929999900000002,-0.15562310814857483,3.8977603912353516,-4.098873138427734,-87.646484375,19.073486328125,1.9378662109375
18.9499999,0.038307227194309235,2.3726539611816406,-6.852205276489258,-58.59375,52.947998046875,73.1353759765625
18.9699999,0.20350714027881622,0.5961562395095825,-8.40843677520752,8.2855224609375,-7.1868896484375,65.2313232421875
18.9899999,0.33997663855552673,-1.1420341730117798,-9.078812599182129,74.3560791015625,-71.746826171875,-1.4495849609375
19.0099999,0.40462008118629456,-2.5498247146606445,-9.490615844726562,70.892333984375,-74.493408203125,-20.3399658203125
19.0299999,0.2849099934101105,-3.5027170181274414,-10.189722061157227,37.7655029296875,-43.0450439453125,20.8282470703125
19.0499999,0.090979665517807,-3.9671921730041504,-10.934319496154785,-7.080078125,-7.6904296875,30.7159423828125
19.0699999,-0.12449848651885986,-4.194641590118408,-11.463438034057617,-10.223388671875,0.7171630859375,-0.8544921875
19.089999900000002,-0.2944868206977844,-4.271255970001221,-11.626243591308594,11.3677978515625,-1.2359619140625,-4.486083984375
19.109999900000002,-0.33279404044151306,-4.436455726623535,-11.259930610656738,5.3558349609375,14.3280029296875,36.773681640625
19.1299999,-0.31603461503982544,-4.206612586975098,-10.56800651550293,-1.52587890625,15.9149169921875,3.2196044921875
19.1499999,-0.31364041566848755,-3.957615375518799,-10.050858497619629,63.96484375,-44.98291015625,-51.2542724609375
19.1699999,-0.27054479718208313,-3.928884983062744,-9.428366661071777,106.4300537109375,-40.34423828125,-16.204833984375
19.1899999,-0.49799394607543945,-3.4141316413879395,-9.545681953430176,23.6053466796875,3.1585693359375,6.500244140625
19.2099999,-0.6200982332229614,-3.507505416870117,-9.476250648498535,-34.1796875,66.89453125,56.0150146484375
19.2299999,-0.689530074596405,-3.4524388313293457,-9.349357604980469,0.396728515625,69.3817138671875,40.71044921875
19.249999900000002,-0.6703764796257019,-3.514688014984131,-9.062053680419922,0.8392333984375,-9.6435546875,4.0130615234375
19.269999900000002,-0.4692635238170624,-3.883395195007324,-8.473079681396484,9.796142578125,-19.195556640625,29.0985107421875
19.2899999,-0.31124621629714966,-4.266467571258545,-8.001421928405762,29.35791015625,1.9378662109375,32.0587158203125
19.3099999,-0.272938996553421,-4.4077253341674805,-7.802703380584717,42.9534912109375,-23.2696533203125,-27.9083251953125
19.3299999,-0.35913026332855225,-4.414907932281494,-7.876923561096191,51.3763427734375,-58.89892578125,-34.36279296875
19.3499999,-0.45250412821769714,-4.321534156799316,-8.178592681884766,38.8946533203125,-47.66845703125,28.9459228515625
19.3699999,-0.6607996821403503,-4.022258758544922,-8.710105895996094,13.763427734375,-24.3988037109375,17.486572265625
19.3899999,-0.8259995579719543,-3.825934410095215,-9.172186851501465,-2.0751953125,-11.627197265625,-16.4031982421875
19.409999900000003,-0.8571242094039917,-4.005499362945557,-9.41639518737793,11.016845703125,-3.72314453125,23.345947265625
19.429999900000002,-0.9050082564353943,-4.127603530883789,-9.26795482635498,20.20263671875,0.2288818359375,29.84619140625
19.4499999,-0.9169792532920837,-4.32871675491333,-8.937555313110352,26.91650390625,-19.04296875,-13.458251953125
19.4699999,-0.9193734526634216,-4.661510944366455,-8.652645111083984,50.9033203125,-53.955078125,-12.4359130859375
19.4899999,-0.9169792532920837,-5.082890033721924,-8.47786808013916,53.8787841796875,-43.4722900390625,6.683349609375
19.5099999,-0.8619126081466675,-5.702988624572754,-8.56645393371582,40.9393310546875,-0.823974609375,-22.7508544921875
19.5299999,-0.8667010068893433,-5.91128396987915,-8.96149730682373,4.425048828125,17.547607421875,-107.60498046875
19.5499999,-0.8619126081466675,-5.96874475479126,-9.435548782348633,-23.3154296875,25.6805419921875,-118.3013916015625
19.5699999,-0.8523358106613159,-5.815515995025635,-9.828198432922363,-43.853759765625,64.1937255859375,-36.5753173828125
19.589999900000002,-0.8882488012313843,-5.224148273468018,-10.096348762512207,-86.700439453125,102.569580078125,-37.3077392578125
19.609999900000002,-0.7589619159698486,-4.807557106018066,-9.737217903137207,-105.377197265625,119.32373046875,-54.4891357421875
19.6299999,-0.5099649429321289,-4.469974517822266,-9.418789863586426,-41.8853759765625,83.80126953125,-2.0904541015625
19.6499999,-0.24899697303771973,-3.869029998779297,-9.363722801208496,-69.000244140625,55.0384521484375,25.4058837890625
19.6699999,0.028730420395731926,-3.598485231399536,-9.660603523254395,-204.8797607421875,122.1923828125,50.5523681640625
19.6899999,0.3280056416988373,-3.3207578659057617,-10.067618370056152,-336.2274169921875,165.7867431640625,79.3914794921875
19.7099999,0.6224924325942993,-3.069366693496704,-9.909601211547852,-294.677734375,137.87841796875,86.456298828125
19.7299999,1.0342950820922852,-2.920926094055176,-9.222464561462402,-151.55029296875,48.004150390625,101.1962890625
19.749999900000002,1.4915876388549805,-2.6216509342193604,-8.29830265045166,-74.920654296875,-10.2386474609375,62.9730224609375
19.769999900000002,1.821987509727478,-1.886630892753601,-7.644686222076416,-31.92138671875,-15.472412109375,20.08056640625
19.7899999,2.140416383743286,-1.3215993642807007,-7.546523571014404,29.7698974609375,-26.2298583984375,52.9632568359375
19.8099999,2.2242133617401123,-0.6512228846549988,-7.7643961906433105,70.8465576171875,-52.5665283203125,74.8291015625
19.8299999,2.006340980529785,-0.1843535304069519,-8.034940719604492,120.2545166015625,-39.306640625,38.726806640625
19.8499999,1.8938134908676147,-0.6033388376235962,-8.69095230102539,93.26171875,-94.7113037109375,47.0123291015625
19.8699999,1.4844050407409668,-0.9265560507774353,-8.975862503051758,51.3763427734375,-55.0537109375,43.5028076171875
19.8899999,1.2641384601593018,-1.5825673341751099,-9.813833236694336,60.943603515625,-56.7626953125,32.1197509765625
19.909999900000003,1.0654197931289673,-1.965639591217041,-10.280701637268066,18.9666748046875,-41.8548583984375,33.8592529296875
19.929999900000002,0.9002198576927185,-2.279279947280884,-10.556035041809082,-30.3192138671875,1.5106201171875,19.0582275390625
19.9499999,0.7206547260284424,-2.535459518432617,-10.615890502929688,-16.448974609375,-20.56884765625,3.753662109375
19.9699999,0.5554547905921936,-2.894589900970459,-10.105925559997559,8.8958740234375,-29.3121337890625,10.92529296875
19.9899999,0.37828385829925537,-2.9664158821105957,-9.617507934570312,29.1900634765625,-29.815673828125,-6.0882568359375
20.0099999,0.272938996553421,-2.7676970958709717,-9.3828763961792,36.529541015625,-28.5491943359375,-20.9503173828125
20.0299999,0.2298433631658554,-2.4229321479797363,-9.299078941345215,1.8768310546875,-2.8076171875,1.89208984375
20.0499999,0.2561795711517334,-2.1356279850006104,-9.469067573547363,-10.31494140625,2.5482177734375,17.27294921875
20.0699999,0.2968810200691223,-1.946485996246338,-9.533711433410645,10.040283203125,-9.6893310546875,2.288818359375
20.089999900000002,0.40222588181495667,-2.319981336593628,-9.627084732055664,22.308349609375,-20.355224609375,4.241943359375
20.109999900000002,0.33039984107017517,-2.693476915359497,-9.66539192199707,0.640869140625,-1.220703125,-22.247314453125
