# Time (seconds),Accel_X,Accel_Y,Accel_Z,Gyro_X,Gyro_Y,Gyro_Z
0.0099999,9.66299819946289,1.8698714971542358,-0.090979665517807,5.2947998046875,-7.8125,5.0048828125
0.029999900000000003,9.617507934570312,1.7381904125213623,-0.13168109953403473,3.4637451171875,-5.0201416015625,5.2642822265625
0.0499999,9.552865028381348,1.6280571222305298,-0.23702596127986908,-0.67138671875,-0.3509521484375,3.7384033203125
0.0699999,9.500192642211914,1.5514427423477173,-0.42377370595932007,1.4801025390625,-1.708984375,1.0223388671875
0.08999990000000001,9.476250648498535,1.5514427423477173,-0.5889736413955688,2.2735595703125,-0.1678466796875,-0.457763671875
0.10999990000000001,9.488221168518066,1.599326729774475,-0.6823474764823914,-0.518798828125,6.4544677734375,3.0364990234375
0.1299999,9.528923034667969,1.6663644313812256,-0.6631938815116882,0.0457763671875,9.490966796875,5.1422119140625
0.14999990000000002,9.579200744628906,1.7357962131500244,-0.5650315880775452,3.265380859375,3.753662109375,3.082275390625
0.1699999,9.62947940826416,1.7357962131500244,-0.38067805767059326,-0.5035400390625,1.556396484375,3.082275390625
0.1899999,9.643844604492188,1.7860745191574097,-0.26336219906806946,-0.9002685546875,2.288818359375,1.617431640625
0.20999990000000002,9.636661529541016,1.8124107122421265,-0.21547815203666687,0,3.0059814453125,1.556396484375
0.2299999,9.617507934570312,1.8746598958969116,-0.2346317619085312,-3.47900390625,6.011962890625,4.5013427734375
0.2499999,9.59835433959961,1.9512743949890137,-0.20111294090747833,-6.2103271484375,9.2010498046875,3.2806396484375
0.2699999,9.588777542114258,1.9967641830444336,-0.14604631066322327,-2.4261474609375,7.3394775390625,4.69970703125
0.28999990000000003,9.57201862335205,1.9800047874450684,-0.0071826050989329815,0.152587890625,3.021240234375,5.5694580078125
0.3099999,9.53849983215332,1.8531121015548706,0.038307227194309235,5.6610107421875,-2.1820068359375,4.1351318359375
0.3299999,9.495404243469238,1.6543933153152466,0.05267243832349777,3.5858154296875,0.030517578125,-0.152587890625
0.34999990000000003,9.461885452270508,1.3934253454208374,-0.05506663769483566,-0.5645751953125,1.9989013671875,-1.922607421875
0.3699999,9.457097053527832,1.1971008777618408,-0.17477671802043915,-2.4261474609375,-0.1068115234375,-2.197265625
0.3899999,9.488221168518066,1.1300631761550903,-0.2825157940387726,-0.152587890625,0.6256103515625,-4.180908203125
0.40999990000000003,9.548076629638672,1.1971008777618408,-0.30885201692581177,-1.678466796875,1.678466796875,-4.5318603515625
0.4299999,9.610325813293457,1.3910311460494995,-0.3208230137825012,-2.960205078125,0.030517578125,-3.4942626953125
0.4499999,9.658209800720215,1.6711528301239014,-0.29209262132644653,-4.0740966796875,-1.64794921875,-2.8533935546875
0.4699999,9.68933391571045,1.946485996246338,-0.22744916379451752,-1.4801025390625,2.7923583984375,-1.0223388671875
0.4899999,9.696516990661621,2.1380221843719482,-0.16998831927776337,3.570556640625,3.631591796875,1.617431640625
0.5099999,9.68694019317627,2.2433669567108154,-0.035913024097681046,3.0059814453125,3.9520263671875,1.495361328125
0.5299999,9.674968719482422,2.097320795059204,0.3471592366695404,6.8206787109375,0.1678466796875,2.1209716796875
0.5499999,9.677363395690918,1.9297266006469727,0.5003881454467773,3.47900390625,-3.1585693359375,0.701904296875
0.5699999,9.682151794433594,1.7884687185287476,0.586579442024231,1.3427734375,-4.0130615234375,-1.4190673828125
0.5899998999999999,9.68933391571045,1.6831238269805908,0.5578489899635315,-0.274658203125,-4.8980712890625,-1.190185546875
0.6099998999999999,9.679757118225098,1.6400281190872192,0.4596867263317108,-2.0599365234375,-6.7596435546875,-0.8544921875
0.6299999,9.655815124511719,1.6328455209732056,0.2992752194404602,-2.960205078125,-8.392333984375,-2.62451171875
0.6499999,9.617507934570312,1.6065093278884888,0.10534487664699554,-3.5552978515625,-8.85009765625,-5.2490234375
0.6699999,9.57441234588623,1.599326729774475,-0.14844051003456116,-1.9683837890625,-9.857177734375,-8.8958740234375
0.6899999,9.548076629638672,1.5945383310317993,-0.3902548849582672,-5.1422119140625,-7.080078125,-10.345458984375
0.7099999,9.545681953430176,1.6400281190872192,-0.6416460275650024,-6.5460205078125,-3.5552978515625,-9.58251953125
0.7299998999999999,9.57441234588623,1.745373010635376,-0.7805097699165344,-9.46044921875,2.6397705078125,-7.904052734375
0.7499998999999999,9.63187313079834,1.8746598958969116,-0.8427590131759644,-6.500244140625,4.57763671875,-4.8065185546875
0.7699999,9.710882186889648,2.0207061767578125,-0.7661445140838623,-3.662109375,5.0506591796875,-3.0517578125
0.7899999,9.782708168029785,2.1595699787139893,-0.6248866319656372,-1.861572265625,4.57763671875,-2.410888671875
0.8099999,9.832986831665039,2.2577321529388428,-0.45250412821769714,-2.7008056640625,3.6773681640625,0.7171630859375
0.8299999,9.835380554199219,2.3056161403656006,-0.272938996553421,-3.7384033203125,4.3792724609375,3.082275390625
0.8499998999999999,9.787496566772461,2.2601263523101807,-0.1364694982767105,0.1983642578125,2.227783203125,3.631591796875
0.8699998999999999,9.68933391571045,2.1380221843719482,-0.06703764945268631,-1.495361328125,-0.06103515625,2.25830078125
0.8899999,9.57201862335205,1.9536685943603516,-0.043095629662275314,-4.6539306640625,1.5106201171875,1.007080078125
0.9099999,9.459490776062012,1.778891921043396,-0.10055647045373917,-3.4332275390625,2.38037109375,-0.2899169921875
0.9299999,9.378087997436523,1.6328455209732056,-0.13168109953403473,-6.134033203125,3.4027099609375,-0.7171630859375
0.9499999,9.342175483703613,1.5466543436050415,-0.1604115068912506,-4.45556640625,2.3193359375,-2.288818359375
0.9699998999999999,9.351752281188965,1.5203180313110352,-0.17238251864910126,-2.593994140625,-0.6866455078125,-5.157470703125
0.9899998999999999,9.399636268615723,1.556231141090393,-0.19632454216480255,-5.5389404296875,-0.2899169921875,-6.34765625
1.0099999,9.459490776062012,1.6424223184585571,-0.24181437492370605,-9.9945068359375,1.3275146484375,-5.9356689453125
1.0299999,9.528923034667969,1.778891921043396,-0.3016694188117981,-10.1165771484375,1.708984375,-6.3629150390625
1.0499999,9.59596061706543,1.920149803161621,-0.33758243918418884,-6.2103271484375,2.25830078125,-5.7830810546875
1.0699999,9.655815124511719,2.0470423698425293,-0.33039984107017517,-5.2337646484375,3.41796875,-4.3182373046875
1.0899999,9.706093788146973,2.1380221843719482,-0.2968810200691223,-3.662109375,2.655029296875,-3.509521484375
1.1099999,9.737217903137207,2.1787235736846924,-0.2346317619085312,-0.42724609375,2.3956298828125,-2.50244140625
1.1299999,9.751583099365234,2.1739351749420166,-0.16519992053508759,0.9613037109375,1.953125,-2.5482177734375
1.1499999,9.742006301879883,2.140416383743286,-0.13168109953403473,1.5716552734375,0.5645751953125,-2.471923828125
1.1699998999999999,9.72285270690918,2.1140801906585693,-0.11971008777618408,0.8697509765625,1.007080078125,-2.197265625
1.1899998999999999,9.691728591918945,2.097320795059204,-0.12928688526153564,-1.1138916015625,2.1209716796875,-1.5411376953125
1.2099999,9.660603523254395,2.0901381969451904,-0.16519992053508759,-0.518798828125,1.3427734375,-0.823974609375
1.2299999,9.624691009521484,2.099714994430542,-0.19871874153614044,-3.0364990234375,0.885009765625,-1.3580322265625
1.2499999,9.588777542114258,2.1164743900299072,-0.22744916379451752,-5.5999755859375,2.3040771484375,-1.800537109375
1.2699999,9.550470352172852,2.140416383743286,-0.24181437492370605,-7.2479248046875,3.4942626953125,-1.3275146484375
1.2899999,9.524134635925293,2.1523873805999756,-0.2059013396501541,-5.06591796875,4.0283203125,-0.396728515625
1.3099999,9.50498104095459,2.1739351749420166,-0.1364694982767105,-0.8392333984375,2.25830078125,-1.77001953125
1.3299999,9.500192642211914,2.1763293743133545,-0.05746084079146385,2.4871826171875,0.8544921875,-2.0599365234375
1.3499999,9.50498104095459,2.1930887699127197,0.0071826050989329815,2.25830078125,1.4801025390625,-1.5106201171875
1.3699999,9.526528358459473,2.1787235736846924,0.05746084079146385,0.7171630859375,2.471923828125,0.3662109375
1.3899999,9.550470352172852,2.164358377456665,0.07900865375995636,1.922607421875,0.946044921875,-0.640869140625
1.4099999,9.569623947143555,2.123656988143921,0.0694318488240242,3.204345703125,-1.220703125,-2.3956298828125
1.4299998999999999,9.586383819580078,2.073378562927246,0.05746084079146385,-1.617431640625,0.396728515625,-1.556396484375
1.4499999,9.591172218322754,2.0422539710998535,0.004788403399288654,-1.2054443359375,0.9002685546875,-2.13623046875
1.4699999,9.600749015808105,2.0374655723571777,-0.0454898327589035,0.5035400390625,-0.213623046875,-3.082275390625
1.4899999,9.615114212036133,2.0661959648132324,-0.0933738648891449,-1.312255859375,0.5035400390625,-2.838134765625
1.5099999,9.634267807006836,2.1116859912872314,-0.1173158809542656,-3.326416015625,1.7852783203125,-0.7476806640625
1.5299999,9.655815124511719,2.161964178085327,-0.1149216815829277,-1.9378662109375,1.3275146484375,-0.3662109375
1.5499999,9.66539192199707,2.1954829692840576,-0.1173158809542656,5.401611328125,-0.6103515625,-1.4801025390625
1.5699999,9.660603523254395,2.2146365642547607,-0.10295066982507706,8.5906982421875,2.044677734375,-1.5411376953125
1.5899999,9.643844604492188,2.2146365642547607,-0.12449848651885986,1.1444091796875,1.861572265625,0.030517578125
1.6099999,9.615114212036133,2.22660756111145,-0.1412578970193863,0.9307861328125,1.5716552734375,-0.3814697265625
1.6299999,9.588777542114258,2.2242133617401123,-0.1604115068912506,3.204345703125,1.556396484375,-0.2899169921875
1.6499999,9.567230224609375,2.2218191623687744,-0.1604115068912506,2.532958984375,1.5411376953125,0.030517578125
1.6699999,9.555258750915527,2.205059766769409,-0.1412578970193863,2.44140625,2.3956298828125,0.274658203125
1.6899998999999999,9.552865028381348,2.2002713680267334,-0.12689268589019775,3.6163330078125,0.8392333984375,-0.5035400390625
1.7099999,9.557653427124023,2.185906171798706,-0.08858546614646912,1.800537109375,0.8697509765625,-0.18310546875
1.7299999,9.5624418258667,2.169146776199341,-0.07900865375995636,0.885009765625,-0.091552734375,0.8392333984375
1.7499999,9.564835548400879,2.164358377456665,-0.07900865375995636,1.2054443359375,-0.732421875,-0.5035400390625
1.7699999,9.560047149658203,2.1523873805999756,-0.12928688526153564,2.1820068359375,-0.762939453125,-0.518798828125
1.7899999,9.545681953430176,2.142810583114624,-0.1843535304069519,-1.129150390625,1.0986328125,0.274658203125
1.8099999,9.531316757202148,2.140416383743286,-0.24660277366638184,-0.9307861328125,1.9989013671875,-0.0152587890625
1.8299999,9.519346237182617,2.1380221843719482,-0.2753331959247589,0.091552734375,1.8768310546875,-0.6866455078125
1.8499999,9.521739959716797,2.1308395862579346,-0.26575639843940735,0.3662109375,2.7618408203125,-0.152587890625
1.8699999,9.531316757202148,2.1356279850006104,-0.22744916379451752,1.373291015625,2.410888671875,-0.396728515625
1.8899999,9.550470352172852,2.1356279850006104,-0.181959331035614,0.7171630859375,1.190185546875,-0.67138671875
1.9099999,9.57441234588623,2.161964178085327,-0.1412578970193863,-1.52587890625,1.0528564453125,-1.2054443359375
1.9299998999999999,9.593565940856934,2.183511972427368,-0.1364694982767105,0.885009765625,0.9613037109375,-0.1068115234375
1.9499999,9.603142738342285,2.209848165512085,-0.14604631066322327,2.532958984375,1.0833740234375,0.42724609375
1.9699999,9.605537414550781,2.231395959854126,-0.17238251864910126,1.3580322265625,1.8310546875,0.152587890625
1.9899999,9.59596061706543,2.248155355453491,-0.19871874153614044,0.67138671875,1.46484375,0.0457763671875
2.0099999,9.583989143371582,2.2577321529388428,-0.2082955539226532,0.9765625,1.9378662109375,0.7781982421875
2.0299999,9.576807022094727,2.252943754196167,-0.19632454216480255,2.4261474609375,2.4261474609375,1.678466796875
2.0499999,9.57201862335205,2.2409727573394775,-0.16998831927776337,0.701904296875,1.9073486328125,0.8697509765625
2.0699999,9.57201862335205,2.209848165512085,-0.11013327538967133,-2.01416015625,2.044677734375,0.8544921875
2.0899999,9.576807022094727,2.1787235736846924,-0.06703764945268631,0.3204345703125,0.4425048828125,1.3427734375
2.1099999,9.576807022094727,2.1547815799713135,-0.026336219161748886,0.3204345703125,0.213623046875,0.91552734375
2.1299999,9.57441234588623,2.1308395862579346,-0.014365210197865963,-0.3509521484375,0.274658203125,0.6561279296875
2.1499999,9.5624418258667,2.1164743900299072,-0.05985504388809204,1.312255859375,-0.152587890625,0.5340576171875
2.1699999,9.550470352172852,2.1092917919158936,-0.10055647045373917,-0.3204345703125,1.678466796875,0.4730224609375
2.1899999,9.543288230895996,2.10210919380188,-0.15801730751991272,-1.922607421875,2.3040771484375,0.946044921875
2.2099999,9.53849983215332,2.097320795059204,-0.16759411990642548,-2.01416015625,2.3345947265625,0.7171630859375
2.2299999,9.53849983215332,2.0877439975738525,-0.17477671802043915,0.2899169921875,0.6866455078125,0.3204345703125
2.2499999,9.545681953430176,2.0829553604125977,-0.1412578970193863,-1.9378662109375,1.6632080078125,-0.06103515625
2.2699999,9.555258750915527,2.0877439975738525,-0.12689268589019775,-1.0833740234375,1.9378662109375,0.091552734375
2.2899999,9.5624418258667,2.1116859912872314,-0.11013327538967133,-1.556396484375,1.3275146484375,0.274658203125
2.3099999,9.57441234588623,2.142810583114624,-0.08619125932455063,-2.3040771484375,1.5869140625,0.6256103515625
2.3299999,9.583989143371582,2.1715409755706787,-0.06703764945268631,-0.1983642578125,0.9765625,0.701904296875
2.3499999,9.588777542114258,2.2002713680267334,-0.06703764945268631,1.312255859375,-0.030517578125,0.42724609375
2.3699999,9.591172218322754,2.209848165512085,-0.06703764945268631,-0.6256103515625,0.8544921875,0.8392333984375
2.3899999,9.588777542114258,2.2146365642547607,-0.08379705995321274,-1.2969970703125,0.823974609375,1.251220703125
2.4099999,9.586383819580078,2.1930887699127197,-0.10773907601833344,-0.8697509765625,0.2899169921875,1.617431640625
2.4299999,9.581595420837402,2.1499931812286377,-0.0933738648891449,-1.6632080078125,0.9765625,1.6326904296875
2.4499999,9.579200744628906,2.099714994430542,-0.1149216815829277,2.105712890625,-0.79345703125,0.518798828125
2.4699999,9.569623947143555,2.056619167327881,-0.12210428714752197,0.244140625,-0.5950927734375,0.06103515625
2.4899999,9.5624418258667,2.0231003761291504,-0.15083470940589905,-3.143310546875,1.434326171875,1.068115234375
2.5099999,9.555258750915527,1.9967641830444336,-0.17477671802043915,-2.74658203125,1.89208984375,1.4495849609375
2.5299999,9.550470352172852,1.9752163887023926,-0.1867477297782898,-2.349853515625,0.9765625,-0.1220703125
2.5499999,9.543288230895996,1.9488801956176758,-0.19871874153614044,-1.03759765625,0.7781982421875,-0.6866455078125
2.5699999,9.531316757202148,1.9369091987609863,-0.18914192914962769,-3.4027099609375,2.4566650390625,-0.5950927734375
2.5899999,9.519346237182617,1.9512743949890137,-0.19393034279346466,-1.2969970703125,2.6092529296875,-1.220703125
2.6099999,9.512163162231445,1.9847931861877441,-0.1867477297782898,0.4730224609375,2.13623046875,-1.861572265625
2.6299999,9.512163162231445,2.030282974243164,-0.16998831927776337,-1.15966796875,3.0670166015625,-1.4190673828125
2.6499999,9.526528358459473,2.0829553604125977,-0.13407529890537262,-2.410888671875,3.143310546875,-0.91552734375
2.6699999,9.548076629638672,2.1308395862579346,-0.10534487664699554,1.0986328125,1.7852783203125,-1.5106201171875
2.6899999,9.57441234588623,2.169146776199341,-0.06464344263076782,0.823974609375,1.373291015625,-1.2359619140625
2.7099999,9.593565940856934,2.1739351749420166,-0.028730420395731926,-1.190185546875,1.708984375,-0.274658203125
2.7299999,9.593565940856934,2.1284453868865967,-0.0454898327589035,3.631591796875,0.091552734375,0.2593994140625
2.7499999,9.567230224609375,2.032677173614502,-0.07661445438861847,3.23486328125,-0.0152587890625,-1.1444091796875
2.7699999,9.519346237182617,1.8986018896102905,-0.15083470940589905,2.044677734375,1.312255859375,-2.899169921875
2.7899999,9.469067573547363,1.7501614093780518,-0.272938996553421,7.50732421875,1.40380859375,-3.5400390625
2.8099999,9.428366661071777,1.5729905366897583,-0.3902548849582672,9.5062255859375,3.90625,-2.1514892578125
2.8299999,9.397241592407227,1.3120225667953491,-0.507570743560791,11.9781494140625,7.598876953125,-0.54931640625
2.8499999,9.35893440246582,0.8954314589500427,-0.6823474764823914,18.707275390625,6.2255859375,1.3275146484375
2.8699999,9.30386734008789,0.27054479718208313,-0.8307880163192749,25.6195068359375,14.6942138671875,5.0048828125
2.8899999,9.241618156433105,-0.7493851184844971,-0.9768342971801758,33.7677001953125,23.7274169921875,11.962890625
2.9099999,9.239224433898926,-2.0207061767578125,-1.115697979927063,52.459716796875,28.076171875,4.302978515625
2.9299999,9.399636268615723,-3.3901896476745605,-1.091755986213684,48.6602783203125,38.604736328125,-16.3116455078125
2.9499999,9.828198432922363,-4.63517427444458,-0.8882488012313843,30.975341796875,50.6134033203125,-20.263671875
2.9699999,10.558429718017578,-5.559336185455322,-0.30885201692581177,16.021728515625,52.7191162109375,-17.4102783203125
2.9899999,11.511322021484375,-6.19379997253418,0.6512228846549988,39.5355224609375,42.236328125,-29.9835205078125
3.0099999,12.452242851257324,-6.5696892738342285,1.644816517829895,63.629150390625,-1.7547607421875,-64.422607421875
3.0299999,13.199234008789062,-6.349422931671143,1.6543933153152466,109.7869873046875,-58.4869384765625,-105.072021484375
3.0499999,13.615824699401855,-5.614402770996094,1.0869675874710083,93.3837890625,-11.8865966796875,-97.015380859375
3.0699999,13.618219375610352,-3.957615375518799,0.22505496442317963,-37.200927734375,29.0679931640625,-89.019775390625
3.0899999,12.97657299041748,-1.5610195398330688,-0.07900865375995636,-64.056396484375,-0.7171630859375,-98.8616943359375
3.1099999,11.465831756591797,0.8523358106613159,0.22266076505184174,-154.3121337890625,-51.666259765625,-80.2764892578125
3.1299999,8.89685344696045,3.184288263320923,0.2106897532939911,-246.246337890625,-24.9176025390625,-78.521728515625
3.1499999,5.3582234382629395,4.223371982574463,0.9911994934082031,-261.566162109375,132.01904296875,-107.879638671875
3.1699999,1.3431471586227417,5.382165431976318,1.9081788063049316,-128.509521484375,151.2451171875,-250.1373291015625
3.1899999,-1.9369091987609863,7.759607791900635,4.060565948486328,-2.6092529296875,61.4013671875,-369.6441650390625
3.2099999,-3.095702886581421,11.6430025100708,7.9631147384643555,-29.5257568359375,33.69140625,-310.9893798828125
3.2299999,-2.279279947280884,19.103334426879883,9.646238327026367,40.191650390625,-161.7431640625,-241.3330078125
3.2499999,-0.6392518281936646,24.92603302001953,6.600813865661621,414.3829345703125,-358.1390380859375,-52.9022216796875
3.2699999,0.9409212470054626,26.036943435668945,1.9345149993896484,345.52001953125,50.5828857421875,236.5570068359375
3.2899999,1.2832920551300049,21.954830169677734,-2.535459518432617,-103.1646728515625,379.94384765625,141.7388916015625
3.3099999,1.173158884048462,13.242329597473145,-3.6583402156829834,-86.1663818359375,144.3939208984375,-48.9654541015625
3.3299999000000002,1.4987702369689941,5.039794445037842,-0.47644615173339844,75.653076171875,-129.57763671875,-115.509033203125
3.3499999,2.3726539611816406,0.8954314589500427,2.5785553455352783,96.5423583984375,-183.3038330078125,-95.0927734375
3.3699999,3.5913026332855225,0.7876923680305481,2.612074136734009,93.505859375,-95.855712890625,-31.219482421875
3.3899999,4.6950297355651855,2.9903578758239746,0.7541735172271729,-30.487060546875,69.122314453125,9.9639892578125
3.4099999,5.5760955810546875,5.473145008087158,-1.482010841369629,-80.7952880859375,98.9837646484375,13.916015625
3.4299999,6.236895561218262,7.189787864685059,-1.9297266006469727,-56.70166015625,37.5518798828125,-4.9896240234375
3.4499999,6.648698329925537,8.106766700744629,-0.9528923034667969,-56.060791015625,-25.9552001953125,-19.04296875
3.4699999,6.821080684661865,8.494627952575684,0.2298433631658554,-17.8070068359375,-36.62109375,-15.0299072265625
3.4899999,6.775590896606445,8.650250434875488,0.8643068075180054,-18.5699462890625,-3.448486328125,-3.3111572265625
3.5099999,6.653486728668213,8.633491516113281,0.8068459630012512,-21.1181640625,20.1568603515625,6.77490234375
3.5299999,6.560112476348877,8.487444877624512,0.5506663918495178,-2.166748046875,20.56884765625,4.364013671875
3.5499999,6.5481414794921875,8.183381080627441,0.44771572947502136,9.5977783203125,12.3138427734375,2.6397705078125
3.5699999,6.5912370681762695,7.790732383728027,0.43335050344467163,11.2762451171875,3.0670166015625,5.6915283203125
3.5899999,6.6630635261535645,7.422025203704834,0.4812345504760742,3.8299560546875,3.8604736328125,3.936767578125
3.6099999,6.71334171295166,7.070077419281006,0.43335050344467163,-0.5340576171875,3.0517578125,-0.396728515625
3.6299999,6.761225700378418,6.885724067687988,0.3687070608139038,-1.7852783203125,4.3487548828125,-4.5166015625
3.6499999,6.809109687805176,6.9024834632873535,0.26336219906806946,-1.434326171875,2.5482177734375,-6.04248046875
3.6699999,6.835445880889893,7.115567684173584,0.16998831927776337,-3.7841796875,2.3193359375,-2.9754638671875
3.6899999,6.823474884033203,7.3454108238220215,0.13168109953403473,-3.84521484375,5.4931640625,5.5694580078125
3.7099999,6.754043102264404,7.501033782958984,0.05985504388809204,7.4005126953125,6.4697265625,9.33837890625
3.7299999,6.629544734954834,7.501033782958984,0.10055647045373917,1.434326171875,9.490966796875,4.94384765625
3.7499999,6.502651691436768,7.386112213134766,0.22505496442317963,-8.48388671875,13.458251953125,3.2806396484375
3.7699999,6.399701118469238,7.287950038909912,0.42856210470199585,-11.932373046875,5.2642822265625,2.8228759765625
3.7899999,6.339846134185791,7.225700855255127,0.667982280254364,-13.6871337890625,-2.777099609375,5.889892578125
3.8099999,6.3063273429870605,7.206547260284424,0.8092401623725891,-12.359619140625,-4.33349609375,5.6610107421875
3.8299999000000002,6.287173748016357,7.206547260284424,0.768538773059845,-8.7127685546875,-1.9073486328125,2.410888671875
3.8499999,6.291962146759033,7.19936466217041,0.6416460275650024,-7.2479248046875,5.4168701171875,1.190185546875
3.8699999,6.3302693367004395,7.220912456512451,0.4836287498474121,-11.199951171875,6.439208984375,-0.30517578125
3.8899999,6.411672115325928,7.273584842681885,0.43335050344467163,-16.5252685546875,3.3721923828125,-0.1068115234375
3.9099999,6.524199485778809,7.350199222564697,0.47405192255973816,-12.8936767578125,2.50244140625,2.1209716796875
3.9299999,6.631938934326172,7.419631004333496,0.5793967843055725,-11.8560791015625,-0.213623046875,4.08935546875
3.9499999,6.698976516723633,7.42681360244751,0.629675030708313,-9.0789794921875,-3.0364990234375,5.2642822265625
3.9699999,6.720524311065674,7.400477409362793,0.6392518281936646,-7.537841796875,-1.2054443359375,3.6163330078125
3.9899999,6.698976516723633,7.321468830108643,0.6129156351089478,-7.7972412109375,3.8299560546875,3.753662109375
4.0099999,6.643909931182861,7.242460250854492,0.5961562395095825,-7.7667236328125,2.7618408203125,4.8980712890625
4.029999900000001,6.564900875091553,7.15387487411499,0.6320692300796509,-5.3253173828125,0.335693359375,5.0048828125
4.0499999,6.473921298980713,7.058106422424316,0.6512228846549988,1.617431640625,-2.74658203125,3.021240234375
4.069999900000001,6.375759124755859,6.957550048828125,0.6440402865409851,-0.9613037109375,0.518798828125,0.2593994140625
4.0899999000000005,6.291962146759033,6.871358871459961,0.5674257874488831,-6.988525390625,4.119873046875,-1.5716552734375
4.1099999,6.248866558074951,6.828263282775879,0.47405192255973816,-8.819580078125,6.2713623046875,-3.5247802734375
4.1299999000000005,6.2632317543029785,6.912060260772705,0.5051765441894531,-9.2010498046875,9.58251953125,-6.622314453125
4.1499999,6.327875137329102,7.043741226196289,0.6033388376235962,-0.732421875,5.706787109375,-4.2572021484375
4.1699999000000005,6.406883716583252,7.218518257141113,0.6919242739677429,7.26318359375,-1.9378662109375,0.8697509765625
4.1899999,6.485892295837402,7.352593421936035,0.8379706144332886,-7.4462890625,3.35693359375,0.579833984375
4.209999900000001,6.538564682006836,7.3885064125061035,0.8762778043746948,-8.5601806640625,3.326416015625,-0.335693359375
4.2299999,6.567295074462891,7.364564418792725,0.8978256583213806,0.4425048828125,0.6256103515625,-0.5950927734375
4.249999900000001,6.586448669433594,7.314286231994629,0.9074024558067322,-1.1444091796875,1.6632080078125,-0.1678466796875
4.2699999,6.593631267547607,7.280767440795898,0.933738648891449,-8.697509765625,3.8909912109375,-0.1068115234375
4.289999900000001,6.593631267547607,7.254431247711182,0.9409212470054626,-6.927490234375,1.77001953125,0.885009765625
4.3099999,6.584054470062256,7.232883453369141,0.9768342971801758,-0.2288818359375,-0.091552734375,1.9378662109375
4.329999900000001,6.562506675720215,7.223306655883789,0.9864110946655273,-2.4566650390625,0.2899169921875,0.4730224609375
4.3499999,6.528987884521484,7.180211067199707,0.9840168952941895,-3.814697265625,2.0751953125,1.068115234375
4.369999900000001,6.495469093322754,7.134721279144287,0.9840168952941895,-3.082275390625,3.662109375,0.9307861328125
4.3899999,6.4595561027526855,7.0772600173950195,0.9744400978088379,2.5634765625,0.7476806640625,-0.2899169921875
4.409999900000001,6.435614109039307,7.017405033111572,1.0079588890075684,0.3814697265625,1.983642578125,-1.0223388671875
4.4299999,6.4380083084106445,6.983886241912842,1.0079588890075684,-0.1068115234375,0.8544921875,-2.1209716796875
4.449999900000001,6.4595561027526855,7.000645637512207,1.0271124839782715,-4.608154296875,1.617431640625,-2.8076171875
4.4699999,6.50025749206543,7.0557122230529785,1.0079588890075684,-3.1585693359375,1.739501953125,-2.01416015625
4.489999900000001,6.540958881378174,7.139509677886963,0.9840168952941895,-3.35693359375,3.662109375,-0.3509521484375
4.5099999,6.564900875091553,7.2352776527404785,0.9313444495201111,-4.5928955078125,5.5084228515625,-0.2899169921875
4.529999900000001,6.576871871948242,7.307103633880615,0.8930372595787048,-6.9732666015625,8.5601806640625,0.3814697265625
4.5499999,6.581660270690918,7.364564418792725,0.8403648138046265,-0.2593994140625,9.46044921875,1.708984375
4.569999900000001,6.581660270690918,7.400477409362793,0.8667010068893433,-2.8533935546875,11.1083984375,1.8310546875
4.5899999000000005,6.584054470062256,7.417236804962158,0.9265560507774353,-6.6375732421875,10.2386474609375,2.349853515625
4.609999900000001,6.576871871948242,7.429207801818848,1.0103530883789062,-1.2054443359375,6.28662109375,2.3345947265625
4.6299999000000005,6.557718276977539,7.429207801818848,1.1013327836990356,2.9296875,4.791259765625,2.8839111328125
4.6499999,6.528987884521484,7.407660007476807,1.161187767982483,0.6256103515625,4.2266845703125,4.180908203125
4.6699999000000005,6.48828649520874,7.405265808105469,1.1971008777618408,-1.6021728515625,2.349853515625,3.326416015625
4.6899999,6.449979305267334,7.359776020050049,1.2090718746185303,3.2958984375,0.0457763671875,5.523681640625
4.709999900000001,6.418854713439941,7.333439826965332,1.2330138683319092,5.0506591796875,-0.7171630859375,7.5225830078125
4.7299999,6.3949127197265625,7.295132637023926,1.2234370708465576,3.72314453125,-2.8228759765625,6.89697265625
4.749999900000001,6.385335922241211,7.228095054626465,1.2090718746185303,8.1024169921875,-3.5400390625,7.99560546875
4.7699999,6.387730121612549,7.146692276000977,1.2114660739898682,7.781982421875,-0.762939453125,8.0413818359375
4.789999900000001,6.392518520355225,7.041347026824951,1.2330138683319092,4.1046142578125,-0.6866455078125,5.4473876953125
4.8099999,6.382941722869873,6.912060260772705,1.3239935636520386,3.387451171875,-1.7547607421875,3.1890869140625
4.829999900000001,6.36378812789917,6.787561893463135,1.5514427423477173,2.99072265625,-4.730224609375,-1.0986328125
4.8499999,6.308721542358398,6.665457725524902,1.6735470294952393,12.4359130859375,-18.5546875,-5.8746337890625
4.869999900000001,6.2201361656188965,6.619967937469482,1.6711528301239014,5.5084228515625,-21.3775634765625,-10.0555419921875
4.8899999,6.1267619132995605,6.651092529296875,1.2976573705673218,-30.4718017578125,-10.223388671875,-9.796142578125
4.909999900000001,6.066906929016113,6.787561893463135,0.9026140570640564,-74.737548828125,14.70947265625,-3.84521484375
4.9299999,6.066906929016113,7.017405033111572,0.6703764796257019,-88.31787109375,20.050048828125,-3.0517578125
4.949999900000001,6.138733386993408,7.228095054626465,0.751779317855835,-54.840087890625,2.3193359375,-1.7242431640625
4.9699999,6.253654956817627,7.419631004333496,1.113303780555725,-30.364990234375,-5.79833984375,0.67138671875
4.989999900000001,6.36378812789917,7.5848307609558105,1.5059528350830078,-36.7584228515625,0.6561279296875,3.5552978515625
5.0099999,6.461950302124023,7.680599212646484,1.7501614093780518,-30.426025390625,4.7760009765625,11.474609375
5.029999900000001,6.538564682006836,7.7643961906433105,1.8100165128707886,-12.7410888671875,0,15.0146484375
5.0499999,6.610390663146973,7.745242595672607,1.7860745191574097,-4.5928955078125,3.021240234375,18.5699462890625
5.069999900000001,6.687005519866943,7.60637903213501,1.764526605606079,-10.101318359375,9.5062255859375,21.7742919921875
5.0899999000000005,6.780379295349121,7.395689010620117,1.8052281141281128,-13.275146484375,7.3699951171875,18.73779296875
5.109999900000001,6.878541469573975,7.1921820640563965,1.8986018896102905,1.7547607421875,-2.50244140625,13.2293701171875
5.1299999000000005,6.97430944442749,7.0772600173950195,1.9943699836730957,13.275146484375,-7.781982421875,12.2528076171875
5.1499999,7.046135425567627,7.103596210479736,2.10210919380188,-2.2125244140625,-3.0670166015625,14.007568359375
5.1699999000000005,7.062894821166992,7.204153060913086,2.0829553604125977,-0.5645751953125,-9.09423828125,18.49365234375
5.1899999,7.022193431854248,7.2568254470825195,2.0183119773864746,11.8560791015625,-14.251708984375,22.6287841796875
5.209999900000001,6.952761650085449,7.237671852111816,1.8579005002975464,7.5836181640625,-10.650634765625,20.4315185546875
5.2299999,6.8593878746032715,7.177816867828369,1.6903064250946045,-9.765625,-5.0048828125,16.3726806640625
5.249999900000001,6.785167694091797,7.084442615509033,1.5538369417190552,-1.0833740234375,-6.072998046875,18.798828125
5.2699999,6.751648902893066,7.005434036254883,1.5275006294250488,13.9312744140625,-10.1776123046875,22.5067138671875
5.289999900000001,6.761225700378418,6.926425457000732,1.5418659448623657,13.2904052734375,-11.749267578125,21.7742919921875
5.3099999,6.811503887176514,6.806715488433838,1.558625340461731,9.46044921875,-8.7127685546875,21.0113525390625
5.329999900000001,6.897695064544678,6.665457725524902,1.5442601442337036,14.46533203125,-5.889892578125,21.1334228515625
5.3499999,6.995857238769531,6.540958881378174,1.5107412338256836,14.4500732421875,-8.880615234375,20.538330078125
5.369999900000001,7.086836814880371,6.497863292694092,1.4700398445129395,4.2724609375,-10.92529296875,19.95849609375
5.3899999,7.180211067199707,6.473921298980713,1.3287819623947144,8.5601806640625,-10.162353515625,23.3612060546875
5.409999900000001,7.271190643310547,6.471527099609375,1.1779472827911377,11.199951171875,-2.3345947265625,27.3590087890625
5.4299999,7.359776020050049,6.402095317840576,1.015141487121582,13.9923095703125,1.5106201171875,28.4576416015625
5.449999900000001,7.441178798675537,6.2632317543029785,0.9552865028381348,9.3231201171875,-0.54931640625,26.1383056640625
5.4699999,7.536946773529053,6.088454723358154,0.9840168952941895,5.9814453125,-1.953125,24.2462158203125
5.489999900000001,7.618350028991699,5.954379558563232,1.070208191871643,-1.800537109375,-1.0528564453125,26.67236328125
5.5099999,7.704541206359863,5.805939197540283,1.048660397529602,4.82177734375,-3.6468505859375,30.70068359375
5.529999900000001,7.771578788757324,5.698200225830078,1.0821791887283325,4.058837890625,3.0975341796875,25.7415771484375
5.5499999,7.8314337730407715,5.600037574768066,1.0342950820922852,14.22119140625,2.838134765625,20.20263671875
5.569999900000001,7.879317760467529,5.525817394256592,0.9840168952941895,22.2320556640625,-1.6632080078125,23.101806640625
5.5899999000000005,7.922413349151611,5.523423194885254,1.0534487962722778,4.2724609375,5.584716796875,29.5562744140625
5.609999900000001,7.982268333435059,5.453991413116455,1.0678139925003052,8.5601806640625,3.662109375,33.050537109375
5.6299999000000005,8.034940719604492,5.398924827575684,1.1563993692398071,19.9127197265625,-0.732421875,26.4739990234375
5.6499999,8.087613105773926,5.252878665924072,1.158793568611145,19.134521484375,-4.150390625,24.2919921875
5.6699999000000005,8.135497093200684,5.1116204261779785,1.1109095811843872,14.22119140625,0.244140625,28.3966064453125
5.6899999,8.176198959350586,4.972756862640381,0.9744400978088379,12.9547119140625,3.5400390625,27.6031494140625
5.709999900000001,8.238448143005371,4.845864295959473,0.8667010068893433,12.6495361328125,6.16455078125,24.627685546875
5.7299999,8.322244644165039,4.721365928649902,0.8379706144332886,13.214111328125,7.2174072265625,22.2625732421875
5.749999900000001,8.437167167663574,4.570530891418457,0.9193734526634216,13.36669921875,6.34765625,24.658203125
5.7699999,8.544905662536621,4.467580318450928,1.015141487121582,11.627197265625,1.8463134765625,20.355224609375
5.789999900000001,8.635885238647461,4.338293552398682,1.1755530834197998,3.662109375,2.838134765625,19.439697265625
5.8099999,8.681375503540039,4.240131378173828,1.1899182796478271,9.2620849609375,-0.79345703125,18.1121826171875
5.829999900000001,8.688557624816895,4.19224739074707,1.1180921792984009,16.4794921875,-1.373291015625,14.923095703125
5.8499999,8.664615631103516,4.1611223220825195,0.9768342971801758,9.0179443359375,4.9285888671875,12.969970703125
5.869999900000001,8.62391471862793,4.20421838760376,0.751779317855835,8.3770751953125,5.3253173828125,9.4757080078125
5.8899999,8.59997272491455,4.264073371887207,0.6368576288223267,3.2501220703125,7.4310302734375,9.2010498046875
5.909999900000001,8.604761123657227,4.3406877517700195,0.6488286852836609,-1.3275146484375,8.36181640625,11.3372802734375
5.9299999,8.62630844116211,4.422090530395508,0.6847416758537292,6.8817138671875,3.4637451171875,11.749267578125
5.949999900000001,8.662221908569336,4.446032524108887,0.7733271718025208,4.82177734375,6.1798095703125,15.0146484375
5.9699999,8.702922821044922,4.400542736053467,0.9361328482627869,-14.3890380859375,12.939453125,16.2506103515625
5.989999900000001,8.729259490966797,4.28322696685791,1.0247182846069336,4.9591064453125,3.387451171875,10.284423828125
6.0099999,8.741230010986328,4.173093795776367,1.094150185585022,29.84619140625,-3.7841796875,2.01416015625
6.029999900000001,8.743624687194824,4.175487995147705,1.0749965906143188,13.7786865234375,-0.0152587890625,-0.2288818359375
6.0499999,8.743624687194824,4.292803764343262,0.9576807022094727,0.8697509765625,6.866455078125,7.1868896484375
6.069999900000001,8.767566680908203,4.484339714050293,0.8738836050033569,4.058837890625,7.7056884765625,12.908935546875
6.0899999000000005,8.820239067077637,4.661510944366455,0.871489405632019,6.256103515625,1.434326171875,10.6353759765625
6.109999900000001,8.889671325683594,4.716577529907227,0.9528923034667969,12.542724609375,-1.5716552734375,8.880615234375
6.1299999000000005,8.949525833129883,4.704606533050537,1.0462661981582642,14.404296875,-1.9683837890625,8.36181640625
6.149999900000001,8.978256225585938,4.642356872558594,1.0965443849563599,13.18359375,-4.638671875,9.0789794921875
6.1699999000000005,8.980650901794434,4.642356872558594,1.0869675874710083,9.918212890625,-4.852294921875,10.5743408203125
6.1899999,8.966285705566406,4.5825018882751465,1.0414776802062988,2.7618408203125,-2.5634765625,17.5933837890625
6.209999900000001,8.932766914367676,4.5154643058776855,0.9433154463768005,-1.8157958984375,-1.953125,20.3094482421875
6.2299999,8.901641845703125,4.352658748626709,0.8379706144332886,-2.4566650390625,-3.4332275390625,16.143798828125
6.249999900000001,8.865729331970215,4.1180267333984375,0.7254431247711182,2.6702880859375,-1.922607421875,13.73291015625
6.2699999,8.83939266204834,3.8810009956359863,0.6607996821403503,1.251220703125,-0.213623046875,12.2528076171875
6.289999900000001,8.813055992126465,3.687070608139038,0.6153098344802856,-7.1868896484375,-2.0751953125,10.9405517578125
6.3099999,8.786720275878906,3.576937437057495,0.5554547905921936,-5.7373046875,-2.9144287109375,11.0321044921875
6.329999900000001,8.755595207214355,3.5218706130981445,0.47405192255973816,-8.7890625,2.2125244140625,12.5732421875
6.3499999,8.738836288452148,3.5218706130981445,0.38067805767059326,-17.08984375,10.345458984375,14.3585205078125
6.369999900000001,8.769960403442383,3.509899616241455,0.4118026793003082,-24.993896484375,14.801025390625,14.7552490234375
6.3899999,8.844181060791016,3.5027170181274414,0.5386953949928284,-6.8206787109375,8.48388671875,8.209228515625
6.409999900000001,8.968679428100586,3.471592426300049,0.7948749661445618,12.908935546875,2.655029296875,2.6397705078125
6.4299999,9.090784072875977,3.531447410583496,1.048660397529602,7.781982421875,-0.18310546875,-2.227783203125
6.449999900000001,9.198522567749023,3.689464807510376,1.2330138683319092,5.7220458984375,-1.1749267578125,-1.40380859375
6.4699999,9.284713745117188,3.9240965843200684,1.316810965538025,12.7410888671875,-1.3885498046875,5.4473876953125
6.489999900000001,9.327810287475586,4.1874589920043945,1.3431471586227417,10.80322265625,-3.2501220703125,8.5296630859375
6.5099999,9.337387084960938,4.350264549255371,1.2713210582733154,7.659912109375,-7.781982421875,9.2315673828125
6.529999900000001,9.279925346374512,4.414907932281494,1.115697979927063,16.357421875,-12.2528076171875,7.6446533203125
6.5499999,9.184157371520996,4.333505153656006,0.8571242094039917,22.88818359375,-11.23046875,8.636474609375
6.569999900000001,9.033323287963867,4.1874589920043945,0.5410895943641663,19.4549560546875,-7.3699951171875,8.3160400390625
6.5899999000000005,8.887276649475098,3.9695863723754883,0.2346317619085312,12.1917724609375,-2.532958984375,11.0931396484375
6.609999900000001,8.767566680908203,3.7612907886505127,0.07900865375995636,4.9896240234375,1.922607421875,12.26806640625
6.6299999000000005,8.705317497253418,3.5697548389434814,0.08140286058187485,4.5013427734375,2.197265625,14.0380859375
6.649999900000001,8.71728801727295,3.404554843902588,0.26336219906806946,9.521484375,-0.6103515625,13.97705078125
6.6699999000000005,8.791508674621582,3.292027235031128,0.5147533416748047,14.129638671875,-3.72314453125,7.38525390625
6.6899999,8.904036521911621,3.248931646347046,0.7637503147125244,19.7601318359375,-8.5601806640625,-0.091552734375
6.709999900000001,9.01895809173584,3.3016040325164795,0.912190854549408,26.9317626953125,-12.5885009765625,-0.579833984375
6.7299999,9.114726066589355,3.4141316413879395,0.9026140570640564,24.0478515625,-15.6097412109375,4.7760009765625
6.749999900000001,9.172186851501465,3.56017804145813,0.7206547260284424,5.43212890625,-13.18359375,8.7127685546875
6.7699999,9.196128845214844,3.6607344150543213,0.3926490843296051,-11.199951171875,-8.4381103515625,10.223388671875
6.789999900000001,9.205705642700195,3.670311212539673,0.07422025501728058,-12.02392578125,-1.007080078125,12.8021240234375
6.8099999,9.210494041442871,3.600879430770874,-0.19393034279346466,-2.6397705078125,3.11279296875,14.923095703125
6.829999900000001,9.227252960205078,3.466804027557373,-0.28969839215278625,-7.110595703125,5.4931640625,14.70947265625
6.8499999,9.260771751403809,3.308786630630493,-0.2322375625371933,-16.8609619140625,7.7362060546875,13.0462646484375
6.869999900000001,9.315838813781738,3.112462282180786,-0.05027823522686958,-12.1002197265625,6.6070556640625,13.9923095703125
6.8899999,9.390059471130371,2.9712042808532715,0.2346317619085312,1.220703125,3.662109375,8.7432861328125
6.909999900000001,9.466673851013184,2.87064790725708,0.5339069962501526,6.866455078125,-2.5177001953125,1.0528564453125
6.9299999,9.526528358459473,2.8586769104003906,0.7589619159698486,13.7481689453125,-8.544921875,0.244140625
6.949999900000001,9.564835548400879,2.9161376953125,0.8427590131759644,18.1427001953125,-8.97216796875,4.1046142578125
6.9699999,9.57201862335205,3.0334534645080566,0.8020575642585754,13.1072998046875,-7.4462890625,5.3863525390625
6.989999900000001,9.564835548400879,3.1100680828094482,0.7015010714530945,10.955810546875,-5.4473876953125,6.40869140625
7.0099999,9.53849983215332,3.1435868740081787,0.5746083855628967,17.578125,-7.843017578125,6.6986083984375
7.029999900000001,9.502586364746094,3.1675288677215576,0.4620809257030487,18.2342529296875,-10.833740234375,4.3182373046875
7.0499999,9.454702377319336,3.181894063949585,0.3256114423274994,9.857177734375,-11.260986328125,5.1422119140625
7.069999900000001,9.404424667358398,3.220201253890991,0.21308395266532898,3.5858154296875,-7.8125,8.1939697265625
7.0899999000000005,9.351752281188965,3.2345664501190186,0.07182604819536209,8.392333984375,-7.293701171875,10.589599609375
7.109999900000001,9.30386734008789,3.227383852005005,-0.05027823522686958,9.3994140625,-7.3699951171875,10.5743408203125
7.1299999000000005,9.27034854888916,3.181894063949585,-0.14844051003456116,-1.007080078125,-3.4332275390625,9.5672607421875
7.149999900000001,9.251194953918457,3.1196448802948,-0.2346317619085312,-4.4708251953125,-2.288818359375,11.7950439453125
7.1699999000000005,9.258378028869629,3.069366693496704,-0.33039984107017517,1.77001953125,-2.685546875,13.7176513671875
7.1899999,9.26795482635498,2.9664158821105957,-0.42377370595932007,1.190185546875,-1.251220703125,15.7318115234375
7.209999900000001,9.284713745117188,2.829946517944336,-0.49559974670410156,-9.0789794921875,4.2572021484375,16.6473388671875
7.2299999,9.299078941345215,2.669534921646118,-0.5506663918495178,-8.30078125,6.3629150390625,14.739990234375
7.249999900000001,9.32302188873291,2.4803929328918457,-0.49559974670410156,-0.701904296875,7.9498291015625,15.655517578125
7.2699999,9.370905876159668,2.3247697353363037,-0.2944868206977844,-5.1422119140625,7.9345703125,13.2293701171875
7.289999900000001,9.428366661071777,2.1954829692840576,-0.033518824726343155,-4.058837890625,-0.6561279296875,7.3089599609375
7.3099999,9.48343276977539,2.1308395862579346,0.2537853717803955,4.547119140625,-8.4075927734375,2.5177001953125
7.329999900000001,9.509769439697266,2.164358377456665,0.37828385829925537,15.2740478515625,-13.0462646484375,0.030517578125
7.3499999,9.500192642211914,2.2888567447662354,0.35434186458587646,10.528564453125,-9.9334716796875,1.77001953125
7.369999900000001,9.476250648498535,2.4372973442077637,0.16759411990642548,3.3721923828125,-5.92041015625,5.767822265625
7.3899999,9.44752025604248,2.6024973392486572,-0.021547814831137657,4.9896240234375,-2.3040771484375,5.0048828125
7.409999900000001,9.430760383605957,2.6671407222747803,-0.1843535304069519,12.0849609375,-4.9285888671875,5.0201416015625
7.4299999,9.425971984863281,2.691082715988159,-0.2801215946674347,15.44189453125,-6.34765625,4.2572021484375
7.449999900000001,9.428366661071777,2.671929121017456,-0.31842881441116333,10.3759765625,-2.3651123046875,3.23486328125
7.4699999,9.435548782348633,2.607285737991333,-0.3878606855869293,11.29150390625,-1.28173828125,5.828857421875
7.489999900000001,9.44991397857666,2.5546131134033203,-0.3663128614425659,2.166748046875,1.617431640625,6.011962890625
7.5099999,9.461885452270508,2.4827871322631836,-0.38546648621559143,1.89208984375,0.518798828125,6.3934326171875
7.529999900000001,9.473855972290039,2.3942017555236816,-0.3663128614425659,2.410888671875,1.03759765625,8.6212158203125
7.5499999,9.47146224975586,2.2912509441375732,-0.3711012601852417,-4.0130615234375,3.2196044921875,7.537841796875
7.569999900000001,9.454702377319336,2.1930887699127197,-0.395043283700943,-8.056640625,1.495361328125,4.4097900390625
7.5899999000000005,9.425971984863281,2.10210919380188,-0.42377370595932007,-5.0048828125,0.8392333984375,2.5177001953125
7.609999900000001,9.390059471130371,2.075772762298584,-0.47884035110473633,3.3721923828125,2.2430419921875,2.7313232421875
7.6299999000000005,9.35654067993164,2.0853497982025146,-0.5506663918495178,-1.1444091796875,5.37109375,4.3487548828125
7.649999900000001,9.349357604980469,2.121262788772583,-0.5841852426528931,-11.7340087890625,10.284423828125,6.3018798828125
7.6699999000000005,9.363722801208496,2.126051187515259,-0.5626373887062073,-15.167236328125,10.7879638671875,6.4697265625
7.6899999,9.406818389892578,2.0853497982025146,-0.44771572947502136,-6.40869140625,8.11767578125,4.8370361328125
7.709999900000001,9.454702377319336,2.0207061767578125,-0.2992752194404602,0.6561279296875,5.4473876953125,0.8392333984375
7.7299999,9.509769439697266,1.968033790588379,-0.12689268589019775,-1.4495849609375,5.7220458984375,-0.640869140625
7.749999900000001,9.555258750915527,1.9632453918457031,-0.0071826050989329815,1.1749267578125,3.9520263671875,-0.9613037109375
7.7699999,9.59596061706543,1.9991583824157715,0.06224924325942993,6.744384765625,1.5411376953125,-0.0152587890625
7.789999900000001,9.622296333312988,2.0638017654418945,0.090979665517807,7.0343017578125,2.3651123046875,0.1373291015625
7.8099999,9.636661529541016,2.123656988143921,0.08379705995321274,5.462646484375,2.2125244140625,-0.1220703125
7.829999900000001,9.636661529541016,2.1595699787139893,0.05267243832349777,3.570556640625,0.030517578125,0.4425048828125
7.8499999,9.63187313079834,2.2026655673980713,-0.0071826050989329815,2.99072265625,-3.7078857421875,-0.7781982421875
7.869999900000001,9.612719535827637,2.248155355453491,-0.08140286058187485,-1.3885498046875,-3.082275390625,-1.7547607421875
7.8899999,9.588777542114258,2.2912509441375732,-0.1867477297782898,-2.593994140625,-1.9683837890625,0.0457763671875
7.909999900000001,9.57201862335205,2.3582887649536133,-0.2777273952960968,0.06103515625,-0.0457763671875,0.7171630859375
7.9299999,9.5624418258667,2.3965959548950195,-0.31364041566848755,-2.5787353515625,1.03759765625,0.9613037109375
7.949999900000001,9.57201862335205,2.4372973442077637,-0.31842881441116333,-3.41796875,-0.7171630859375,1.52587890625
7.9699999,9.603142738342285,2.4875755310058594,-0.2537853717803955,-7.4005126953125,-0.579833984375,1.0833740234375
7.989999900000001,9.636661529541016,2.5258827209472656,-0.21787235140800476,-1.1444091796875,-2.899169921875,2.960205078125
8.0099999,9.660603523254395,2.561795711517334,-0.21308395266532898,2.44140625,-2.8076171875,5.4168701171875
8.0299999,9.667786598205566,2.5689783096313477,-0.23942017555236816,-5.0048828125,0.5035400390625,6.011962890625
8.049999900000001,9.646238327026367,2.5019407272338867,-0.29209262132644653,-6.011962890625,2.5787353515625,7.75146484375
8.069999900000001,9.605537414550781,2.3918075561523438,-0.31603461503982544,-1.617431640625,1.9073486328125,8.544921875
8.0899999,9.555258750915527,2.27209734916687,-0.31364041566848755,0.3814697265625,2.532958984375,7.1563720703125
8.1099999,9.514557838439941,2.1499931812286377,-0.3016694188117981,-1.800537109375,3.7689208984375,8.0718994140625
8.129999900000001,9.495404243469238,2.094926595687866,-0.24660277366638184,-10.6201171875,6.5460205078125,8.6669921875
8.149999900000001,9.50498104095459,2.0925323963165283,-0.20111294090747833,-9.3536376953125,4.33349609375,8.636474609375
8.1699999,9.533711433410645,2.126051187515259,-0.1364694982767105,-6.805419921875,2.3956298828125,9.0484619140625
8.1899999,9.576807022094727,2.161964178085327,-0.08858546614646912,-2.899169921875,3.387451171875,9.5367431640625
8.2099999,9.605537414550781,2.185906171798706,-0.07182604819536209,-0.6561279296875,2.7618408203125,8.209228515625
8.229999900000001,9.622296333312988,2.166752576828003,-0.10055647045373917,0.6103515625,1.2969970703125,8.23974609375
8.2499999,9.624691009521484,2.126051187515259,-0.1412578970193863,-1.2969970703125,1.9989013671875,8.209228515625
8.2699999,9.617507934570312,2.078166961669922,-0.16519992053508759,-4.0435791015625,4.5623779296875,8.392333984375
8.2899999,9.607931137084961,1.9847931861877441,-0.16519992053508759,-4.3487548828125,4.5166015625,10.467529296875
8.309999900000001,9.59596061706543,1.8842366933822632,-0.12689268589019775,-0.4119873046875,2.0751953125,9.3231201171875
8.3299999,9.583989143371582,1.7621324062347412,-0.08379705995321274,0.274658203125,0.640869140625,6.4849853515625
8.3499999,9.5624418258667,1.659181833267212,-0.06224924325942993,0.1373291015625,1.2359619140625,5.0506591796875
8.3699999,9.5408935546875,1.577778935432434,-0.07422025501728058,-0.18310546875,2.0904541015625,5.1727294921875
8.389999900000001,9.519346237182617,1.525106430053711,-0.07661445438861847,-5.2490234375,2.74658203125,4.3487548828125
8.4099999,9.50737476348877,1.4867992401123047,-0.08140286058187485,-3.021240234375,0.9613037109375,2.1209716796875
8.4299999,9.512163162231445,1.4772224426269531,-0.08140286058187485,-1.251220703125,-0.518798828125,-0.30517578125
8.4499999,9.545681953430176,1.5442601442337036,-0.05746084079146385,-3.35693359375,0.6103515625,-2.8228759765625
8.469999900000001,9.59596061706543,1.6759412288665771,-0.047884032130241394,-2.4566650390625,-0.885009765625,-3.448486328125
8.4899999,9.66539192199707,1.8411411046981812,-0.028730420395731926,0.8544921875,-2.8076171875,-0.9002685546875
8.5099999,9.725247383117676,1.9823989868164062,0.002394201699644327,0.213623046875,-2.838134765625,0.457763671875
8.5299999,9.761159896850586,2.0374655723571777,-0.011971008032560349,4.08935546875,-4.6539306640625,1.068115234375
8.549999900000001,9.763554573059082,1.98958158493042,0.002394201699644327,3.570556640625,-2.38037109375,2.7923583984375
8.569999900000001,9.730035781860352,1.8722656965255737,-0.06703764945268631,11.0015869140625,-2.74658203125,2.99072265625
8.5899999,9.682151794433594,1.7166426181793213,-0.10295066982507706,2.01416015625,-1.5411376953125,2.471923828125
8.6099999,9.636661529541016,1.6065093278884888,-0.14365209639072418,-6.5460205078125,-1.190185546875,0.457763671875
8.629999900000001,9.59835433959961,1.534683346748352,-0.19632454216480255,0.9765625,-3.5552978515625,0.7476806640625
8.649999900000001,9.569623947143555,1.5466543436050415,-0.24420857429504395,4.791259765625,-4.5166015625,0.244140625
8.6699999,9.548076629638672,1.5897499322891235,-0.2968810200691223,-1.312255859375,-0.732421875,-0.30517578125
8.6899999,9.536105155944824,1.6400281190872192,-0.363918662071228,-0.91552734375,1.1444091796875,1.1444091796875
8.709999900000001,9.53849983215332,1.6879122257232666,-0.3878606855869293,-0.0762939453125,1.068115234375,0.54931640625
8.729999900000001,9.552865028381348,1.723825216293335,-0.3998316824436188,0.518798828125,-0.4730224609375,-0.2899169921875
8.7499999,9.581595420837402,1.7405846118927002,-0.363918662071228,-5.7830810546875,1.1444091796875,0.6866455078125
8.7699999,9.605537414550781,1.7525556087493896,-0.31603461503982544,-5.1727294921875,1.129150390625,0.48828125
8.7899999,9.62947940826416,1.7381904125213623,-0.2801215946674347,3.448486328125,-1.1138916015625,0.2593994140625
8.809999900000001,9.63187313079834,1.7046716213226318,-0.26096799969673157,3.997802734375,-0.91552734375,-0.6256103515625
8.8299999,9.624691009521484,1.6687586307525635,-0.2825157940387726,-0.091552734375,1.5869140625,-0.885009765625
8.8499999,9.615114212036133,1.6280571222305298,-0.28730419278144836,-4.241943359375,2.9449462890625,-1.6021728515625
8.8699999,9.617507934570312,1.644816517829895,-0.2825157940387726,0.7781982421875,1.0986328125,-3.0517578125
8.889999900000001,9.634267807006836,1.699883222579956,-0.23702596127986908,2.5787353515625,-1.220703125,-2.8076171875
8.9099999,9.655815124511719,1.7884687185287476,-0.21308395266532898,-0.9765625,-1.2664794921875,-0.7171630859375
8.9299999,9.674968719482422,1.8770540952682495,-0.2059013396501541,-1.6632080078125,0.1983642578125,0.67138671875
8.9499999,9.679757118225098,1.9129672050476074,-0.22505496442317963,-1.1138916015625,1.28173828125,1.2054443359375
8.969999900000001,9.679757118225098,1.9033904075622559,-0.24420857429504395,2.9449462890625,0.7171630859375,0.7781982421875
8.9899999,9.672574996948242,1.8555063009262085,-0.24181437492370605,0.2288818359375,0.579833984375,0.1068115234375
9.0099999,9.66539192199707,1.7956513166427612,-0.24420857429504395,-0.701904296875,0.701904296875,0.946044921875
9.0299999,9.660603523254395,1.7477672100067139,-0.22266076505184174,-3.2196044921875,0.946044921875,0.6866455078125
9.049999900000001,9.653421401977539,1.7118542194366455,-0.19871874153614044,-4.058837890625,0.701904296875,0.2899169921875
9.069999900000001,9.651026725769043,1.6950948238372803,-0.19632454216480255,-0.2288818359375,-1.434326171875,-0.0152587890625
9.0899999,9.646238327026367,1.699883222579956,-0.17477671802043915,-0.640869140625,-0.48828125,-0.244140625
9.1099999,9.641449928283691,1.7262194156646729,-0.2346317619085312,1.2054443359375,-1.7852783203125,-0.2899169921875
9.129999900000001,9.639056205749512,1.764526605606079,-0.29209262132644653,-4.6539306640625,-0.213623046875,0.091552734375
9.149999900000001,9.643844604492188,1.8076223134994507,-0.3423708379268646,-8.1024169921875,2.13623046875,0.579833984375
9.1699999,9.658209800720215,1.8411411046981812,-0.35434186458587646,-2.4566650390625,1.129150390625,0.762939453125
9.1899999,9.672574996948242,1.8698714971542358,-0.33997663855552673,4.8828125,-1.861572265625,0.5645751953125
9.209999900000001,9.68694019317627,1.86508309841156,-0.3064578175544739,-0.3662109375,-0.8544921875,1.8463134765625
9.229999900000001,9.694122314453125,1.8291701078414917,-0.2537853717803955,-5.645751953125,1.739501953125,2.4871826171875
9.2499999,9.691728591918945,1.7860745191574097,-0.2537853717803955,2.2735595703125,-1.373291015625,1.0833740234375
9.2699999,9.679757118225098,1.745373010635376,-0.23942017555236816,2.0599365234375,-2.8533935546875,0.4425048828125
9.2899999,9.677363395690918,1.7357962131500244,-0.24899697303771973,-3.35693359375,0.3814697265625,1.8310546875
9.309999900000001,9.677363395690918,1.766920804977417,-0.24660277366638184,-3.11279296875,1.3580322265625,2.0904541015625
9.3299999,9.68694019317627,1.8124107122421265,-0.2585737705230713,3.4027099609375,-2.7313232421875,2.3193359375
9.3499999,9.6989107131958,1.8555063009262085,-0.27054479718208313,3.021240234375,-3.6163330078125,3.1280517578125
9.3699999,9.703699111938477,1.8938134908676147,-0.31842881441116333,-2.0294189453125,-0.6561279296875,3.509521484375
9.389999900000001,9.696516990661621,1.9177556037902832,-0.3687070608139038,-5.9356689453125,1.46484375,4.39453125
9.4099999,9.684545516967773,1.9105730056762695,-0.3998316824436188,-2.532958984375,1.46484375,6.256103515625
9.4299999,9.672574996948242,1.8746598958969116,-0.40462008118629456,0.640869140625,-0.030517578125,6.5155029296875
9.4499999,9.66539192199707,1.802833914756775,-0.36152446269989014,-3.3416748046875,1.861572265625,6.40869140625
9.469999900000001,9.66299819946289,1.7070658206939697,-0.3256114423274994,-3.6468505859375,1.89208984375,6.4239501953125
9.4899999,9.660603523254395,1.6112977266311646,-0.2753331959247589,-1.251220703125,-0.4119873046875,5.126953125
9.5099999,9.653421401977539,1.5442601442337036,-0.26815059781074524,4.425048828125,-2.4261474609375,3.84521484375
9.5299999,9.627084732055664,1.479616641998291,-0.2992752194404602,2.410888671875,-2.410888671875,4.39453125
9.549999900000001,9.586383819580078,1.4413094520568848,-0.3663128614425659,0.396728515625,1.0223388671875,4.7760009765625
9.569999900000001,9.528923034667969,1.3527239561080933,-0.4572925269603729,2.8228759765625,1.5411376953125,4.608154296875
9.5899999,9.454702377319336,1.2066776752471924,-0.5147533416748047,3.7689208984375,1.220703125,3.6163330078125
9.6099999,9.366117477416992,1.0007762908935547,-0.5817909836769104,7.75146484375,0.732421875,-0.6256103515625
9.629999900000001,9.260771751403809,0.7445967197418213,-0.6248866319656372,7.1868896484375,2.25830078125,-4.6234130859375
9.649999900000001,9.150638580322266,0.4572925269603729,-0.6823474764823914,7.99560546875,4.2572021484375,-7.415771484375
9.6699999,9.038111686706543,0.1843535304069519,-0.7230489253997803,14.495849609375,5.584716796875,-12.0086669921875
9.6899999,8.951920509338379,-0.06703764945268631,-0.7015010714530945,19.9737548828125,7.0648193359375,-18.6767578125
9.709999900000001,8.880094528198242,-0.3280056416988373,-0.6224924325942993,26.6571044921875,3.0517578125,-21.3165283203125
9.729999900000001,8.844181060791016,-0.7374141216278076,-0.4812345504760742,53.0242919921875,-4.4403076171875,-22.216796875
9.7499999,8.80587387084961,-1.2617442607879639,-0.3734954595565796,82.6568603515625,-13.2598876953125,-37.261962890625
9.7699999,8.822632789611816,-1.8986018896102905,-0.4189853072166443,94.42138671875,-13.458251953125,-49.072265625
9.7899999,8.937555313110352,-2.5546131134033203,-0.44532153010368347,66.7877197265625,3.1890869140625,-49.072265625
9.809999900000001,9.260771751403809,-2.9305028915405273,-0.3734954595565796,36.8499755859375,10.9405517578125,-57.952880859375
9.8299999,9.840168952941895,-3.098097085952759,-0.33518823981285095,56.854248046875,-10.2081298828125,-65.2923583984375
9.8499999,10.642226219177246,-2.889801502227783,-0.17477671802043915,44.6014404296875,-9.857177734375,-63.29345703125
9.8699999,11.602301597595215,-2.367865562438965,-0.2106897532939911,-25.9552001953125,-2.86865234375,-48.1109619140625
9.889999900000001,12.583924293518066,-1.778891921043396,-0.20350714027881622,-47.3175048828125,10.7421875,-21.5911865234375
9.9099999,13.4290771484375,-1.2306196689605713,-0.33518823981285095,-58.837890625,6.3018798828125,-10.345458984375
9.9299999,14.00368595123291,-1.1085153818130493,-0.5746083855628967,-33.7066650390625,7.6904296875,-11.16943359375
9.9499999,14.190433502197266,-1.522712230682373,-0.9169792532920837,-37.90283203125,30.853271484375,-13.4124755859375
9.969999900000001,14.032416343688965,-2.0638017654418945,-1.1204863786697388,-28.411865234375,45.8526611328125,-40.6036376953125
9.9899999,13.57512378692627,-1.9321208000183105,-0.023942016065120697,-53.955078125,41.900634765625,-92.46826171875
10.0099999,12.6365966796875,-0.49320554733276367,1.4053963422775269,-128.1890869140625,-96.1456298828125,-120.3155517578125
10.0299999,11.070788383483887,2.5282769203186035,1.7764976024627686,-13.885498046875,-186.3555908203125,-103.424072265625
10.049999900000001,8.710105895996094,5.944802761077881,0.7781155705451965,-64.2852783203125,-40.6494140625,-43.1365966796875
10.069999900000001,5.884947776794434,8.221688270568848,-0.7038952708244324,-155.242919921875,173.675537109375,-27.8778076171875
10.0899999,3.0597896575927734,9.550470352172852,-1.944091796875,-38.02490234375,138.0767822265625,-151.8096923828125
10.1099999,1.0462661981582642,10.160991668701172,-0.8259995579719543,82.6873779296875,45.5169677734375,-249.45068359375
10.129999900000001,0.2992752194404602,11.523292541503906,1.7956513166427612,44.342041015625,11.444091796875,-232.696533203125
10.149999900000001,0.8930372595787048,14.080300331115723,3.07415509223938,79.04052734375,-104.4158935546875,-158.111572265625
10.1699999,2.1523873805999756,17.401058197021484,2.3247697353363037,124.908447265625,-145.44677734375,-77.0263671875
10.1899999,3.3877954483032227,18.571823120117188,-0.3711012601852417,63.079833984375,-31.7840576171875,64.8956298828125
10.209999900000001,3.9911341667175293,17.269376754760742,-3.2848446369171143,-16.754150390625,80.3680419921875,118.682861328125
10.229999900000001,3.9480385780334473,13.15613842010498,-4.314351558685303,-71.35009765625,90.6219482421875,47.3480224609375
10.2499999,3.751713991165161,7.795520782470703,-2.985569477081299,-63.3697509765625,8.4075927734375,-18.1121826171875
10.2699999,3.823540210723877,3.6966474056243896,-0.4572925269603729,-40.9698486328125,-64.1632080078125,-49.0875244140625
10.2899999,4.28322696685791,2.0614075660705566,1.414973258972168,-10.3302001953125,-66.83349609375,-45.8984375
10.309999900000001,5.015852451324463,2.5234885215759277,1.644816517829895,5.0048828125,-38.1622314453125,-9.3536376953125
10.3299999,5.765237808227539,4.199429988861084,0.9169792532920837,-35.4461669921875,18.61572265625,10.6048583984375
10.3499999,6.44279670715332,5.779603004455566,-0.06703764945268631,-42.54150390625,28.594970703125,10.2691650390625
10.3699999,6.92881965637207,6.742072105407715,-0.4572925269603729,-26.3671875,7.3699951171875,3.021240234375
10.389999900000001,7.261613845825195,7.050923824310303,-0.3711012601852417,-6.34765625,-2.7313232421875,-0.244140625
10.4099999,7.469909191131592,7.072471618652344,-0.0071826050989329815,-18.85986328125,5.37109375,-5.1727294921875
10.4299999,7.637503623962402,7.01979923248291,0.2825157940387726,-28.1829833984375,8.056640625,-3.753662109375
10.4499999,7.773972988128662,7.079654216766357,0.3878606855869293,-12.115478515625,-2.1820068359375,4.08935546875
10.469999900000001,7.884106159210205,7.168240070343018,0.2992752194404602,-1.739501953125,-6.40869140625,11.4288330078125
10.4899999,7.864952564239502,7.105990409851074,0.13168109953403473,-17.51708984375,6.6070556640625,17.059326171875
10.5099999,7.759607791900635,6.737283706665039,-0.0694318488240242,-20.9808349609375,13.00048828125,18.3563232421875
10.5299999,7.592013359069824,6.248866558074951,-0.07182604819536209,-24.4598388671875,6.622314453125,3.7078857421875
10.549999900000001,7.474697589874268,5.7987565994262695,0.05985504388809204,-17.364501953125,-0.885009765625,-6.5155029296875
10.569999900000001,7.4555439949035645,5.647922039031982,0.16998831927776337,-5.615234375,-5.126953125,-8.514404296875
10.5899999,7.529764175415039,5.892130374908447,0.1364694982767105,-7.293701171875,-0.5645751953125,-3.6773681640625
10.6099999,7.649474620819092,6.3063273429870605,0.043095629662275314,-35.064697265625,5.3558349609375,5.67626953125
10.629999900000001,7.733271598815918,6.696582317352295,0.023942016065120697,-47.3175048828125,6.4697265625,13.48876953125
10.649999900000001,7.747636795043945,6.847416877746582,0.06464344263076782,-24.8565673828125,-2.13623046875,12.5274658203125
10.6699999,7.663839817047119,6.75883150100708,0.24660277366638184,-18.4478759765625,-1.4190673828125,7.99560546875
10.6899999,7.534552574157715,6.509834289550781,0.40222588181495667,-24.8870849609375,4.241943359375,6.134033203125
10.709999900000001,7.41484260559082,6.260837554931641,0.5674257874488831,-18.1427001953125,5.8135986328125,4.94384765625
10.729999900000001,7.352593421936035,6.107608318328857,0.6727706789970398,-4.3487548828125,-1.129150390625,2.227783203125
10.7499999,7.359776020050049,6.054935932159424,0.7948749661445618,-2.349853515625,-2.1514892578125,1.40380859375
10.7699999,7.395689010620117,6.124367713928223,0.768538773059845,1.708984375,-2.1514892578125,1.0833740234375
10.7899999,7.445967197418213,6.205770969390869,0.6105214357376099,4.6539306640625,-3.7841796875,2.0294189453125
10.809999900000001,7.47230339050293,6.313509941101074,0.47884035110473633,-9.1094970703125,2.9144287109375,1.2969970703125
10.8299999,7.4770917892456055,6.332663536071777,0.37828385829925537,-2.2430419921875,2.044677734375,1.77001953125
10.8499999,7.429207801818848,6.260837554931641,0.35913026332855225,13.4124755859375,-7.3699951171875,1.64794921875
10.8699999,7.343016624450684,6.076483726501465,0.3734954595565796,13.73291015625,-10.284423828125,-0.8697509765625
10.889999900000001,7.228095054626465,5.858611583709717,0.3519476354122162,3.814697265625,-4.5166015625,-4.791259765625
10.9099999,7.1251444816589355,5.6910176277160645,0.2298433631658554,0.8697509765625,0.244140625,-7.232666015625
10.9299999,7.0772600173950195,5.652710437774658,0.12928688526153564,1.8157958984375,2.471923828125,-6.927490234375
10.9499999,7.110779285430908,5.781997203826904,0.15801730751991272,-9.521484375,3.9825439453125,-6.927490234375
10.969999900000001,7.201758861541748,5.987898349761963,0.24181437492370605,-5.55419921875,-3.1280517578125,-5.2032470703125
10.9899999,7.3023152351379395,6.222530364990234,0.36152446269989014,4.7149658203125,-8.4381103515625,-4.6539306640625
11.0099999,7.383718013763428,6.411672115325928,0.3878606855869293,1.8310546875,-6.77490234375,-5.096435546875
11.0299999,7.4316020011901855,6.555324077606201,0.33997663855552673,-6.2408447265625,0.54931640625,-5.1422119140625
11.049999900000001,7.4555439949035645,6.658275127410889,0.181959331035614,-4.0130615234375,3.082275390625,-4.45556640625
11.069999900000001,7.4770917892456055,6.744466304779053,0.0933738648891449,-5.035400390625,6.3934326171875,-3.2196044921875
11.0899999,7.508216381072998,6.7923502922058105,0.11971008777618408,-11.29150390625,9.3841552734375,-1.28173828125
11.1099999,7.55131196975708,6.811503887176514,0.24899697303771973,-6.500244140625,6.0577392578125,0.06103515625
11.129999900000001,7.594407558441162,6.782773494720459,0.4189853072166443,0.274658203125,0.0152587890625,0.274658203125
11.149999900000001,7.623138427734375,6.732495307922363,0.5602431893348694,-1.5869140625,0.732421875,0.79345703125
11.1699999,7.632715225219727,6.66785192489624,0.6200982332229614,-8.636474609375,4.638671875,2.1209716796875
11.1899999,7.620744228363037,6.605602264404297,0.6392518281936646,-9.4451904296875,5.645751953125,3.0517578125
11.209999900000001,7.592013359069824,6.512228488922119,0.6847416758537292,-3.2806396484375,2.99072265625,3.3111572265625
11.229999900000001,7.532158374786377,6.385335922241211,0.7206547260284424,-0.091552734375,-1.068115234375,2.349853515625
11.2499999,7.453149795532227,6.232107162475586,0.751779317855835,-4.791259765625,-0.2593994140625,0.0152587890625
11.2699999,7.357381820678711,6.074089527130127,0.7637503147125244,-11.6424560546875,3.3416748046875,-2.6702880859375
11.2899999,7.275979042053223,5.987898349761963,0.7110779285430908,-9.6282958984375,0.3662109375,-5.3253173828125
11.309999900000001,7.220912456512451,6.04775333404541,0.7015010714530945,-19.4244384765625,-0.1678466796875,-6.3323974609375
11.3299999,7.201758861541748,6.150704383850098,0.6703764796257019,-16.2353515625,0.732421875,-0.518798828125
11.3499999,7.1921820640563965,6.3302693367004395,0.608127236366272,-4.7760009765625,-0.0762939453125,0.2593994140625
11.3699999,7.206547260284424,6.466738700866699,0.5530605912208557,-6.2103271484375,3.47900390625,-0.5950927734375
11.389999900000001,7.228095054626465,6.538564682006836,0.5219359993934631,-11.9781494140625,7.14111328125,0.3204345703125
11.4099999,7.261613845825195,6.560112476348877,0.5386953949928284,-7.4005126953125,6.011962890625,1.251220703125
11.4299999,7.3023152351379395,6.54574728012085,0.6200982332229614,-4.302978515625,3.7994384765625,0.7476806640625
11.4499999,7.347805023193359,6.497863292694092,0.7469909191131592,-5.5389404296875,3.5552978515625,1.129150390625
11.469999900000001,7.393294811248779,6.464344501495361,0.8140285611152649,-1.64794921875,1.983642578125,0.0152587890625
11.4899999,7.441178798675537,6.495469093322754,0.8619126081466675,-1.0833740234375,2.349853515625,-1.03759765625
11.5099999,7.4770917892456055,6.557718276977539,0.8403648138046265,-1.434326171875,3.204345703125,1.8157958984375
11.5299999,7.486668586730957,6.62236213684082,0.8188169598579407,-1.739501953125,3.662109375,5.645751953125
11.549999900000001,7.467514991760254,6.62236213684082,0.7972691655158997,-2.7923583984375,3.5400390625,6.5460205078125
11.569999900000001,7.42681360244751,6.53377628326416,0.7996633648872375,-7.14111328125,2.777099609375,5.2642822265625
11.5899999,7.38132381439209,6.421248912811279,0.8643068075180054,-7.4462890625,5.79833984375,2.74658203125
11.6099999,7.350199222564697,6.320692539215088,0.871489405632019,1.28173828125,2.777099609375,4.4708251953125
11.629999900000001,7.331045627593994,6.275202751159668,0.9576807022094727,-1.3427734375,4.1351318359375,7.8125
11.649999900000001,7.333439826965332,6.212953567504883,0.9840168952941895,1.129150390625,5.06591796875,9.5977783203125
11.6699999,7.347805023193359,6.155492782592773,1.039083480834961,-0.8087158203125,3.7994384765625,6.0882568359375
11.6899999,7.374141216278076,6.064512729644775,1.0965443849563599,-4.69970703125,3.3721923828125,3.8299560546875
11.709999900000001,7.398083209991455,5.990292549133301,1.1324573755264282,-3.23486328125,1.708984375,3.6163330078125
11.729999900000001,7.41484260559082,5.940014362335205,1.1516109704971313,-5.0811767578125,0.946044921875,2.7923583984375
11.7499999,7.424419403076172,5.947196960449219,1.1300631761550903,-5.340576171875,2.0751953125,0.7171630859375
11.7699999,7.436390399932861,5.983109951019287,1.0678139925003052,-4.8370361328125,2.044677734375,0.0152587890625
11.7899999,7.4555439949035645,6.081272125244141,1.0079588890075684,-11.962890625,4.7454833984375,1.0986328125
11.809999900000001,7.496245384216309,6.205770969390869,0.9888052940368652,-25.4669189453125,5.4473876953125,2.3651123046875
11.8299999,7.532158374786377,6.3518171310424805,0.9983820915222168,-31.3262939453125,2.5177001953125,2.960205078125
11.8499999,7.558494567871094,6.476315498352051,1.0031704902648926,-31.219482421875,2.4871826171875,5.859375
11.8699999,7.560888767242432,6.552929878234863,1.015141487121582,-39.3218994140625,8.7432861328125,12.02392578125
11.889999900000001,7.5417351722717285,6.564900875091553,1.0462661981582642,-36.8499755859375,16.9219970703125,15.0604248046875
11.9099999,7.527369976043701,6.466738700866699,1.1540051698684692,-22.003173828125,14.7705078125,16.8914794921875
11.9299999,7.522581577301025,6.299144744873047,1.403002142906189,-10.650634765625,8.5601806640625,14.5263671875
11.9499999,7.515398979187012,6.100425720214844,1.6759412288665771,0.06103515625,1.89208984375,11.627197265625
11.969999900000001,7.513004779815674,5.913678169250488,1.867477297782898,8.6212158203125,-2.5787353515625,11.3372802734375
11.9899999,7.484274387359619,5.784391403198242,1.9129672050476074,2.0904541015625,-1.129150390625,10.7421875
12.0099999,7.448361396789551,5.705382823944092,1.766920804977417,-0.701904296875,-0.7476806640625,11.077880859375
12.0299999,7.412448406219482,5.698200225830078,1.5418659448623657,-8.1787109375,2.6092529296875,10.3912353515625
12.049999900000001,7.4100542068481445,5.652710437774658,1.4053963422775269,-15.716552734375,8.8043212890625,12.9852294921875
12.069999900000001,7.443572998046875,5.638344764709473,1.359906554222107,-1.6937255859375,7.0953369140625,10.2386474609375
12.0899999,7.51779317855835,5.626373767852783,1.4389152526855469,5.5999755859375,-0.48828125,4.9591064453125
12.1099999,7.613561630249023,5.640739440917969,1.5658079385757446,-0.1983642578125,-1.922607421875,4.9896240234375
12.129999900000001,7.69735860824585,5.69580602645874,1.6304513216018677,0,-2.0904541015625,5.6304931640625
12.149999900000001,7.769184589385986,5.784391403198242,1.6304513216018677,-1.068115234375,-1.2359619140625,6.2713623046875
12.1699999,7.817068576812744,5.870582580566406,1.6041151285171509,-3.570556640625,0.1373291015625,6.2408447265625
12.1899999,7.86734676361084,5.925649166107178,1.647210717201233,-8.11767578125,0.5035400390625,7.8125
12.209999900000001,7.905653953552246,5.966350555419922,1.6496049165725708,6.683349609375,-7.0953369140625,7.080078125
12.229999900000001,7.934384346008301,6.009446144104004,1.6663644313812256,11.2152099609375,-8.148193359375,7.2784423828125
12.2499999,7.953537940979004,6.066906929016113,1.6400281190872192,5.8135986328125,-0.701904296875,11.71875
12.2699999,7.955932140350342,6.1315507888793945,1.580173134803772,6.927490234375,-0.2593994140625,15.716552734375
12.289999900000002,7.970297336578369,6.1985883712768555,1.5131354331970215,13.1988525390625,-3.60107421875,17.8985595703125
12.309999900000001,7.977479934692383,6.27280855178833,1.4748282432556152,7.3699951171875,-2.13623046875,18.0511474609375
12.3299999,7.977479934692383,6.332663536071777,1.4437036514282227,3.173828125,1.708984375,24.1241455078125
12.3499999,7.975085735321045,6.354211330413818,1.41257905960083,9.5672607421875,0.4119873046875,32.440185546875
12.3699999,7.972691535949707,6.303933143615723,1.4221558570861816,17.608642578125,-1.9989013671875,34.4085693359375
12.389999900000001,7.977479934692383,6.145915985107422,1.3766659498214722,26.4434814453125,-2.13623046875,35.2325439453125
12.4099999,8.001421928405762,5.846640586853027,1.3934253454208374,14.5721435546875,3.96728515625,37.445068359375
12.4299999,8.04691219329834,5.458779811859131,1.4724340438842773,3.2958984375,5.767822265625,35.2935791015625
12.4499999,8.087613105773926,5.054159641265869,1.6280571222305298,10.8642578125,-4.0435791015625,27.89306640625
12.469999900000001,8.10437297821045,4.730942726135254,1.6759412288665771,36.3311767578125,-15.80810546875,24.3682861328125
12.4899999,8.1139497756958,4.4508209228515625,1.6160861253738403,34.9578857421875,-7.2479248046875,30.426025390625
12.5099999,8.11634349822998,4.307168960571289,1.4269442558288574,7.0648193359375,4.39453125,29.96826171875
12.5299999,8.142680168151855,4.173093795776367,1.2114660739898682,9.185791015625,1.0833740234375,25.6500244140625
12.549999900000001,8.202534675598145,4.065354347229004,1.0654197931289673,25.7415771484375,-4.7607421875,23.712158203125
12.569999900000001,8.288725852966309,3.9839515686035156,1.039083480834961,15.13671875,-0.7781982421875,22.3388671875
12.5899999,8.379706382751465,3.9432501792907715,1.113303780555725,-1.678466796875,4.669189453125,20.6756591796875
12.6099999,8.456320762634277,3.93367338180542,1.173158884048462,9.9334716796875,-3.936767578125,18.524169921875
12.629999900000001,8.513781547546387,3.9695863723754883,1.2282254695892334,29.541015625,-8.5296630859375,15.7623291015625
12.649999900000001,8.542511940002441,4.067748546600342,1.2186486721038818,12.1002197265625,-1.6021728515625,14.70947265625
12.6699999,8.556877136230469,4.10366153717041,1.1444283723831177,-6.4697265625,2.44140625,20.2178955078125
12.6899999,8.571242332458496,4.153939723968506,1.036689281463623,3.997802734375,-1.251220703125,16.8914794921875
12.709999900000001,8.580819129943848,4.199429988861084,0.9720458984375,12.9547119140625,-3.6163330078125,11.3067626953125
12.729999900000001,8.59997272491455,4.2951979637146,0.8667010068893433,6.6070556640625,1.1444091796875,14.2974853515625
12.7499999,8.635885238647461,4.400542736053467,0.8427590131759644,-4.150390625,8.4686279296875,21.9573974609375
12.7699999,8.69334602355957,4.443638324737549,0.8954314589500427,-2.99072265625,5.950927734375,23.6358642578125
12.789999900000002,8.769960403442383,4.359841346740723,0.950498104095459,12.5274658203125,-7.7056884765625,18.00537109375
12.809999900000001,8.851364135742188,4.156333923339844,0.9744400978088379,17.9901123046875,-6.40869140625,15.0146484375
12.8299999,8.913613319396973,3.9480385780334473,0.9648633003234863,-1.373291015625,4.7760009765625,15.0146484375
12.8499999,8.956708908081055,3.780444383621216,0.9002198576927185,-8.11767578125,3.3416748046875,15.7318115234375
12.8699999,8.971074104309082,3.6798880100250244,0.8379706144332886,5.79833984375,-6.2255859375,13.7176513671875
12.889999900000001,8.96389102935791,3.663128614425659,0.8188169598579407,7.75146484375,-2.8533935546875,11.16943359375
12.9099999,8.947132110595703,3.643975019454956,0.8068459630012512,-0.640869140625,4.486083984375,14.34326171875
12.9299999,8.935160636901855,3.576937437057495,0.8547300100326538,7.3394775390625,1.556396484375,16.387939453125
12.9499999,8.913613319396973,3.512293815612793,0.828393816947937,28.472900390625,-12.02392578125,7.7972412109375
12.969999900000001,8.918401718139648,3.3925838470458984,0.6943184733390808,25.93994140625,-10.528564453125,6.7291259765625
12.9899999,8.939949035644531,3.3255462646484375,0.5626373887062073,-11.688232421875,7.6751708984375,11.2457275390625
13.0099999,9.002198219299316,3.292027235031128,0.42616790533065796,-16.8914794921875,9.7503662109375,12.908935546875
13.0299999,9.114726066589355,3.248931646347046,0.43095630407333374,17.8375244140625,-2.716064453125,9.6893310546875
13.049999900000001,9.248801231384277,3.2345664501190186,0.5051765441894531,25.1617431640625,-5.43212890625,5.4779052734375
13.069999900000001,9.378087997436523,3.184288263320923,0.629675030708313,-5.9814453125,5.55419921875,9.94873046875
13.0899999,9.481039047241211,3.1483752727508545,0.7996633648872375,-20.5078125,6.3934326171875,12.6953125
13.1099999,9.536105155944824,3.0885202884674072,1.0007762908935547,2.899169921875,-8.4381103515625,7.6141357421875
13.129999900000001,9.536105155944824,3.093308687210083,1.0749965906143188,25.8636474609375,-20.7061767578125,0.030517578125
13.149999900000001,9.481039047241211,3.1483752727508545,0.9241618514060974,11.6119384765625,-12.3291015625,2.9449462890625
13.1699999,9.406818389892578,3.2752678394317627,0.5530605912208557,-16.3421630859375,5.5084228515625,12.87841796875
13.1899999,9.35893440246582,3.3901896476745605,0.2825157940387726,-34.1949462890625,12.451171875,18.5394287109375
13.209999900000001,9.385271072387695,3.3925838470458984,0.2082955539226532,-15.3656005859375,2.62451171875,16.6015625
13.229999900000001,9.452308654785156,3.3039982318878174,0.3663128614425659,4.0283203125,-8.056640625,8.819580078125
13.2499999,9.528923034667969,3.2345664501190186,0.5123591423034668,10.6353759765625,-7.2479248046875,6.3934326171875
13.2699999,9.569623947143555,3.2178070545196533,0.5841852426528931,-2.960205078125,-0.4119873046875,12.298583984375
13.289999900000002,9.57441234588623,3.2297780513763428,0.6057330369949341,-16.7999267578125,3.96728515625,20.5078125
13.309999900000001,9.543288230895996,3.2106244564056396,0.6105214357376099,-4.6844482421875,-1.4495849609375,19.1650390625
13.3299999,9.502586364746094,3.098097085952759,0.6272808313369751,11.2762451171875,-5.7830810546875,14.892578125
13.3499999,9.437943458557129,2.9735984802246094,0.569819986820221,9.8724365234375,-4.2266845703125,12.0697021484375
13.3699999,9.378087997436523,2.8562827110290527,0.4836287498474121,-0.2899169921875,3.326416015625,15.6402587890625
13.389999900000001,9.32541561126709,2.784456491470337,0.37828385829925537,-6.011962890625,5.859375,17.3187255859375
13.4099999,9.282320022583008,2.7269957065582275,0.3064578175544739,-5.6915283203125,2.6092529296875,16.0675048828125
13.4299999,9.222464561462402,2.6671407222747803,0.2513911724090576,-5.767822265625,1.1444091796875,14.7857666015625
13.4499999,9.126696586608887,2.580949544906616,0.19632454216480255,0.67138671875,9.368896484375,15.3961181640625
13.469999900000001,9.006986618041992,2.5330653190612793,0.21308395266532898,-1.0528564453125,16.448974609375,12.1917724609375
13.4899999,8.899248123168945,2.4157495498657227,0.2849099934101105,-3.60107421875,13.7481689453125,13.0157470703125
13.5099999,8.844181060791016,2.276885747909546,0.42377370595932007,-2.44140625,9.124755859375,12.6800537109375
13.5299999,8.889671325683594,2.1380221843719482,0.6703764796257019,-18.798828125,13.12255859375,7.26318359375
13.549999900000001,9.047688484191895,1.9967641830444336,0.9792284965515137,-22.6287841796875,13.18359375,4.3487548828125
13.569999900000001,9.26795482635498,1.9249382019042969,1.2665326595306396,0.4730224609375,-1.495361328125,2.2735595703125
13.5899999,9.500192642211914,1.9369091987609863,1.4197616577148438,18.8446044921875,-13.2293701171875,-2.655029296875
13.6099999,9.691728591918945,2.0183119773864746,1.3670891523361206,13.6566162109375,-7.8277587890625,-3.41796875
13.629999900000001,9.792284965515137,2.164358377456665,1.0893617868423462,-8.60595703125,0.579833984375,0.2899169921875
13.649999900000001,9.835380554199219,2.3295583724975586,0.7445967197418213,-9.2315673828125,3.8299560546875,4.486083984375
13.6699999,9.837775230407715,2.518700122833252,0.5434837937355042,-8.7432861328125,5.67626953125,4.3182373046875
13.6899999,9.818621635437012,2.650381326675415,0.47644615173339844,-5.5084228515625,5.1422119140625,7.965087890625
13.709999900000001,9.780313491821289,2.6647465229034424,0.5626373887062073,-7.598876953125,5.5084228515625,15.1824951171875
13.729999900000001,9.727641105651855,2.585737943649292,0.7445967197418213,-6.8359375,5.4931640625,12.4053955078125
13.7499999,9.653421401977539,2.389413356781006,0.9624691009521484,-7.8887939453125,0.5645751953125,5.18798828125
13.7699999,9.579200744628906,2.164358377456665,1.1468225717544556,5.5694580078125,-7.0037841796875,-0.091552734375
13.789999900000002,9.488221168518066,2.099714994430542,1.1635819673538208,17.4713134765625,-13.4735107421875,-6.500244140625
13.809999900000001,9.425971984863281,2.164358377456665,0.9744400978088379,18.341064453125,-9.307861328125,-1.5411376953125
13.8299999,9.39245319366455,2.33913516998291,0.727837324142456,0.9613037109375,5.2032470703125,9.9334716796875
13.8499999,9.433155059814453,2.492363929748535,0.5291185975074768,4.0435791015625,11.7645263671875,13.73291015625
13.8699999,9.50737476348877,2.518700122833252,0.507570743560791,13.4429931640625,4.0283203125,10.833740234375
13.889999900000001,9.619902610778809,2.38462495803833,0.6536170840263367,14.3890380859375,-0.8392333984375,8.941650390625
13.9099999,9.718064308166504,2.2218191623687744,0.811634361743927,4.4708251953125,-2.227783203125,4.45556640625
13.9299999,9.787496566772461,2.0805611610412598,0.9313444495201111,2.0599365234375,0.640869140625,3.6773681640625
13.9499999,9.830592155456543,1.9991583824157715,0.9648633003234863,-0.91552734375,-2.166748046875,8.1329345703125
13.969999900000001,9.856928825378418,1.9967641830444336,0.9696516990661621,-3.47900390625,-2.2125244140625,10.040283203125
13.9899999,9.86650562286377,1.9967641830444336,0.9792284965515137,-5.7525634765625,-0.2899169921875,9.8114013671875
14.0099999,9.849745750427246,2.0015525817871094,0.9169792532920837,4.608154296875,-6.53076171875,9.2315673828125
14.0299999,9.837775230407715,1.9776105880737305,0.849941611289978,16.0980224609375,-5.4473876953125,7.6141357421875
14.049999900000001,9.792284965515137,2.0254945755004883,0.7422025203704834,6.40869140625,-1.9378662109375,3.8909912109375
14.069999900000001,9.746794700622559,2.0470423698425293,0.6392518281936646,-8.1024169921875,-0.7781982421875,9.2620849609375
14.0899999,9.6989107131958,2.0925323963165283,0.5123591423034668,-6.9122314453125,-2.8076171875,14.923095703125
14.1099999,9.655815124511719,2.10210919380188,0.4908113479614258,-12.298583984375,-0.0152587890625,12.8021240234375
14.129999900000001,9.619902610778809,2.0231003761291504,0.5482721924781799,-15.4876708984375,1.1444091796875,10.6201171875
14.149999900000001,9.567230224609375,1.8698714971542358,0.5913678407669067,-2.899169921875,-9.09423828125,10.3302001953125
14.1699999,9.490615844726562,1.7070658206939697,0.6344634294509888,-1.9989013671875,-11.3372802734375,9.674072265625
14.1899999,9.375694274902344,1.5179238319396973,0.5650315880775452,-6.8817138671875,-2.685546875,10.0555419921875
14.209999900000001,9.272743225097656,1.3192051649093628,0.44532153010368347,-18.73779296875,2.9144287109375,11.444091796875
14.229999900000001,9.198522567749023,1.2401964664459229,0.35913026332855225,-25.390625,1.922607421875,2.6397705078125
14.2499999,9.198522567749023,1.194706678390503,0.27054479718208313,-9.7808837890625,-0.946044921875,2.13623046875
14.2699999,9.279925346374512,1.2497732639312744,0.272938996553421,-7.8887939453125,6.1492919921875,7.568359375
14.289999900000002,9.41400146484375,1.3335703611373901,0.38067805767059326,-24.993896484375,11.29150390625,6.2103271484375
14.309999900000001,9.57441234588623,1.3766659498214722,0.5674257874488831,-6.5155029296875,1.2664794921875,0.762939453125
14.3299999,9.708487510681152,1.4053963422775269,0.7422025203704834,28.0303955078125,-11.5509033203125,-6.561279296875
14.3499999,9.797073364257812,1.4748282432556152,0.8092401623725891,21.5301513671875,-9.82666015625,-6.0577392578125
14.3699999,9.856928825378418,1.558625340461731,0.7876923680305481,-5.096435546875,3.2806396484375,0.6561279296875
14.389999900000001,9.890447616577148,1.7070658206939697,0.7398083209991455,-3.4332275390625,1.4190673828125,0.30517578125
14.4099999,9.921571731567383,1.824381709098816,0.6943184733390808,26.641845703125,-11.53564453125,-2.838134765625
14.4299999,9.947908401489258,1.9057846069335938,0.7230489253997803,27.83203125,-12.3443603515625,-1.4801025390625
14.4499999,9.945513725280762,1.9800047874450684,0.7493851184844971,21.78955078125,-4.791259765625,-0.8544921875
14.469999900000001,9.914389610290527,2.0446481704711914,0.6153098344802856,51.055908203125,-9.1705322265625,1.1749267578125
14.4899999,9.861717224121094,2.03507137298584,0.48602294921875,45.4254150390625,-9.94873046875,7.9803466796875
14.5099999,9.804255485534668,2.0039467811584473,0.3256114423274994,6.8359375,-1.861572265625,9.521484375
14.5299999,9.75637149810791,1.8722656965255737,0.2082955539226532,-8.6212158203125,-0.640869140625,8.5601806640625
14.549999900000001,9.739612579345703,1.745373010635376,0.17956513166427612,0.5340576171875,-5.7525634765625,6.4697265625
14.569999900000001,9.75637149810791,1.6352397203445435,0.24181437492370605,0.732421875,-12.20703125,6.2408447265625
14.5899999,9.794678688049316,1.6041151285171509,0.31842881441116333,8.056640625,-10.6658935546875,7.4462890625
14.6099999,9.828198432922363,1.5658079385757446,0.28730419278144836,6.591796875,-11.749267578125,11.0931396484375
14.629999900000001,9.856928825378418,1.5107412338256836,0.26815059781074524,-9.8876953125,-9.5062255859375,13.275146484375
14.649999900000001,9.86889934539795,1.3766659498214722,0.26096799969673157,-5.828857421875,-9.552001953125,8.30078125
14.6699999,9.861717224121094,1.2114660739898682,0.2561795711517334,14.6026611328125,-14.862060546875,3.60107421875
14.6899999,9.81143856048584,1.0797849893569946,0.17717093229293823,14.8162841796875,-22.2930908203125,0.823974609375
14.709999900000001,9.730035781860352,1.0342950820922852,-0.038307227194309235,-1.0833740234375,-16.1590576171875,5.615234375
14.729999900000001,9.646238327026367,1.0295066833496094,-0.304063618183136,-18.1884765625,-0.9765625,11.077880859375
14.7499999,9.593565940856934,1.0606313943862915,-0.4884171485900879,-14.3280029296875,6.5460205078125,10.9100341796875
14.7699999,9.603142738342285,1.0678139925003052,-0.5339069962501526,3.8909912109375,0.5950927734375,6.89697265625
14.789999900000002,9.651026725769043,1.0797849893569946,-0.38546648621559143,0.885009765625,-0.457763671875,6.5460205078125
14.809999900000001,9.703699111938477,1.1085153818130493,-0.24899697303771973,-3.3721923828125,-0.30517578125,8.8043212890625
14.8299999,9.72285270690918,1.1683704853057861,-0.2082955539226532,3.90625,-0.3662109375,10.31494140625
14.8499999,9.718064308166504,1.2018892765045166,-0.2106897532939911,-4.3487548828125,4.730224609375,11.3983154296875
14.8699999,9.68933391571045,1.2042834758758545,-0.21308395266532898,-8.6669921875,5.401611328125,8.544921875
14.889999900000001,9.653421401977539,1.1635819673538208,-0.2513911724090576,3.4332275390625,-3.2501220703125,5.5999755859375
14.9099999,9.622296333312988,1.0965443849563599,-0.27054479718208313,3.0975341796875,-4.0130615234375,5.92041015625
14.9299999,9.593565940856934,1.0414776802062988,-0.31842881441116333,-10.31494140625,1.9989013671875,5.706787109375
14.9499999,9.579200744628906,1.0271124839782715,-0.4429273009300232,-17.5018310546875,3.753662109375,6.4544677734375
14.969999900000001,9.59835433959961,1.0079588890075684,-0.4572925269603729,-26.702880859375,7.8277587890625,10.7574462890625
14.9899999,9.648633003234863,0.9720458984375,-0.3280056416988373,-22.0489501953125,12.8173828125,14.6636962890625
15.0099999,9.739612579345703,0.8858546018600464,-0.1364694982767105,-2.777099609375,3.0517578125,11.749267578125
15.0299999,9.84495735168457,0.7565677165985107,0.19632454216480255,5.8135986328125,-0.0762939453125,6.011962890625
15.049999900000001,9.919178009033203,0.6967126727104187,0.33997663855552673,25.787353515625,-6.9732666015625,0.1068115234375
15.069999900000001,9.947908401489258,0.689530074596405,0.28730419278144836,29.2510986328125,-10.0555419921875,3.265380859375
15.0899999,9.921571731567383,0.7493851184844971,0.10773907601833344,-0.335693359375,1.495361328125,9.7198486328125
15.1099999,9.864110946655273,0.7637503147125244,-0.08858546614646912,-17.578125,8.3160400390625,13.73291015625
15.129999900000001,9.821015357971191,0.6967126727104187,-0.13407529890537262,7.720947265625,5.1422119140625,12.7716064453125
15.149999900000001,9.78989028930664,0.5530605912208557,-0.031124621629714966,34.5916748046875,-3.021240234375,7.2021484375
15.1699999,9.763554573059082,0.4405331015586853,0.016759412363171577,43.182373046875,-9.4451904296875,1.0528564453125
15.1899999,9.737217903137207,0.3902548849582672,-0.014365210197865963,27.1453857421875,-2.960205078125,3.2501220703125
15.209999900000001,9.708487510681152,0.44532153010368347,-0.19153612852096558,17.0135498046875,4.45556640625,6.1798095703125
15.229999900000001,9.706093788146973,0.5506663918495178,-0.31603461503982544,7.476806640625,6.3629150390625,6.866455078125
15.2499999,9.749189376831055,0.6751648783683777,-0.3519476354122162,8.97216796875,2.685546875,6.1492919921875
15.2699999,9.806650161743164,0.8403648138046265,-0.2849099934101105,18.310546875,0.4425048828125,4.39453125
15.289999900000002,9.880870819091797,0.9576807022094727,-0.22266076505184174,29.571533203125,0.8392333984375,9.8419189453125
15.309999900000001,9.919178009033203,1.072602391242981,-0.09816227108240128,24.169921875,5.0201416015625,15.045166015625
15.3299999,9.931148529052734,1.0342950820922852,-0.12689268589019775,33.355712890625,1.861572265625,18.12744140625
15.3499999,9.909601211547852,0.8978256583213806,-0.1604115068912506,26.1688232421875,2.5177001953125,16.7388916015625
15.3699999,9.888052940368652,0.7038952708244324,-0.1604115068912506,1.007080078125,8.514404296875,12.1612548828125
15.389999900000001,9.856928825378418,0.5027823448181152,-0.15562310814857483,8.2550048828125,4.7149658203125,11.962890625
15.4099999,9.825803756713867,0.3519476354122162,-0.15083470940589905,27.4200439453125,-1.52587890625,14.9078369140625
15.4299999,9.801861763000488,0.21787235140800476,-0.043095629662275314,7.781982421875,3.936767578125,14.9383544921875
15.4499999,9.768342971801758,0.090979665517807,-0.031124621629714966,4.2724609375,4.82177734375,10.5133056640625
15.469999900000001,9.737217903137207,-0.031124621629714966,-0.019153613597154617,13.5498046875,-1.8768310546875,7.2479248046875
15.4899999,9.710882186889648,-0.1364694982767105,0.021547814831137657,6.3018798828125,-1.3427734375,5.828857421875
15.5099999,9.677363395690918,-0.1843535304069519,0.004788403399288654,5.889892578125,-0.335693359375,5.7830810546875
15.5299999,9.646238327026367,-0.21308395266532898,-0.002394201699644327,6.7596435546875,0.42724609375,6.8817138671875
15.549999900000001,9.612719535827637,-0.22505496442317963,-0.05027823522686958,15.19775390625,2.044677734375,7.26318359375
15.569999900000001,9.600749015808105,-0.22505496442317963,-0.11252748221158981,18.218994140625,1.708984375,5.18798828125
15.5899999,9.603142738342285,-0.1867477297782898,-0.16998831927776337,9.4451904296875,4.425048828125,2.1209716796875
15.6099999,9.619902610778809,-0.12689268589019775,-0.2106897532939911,15.93017578125,5.55419921875,4.5013427734375
15.629999900000001,9.655815124511719,-0.0454898327589035,-0.31364041566848755,28.25927734375,5.5999755859375,7.1868896484375
15.649999900000001,9.68933391571045,0.0454898327589035,-0.26336219906806946,10.5438232421875,12.7716064453125,7.0343017578125
15.6699999,9.732429504394531,0.047884032130241394,-0.26096799969673157,14.0838623046875,11.993408203125,7.110595703125
15.6899999,9.758766174316406,0.014365210197865963,-0.19393034279346466,33.4930419921875,8.392333984375,4.6234130859375
15.709999900000001,9.785101890563965,-0.047884032130241394,-0.08379705995321274,18.3563232421875,8.8043212890625,2.3956298828125
15.729999900000001,9.799467086791992,-0.08379705995321274,-0.028730420395731926,7.99560546875,10.284423828125,3.173828125
15.7499999,9.81143856048584,-0.08379705995321274,-0.016759412363171577,12.20703125,9.5367431640625,6.7138671875
15.7699999,9.873687744140625,0.1149216815829277,0.033518824726343155,5.859375,13.519287109375,7.7056884765625
15.789999900000002,9.931148529052734,0.21308395266532898,0.028730420395731926,18.646240234375,13.2293701171875,13.7481689453125
15.809999900000001,9.99100399017334,0.27054479718208313,0.14365209639072418,9.124755859375,16.204833984375,14.6026611328125
15.8299999,10.038887977600098,0.23702596127986908,0.24899697303771973,15.31982421875,12.39013671875,10.8489990234375
15.8499999,10.046070098876953,0.1149216815829277,0.31603461503982544,23.1170654296875,3.173828125,9.4757080078125
15.869999900000002,10.002974510192871,-0.08140286058187485,0.37828385829925537,-1.1749267578125,6.927490234375,13.12255859375
15.889999900000001,9.923966407775879,-0.26096799969673157,0.3878606855869293,-15.13671875,13.2904052734375,12.3748779296875
15.9099999,9.847352027893066,-0.4381389021873474,0.4213795065879822,2.2430419921875,12.8173828125,10.9100341796875
15.9299999,9.799467086791992,-0.5650315880775452,0.5315127968788147,2.105712890625,6.9122314453125,10.31494140625
15.9499999,9.782708168029785,-0.6727706789970398,0.6727706789970398,-7.6446533203125,1.0986328125,8.2244873046875
15.969999900000001,9.765948295593262,-0.7206547260284424,0.7805097699165344,-12.75634765625,-1.556396484375,5.1422119140625
15.9899999,9.732429504394531,-0.7924807667732239,0.751779317855835,6.072998046875,-1.2969970703125,6.3934326171875
16.0099999,9.670180320739746,-0.8212111592292786,0.6823474764823914,2.01416015625,2.410888671875,5.615234375
16.0299999,9.619902610778809,-0.8307880163192749,0.524330198764801,1.1138916015625,5.6304931640625,5.06591796875
16.0499999,9.59596061706543,-0.7924807667732239,0.43095630407333374,-10.1470947265625,5.0048828125,5.18798828125
16.0699999,9.615114212036133,-0.7350199222564697,0.35434186458587646,-4.7607421875,1.0528564453125,4.974365234375
16.089999900000002,9.655815124511719,-0.6440402865409851,0.31364041566848755,7.0037841796875,0.823974609375,3.204345703125
16.109999900000002,9.715670585632324,-0.569819986820221,0.26575639843940735,9.5977783203125,4.1046142578125,1.9989013671875
16.1299999,9.768342971801758,-0.4836287498474121,0.26575639843940735,-8.056640625,7.8125,3.1890869140625
16.1499999,9.818621635437012,-0.45489832758903503,0.30885201692581177,-8.9111328125,6.2103271484375,6.8511962890625
16.1699999,9.847352027893066,-0.43095630407333374,0.3902548849582672,2.7008056640625,2.5787353515625,6.8817138671875
16.1899999,9.859322547912598,-0.47644615173339844,0.5027823448181152,-0.7476806640625,3.9215087890625,5.706787109375
16.2099999,9.84495735168457,-0.5626373887062073,0.5722141861915588,-7.843017578125,3.0364990234375,6.8511962890625
16.2299999,9.825803756713867,-0.6248866319656372,0.6033388376235962,-10.772705078125,1.2664794921875,4.9591064453125
16.249999900000002,9.81143856048584,-0.6847416758537292,0.646434485912323,-9.857177734375,-0.0457763671875,4.3487548828125
16.269999900000002,9.792284965515137,-0.7086837291717529,0.6368576288223267,-1.0986328125,-0.30517578125,6.16455078125
16.2899999,9.775525093078613,-0.730231523513794,0.5770025849342346,3.692626953125,-0.18310546875,6.8817138671875
16.3099999,9.746794700622559,-0.7709329724311829,0.5482721924781799,-4.150390625,5.4473876953125,5.2337646484375
16.3299999,9.710882186889648,-0.8475474119186401,0.48602294921875,-3.448486328125,3.4027099609375,4.39453125
16.3499999,9.677363395690918,-0.9409212470054626,0.4884171485900879,-2.8228759765625,0.5950927734375,3.4027099609375
16.3699999,9.639056205749512,-1.05105459690094,0.5363011956214905,-6.4849853515625,0.9765625,2.777099609375
16.3899999,9.605537414550781,-1.1540051698684692,0.5602431893348694,-1.6326904296875,0.7781982421875,2.197265625
16.4099999,9.557653427124023,-1.2856862545013428,0.6344634294509888,-6.683349609375,-0.2288818359375,1.2359619140625
16.429999900000002,9.48343276977539,-1.4748282432556152,0.6799532771110535,-1.8157958984375,-4.3792724609375,-0.48828125
16.4499999,9.385271072387695,-1.7405846118927002,0.6823474764823914,14.068603515625,-7.7667236328125,-5.9967041015625
16.4699999,9.275136947631836,-2.10210919380188,0.689530074596405,12.4664306640625,-5.5999755859375,-11.9476318359375
16.4899999,9.150638580322266,-2.5306711196899414,0.6871358752250671,-2.4261474609375,-9.490966796875,-19.4091796875
16.5099999,8.99740982055664,-3.0526070594787598,0.6919242739677429,17.6544189453125,-20.355224609375,-26.4739990234375
16.5299999,8.757989883422852,-3.6296098232269287,0.7350199222564697,27.5421142578125,-30.8685302734375,-34.454345703125
16.5499999,8.382100105285645,-4.268861770629883,0.5841852426528931,29.72412109375,-36.92626953125,-42.1142578125
16.5699999,7.9631147384643555,-4.953603267669678,0.33518823981285095,10.25390625,-23.7274169921875,-44.4488525390625
16.589999900000002,7.637503623962402,-5.427655220031738,0.0694318488240242,0.579833984375,-5.2032470703125,-62.408447265625
16.609999900000002,7.577648162841797,-5.578489780426025,-0.009576806798577309,12.939453125,-3.7994384765625,-80.810546875
16.6299999,7.814674377441406,-5.284003257751465,0.028730420395731926,4.5166015625,-21.942138671875,-82.855224609375
16.6499999,8.372523307800293,-4.78122091293335,0.09576806426048279,-36.07177734375,-25.69580078125,-71.0601806640625
16.6699999,9.148244857788086,-4.335899353027344,0.16998831927776337,-37.04833984375,-6.4544677734375,-73.1353759765625
16.6899999,10.096348762512207,-4.05817174911499,-0.05506663769483566,40.4052734375,-11.749267578125,-100.52490234375
16.7099999,11.166556358337402,-3.9456443786621094,0.1628057211637497,49.1180419921875,-8.453369140625,-113.0828857421875
16.7299999,12.18648624420166,-3.469198226928711,-0.0933738648891449,-23.7274169921875,-31.2957763671875,-103.8360595703125
16.749999900000002,13.141773223876953,-2.6168625354766846,-0.15562310814857483,-101.74560546875,-18.3258056640625,-55.9844970703125
16.769999900000002,13.685256958007812,-2.161964178085327,-0.26815059781074524,-129.8828125,5.6915283203125,-25.1312255859375
16.7899999,13.630189895629883,-1.3551181554794312,-0.9983820915222168,23.5443115234375,-40.4510498046875,-102.4017333984375
16.8099999,12.890381813049316,1.1013327836990356,-1.9512743949890137,66.680908203125,-2.532958984375,-179.8248291015625
16.8299999,11.808202743530273,2.691082715988159,-2.382230758666992,-159.5001220703125,136.322021484375,-18.035888671875
16.8499999,10.338163375854492,5.363011837005615,-1.9153614044189453,-140.716552734375,145.721435546875,-0.9613037109375
16.8699999,8.810662269592285,7.074865818023682,-1.0678139925003052,53.253173828125,6.4697265625,-156.9976806640625
16.8899999,7.113173484802246,7.546523571014404,1.4772224426269531,48.1414794921875,11.0931396484375,-187.744140625
16.9099999,5.137956619262695,7.934384346008301,2.9448680877685547,15.2740478515625,-2.13623046875,-180.2520751953125
16.929999900000002,3.335123062133789,9.102754592895508,4.036623954772949,57.2967529296875,-47.210693359375,-211.85302734375
16.9499999,2.188300371170044,10.903194427490234,4.316745758056641,27.191162109375,-39.0777587890625,-209.197998046875
16.9699999,2.0661959648132324,13.654131889343262,2.4157495498657227,49.13330078125,-108.21533203125,-146.697998046875
16.9899999,2.7988216876983643,16.531963348388672,-0.2585737705230713,15.472412109375,-38.9556884765625,-46.93603515625
17.0099999,3.7708675861358643,17.48485565185547,-2.9017724990844727,-69.9920654296875,76.7974853515625,62.9119873046875
17.0299999,4.462791919708252,15.98129653930664,-4.146757125854492,-51.4373779296875,75.98876953125,77.2552490234375
17.0499999,4.623203277587891,12.112266540527344,-2.985569477081299,-21.484375,10.3759765625,7.3394775390625
17.0699999,4.5394062995910645,7.644686222076416,-0.7374141216278076,7.080078125,-70.73974609375,-42.4041748046875
17.089999900000002,4.527435302734375,4.5394062995910645,0.8690952062606812,18.8140869140625,-84.1827392578125,-47.4853515625
17.109999900000002,4.8482584953308105,3.4548330307006836,0.9193734526634216,6.4849853515625,-22.6898193359375,-11.7645263671875
17.1299999,5.453991413116455,4.0078935623168945,0.47884035110473633,-69.3511962890625,69.82421875,12.75634765625
17.1499999,6.169857978820801,5.094861030578613,-0.10534487664699554,-37.4298095703125,46.8292236328125,16.448974609375
17.1699999,6.842628479003906,5.947196960449219,0.16759411990642548,18.951416015625,-3.814697265625,9.8724365234375
17.1899999,7.38132381439209,6.464344501495361,0.7254431247711182,24.0631103515625,-7.26318359375,1.1749267578125
17.2099999,7.733271598815918,6.687005519866943,1.1563993692398071,-17.8375244140625,8.5601806640625,-1.1749267578125
17.2299999,7.982268333435059,6.866570472717285,1.1899182796478271,-27.130126953125,6.2408447265625,6.500244140625
17.249999900000002,8.159439086914062,7.101202011108398,1.1348515748977661,-13.6566162109375,-1.251220703125,9.9639892578125
17.269999900000002,8.221688270568848,7.271190643310547,0.8762778043746948,-0.0152587890625,-5.096435546875,14.0838623046875
17.2899999,8.157045364379883,7.201758861541748,0.5530605912208557,7.0343017578125,4.2724609375,19.6685791015625
17.3099999,7.975085735321045,6.828263282775879,0.3447650372982025,4.2724609375,18.00537109375,17.4560546875
17.3299999,7.714118003845215,6.27280855178833,0.2513911724090576,9.7503662109375,8.2244873046875,8.5296630859375
17.3499999,7.508216381072998,5.683835029602051,0.3471592366695404,10.80322265625,-4.4403076171875,2.6397705078125
17.3699999,7.38132381439209,5.298368453979492,0.4357447028160095,5.7373046875,-3.1280517578125,-1.0223388671875
17.3899999,7.3693528175354,5.272032260894775,0.30885201692581177,6.378173828125,1.40380859375,-4.08935546875
17.409999900000003,7.462726593017578,5.494692802429199,0.14844051003456116,2.6092529296875,11.2762451171875,0.4119873046875
17.429999900000002,7.560888767242432,5.808333396911621,0.090979665517807,-3.11279296875,13.6566162109375,9.368896484375
17.4499999,7.603984832763672,5.9974751472473145,0.05985504388809204,6.28662109375,0.2288818359375,11.4898681640625
17.4699999,7.515398979187012,6.01423454284668,0.24420857429504395,1.5716552734375,2.8839111328125,4.974365234375
17.4899999,7.343016624450684,5.748478412628174,0.3687070608139038,-10.19287109375,7.87353515625,3.5858154296875
17.5099999,7.144298076629639,5.566518783569336,0.43335050344467163,-12.1002197265625,5.9814453125,-2.8839111328125
17.5299999,7.022193431854248,5.451597213745117,0.4381389021873474,-4.5623779296875,6.561279296875,-5.5694580078125
17.5499999,6.98628044128418,5.475539207458496,0.4884171485900879,-4.669189453125,11.627197265625,-2.044677734375
17.5699999,7.036558628082275,5.549759387969971,0.45250412821769714,-4.1351318359375,8.4075927734375,-0.244140625
17.589999900000002,7.161057472229004,5.693411827087402,0.4908113479614258,-7.1258544921875,7.080078125,-6.927490234375
17.609999900000002,7.333439826965332,5.815515995025635,0.5578489899635315,-8.8043212890625,9.246826171875,-8.9874267578125
17.6299999,7.536946773529053,6.004657745361328,0.5674257874488831,-1.5716552734375,4.1046142578125,-4.638671875
17.6499999,7.750030994415283,6.246472358703613,0.569819986820221,-1.617431640625,1.4495849609375,-3.0364990234375
17.6699999,7.922413349151611,6.423643112182617,0.586579442024231,-11.260986328125,4.4097900390625,1.6632080078125
17.6899999,8.020575523376465,6.493074893951416,0.5841852426528931,-18.157958984375,0.7476806640625,4.33349609375
17.7099999,8.030152320861816,6.490680694580078,0.5817909836769104,-11.4288330078125,-3.143310546875,2.0904541015625
17.7299999,7.982268333435059,6.414066314697266,0.5626373887062073,-4.7454833984375,-0.9918212890625,1.6326904296875
17.749999900000002,7.886500358581543,6.366182327270508,0.5219359993934631,-4.45556640625,3.84521484375,1.800537109375
17.769999900000002,7.790732383728027,6.3302693367004395,0.4884171485900879,-2.9449462890625,4.638671875,3.23486328125
17.7899999,7.704541206359863,6.294356346130371,0.4884171485900879,1.0986328125,1.373291015625,3.8604736328125
17.8099999,7.637503623962402,6.270414352416992,0.5410895943641663,2.2430419921875,1.983642578125,2.0904541015625
17.8299999,7.594407558441162,6.222530364990234,0.5817909836769104,0.701904296875,4.302978515625,2.6092529296875
17.8499999,7.5632829666137695,6.212953567504883,0.6057330369949341,0.3509521484375,4.150390625,3.265380859375
17.8699999,7.553706169128418,6.186617374420166,0.6919242739677429,-1.251220703125,6.378173828125,4.638671875
17.8899999,7.546523571014404,6.157886981964111,0.7086837291717529,1.373291015625,1.64794921875,3.753662109375
17.909999900000003,7.544129371643066,6.121973514556885,0.7350199222564697,1.953125,1.46484375,2.0294189453125
17.929999900000002,7.544129371643066,6.066906929016113,0.7445967197418213,-2.0294189453125,8.087158203125,2.6702880859375
17.9499999,7.55131196975708,6.033388137817383,0.7326257228851318,-0.091552734375,6.9732666015625,3.7841796875
17.9699999,7.548917770385742,5.987898349761963,0.7852981686592102,-1.2664794921875,5.1727294921875,3.90625
17.9899999,7.546523571014404,5.880159378051758,0.8355764150619507,-0.6561279296875,3.5247802734375,5.0811767578125
18.0099999,7.534552574157715,5.810727596282959,0.8930372595787048,-5.157470703125,4.3487548828125,0.4425048828125
18.0299999,7.544129371643066,5.719748020172119,0.9265560507774353,-7.965087890625,6.8359375,-1.1444091796875
18.0499999,7.558494567871094,5.746084213256836,0.933738648891449,-7.080078125,5.3558349609375,-1.861572265625
18.0699999,7.599195957183838,5.8203043937683105,0.9552865028381348,-6.1798095703125,4.82177734375,-0.5340576171875
18.089999900000002,7.632715225219727,5.935225963592529,0.9720458984375,-4.08935546875,4.638671875,0.2593994140625
18.109999900000002,7.661445617675781,6.016628742218018,0.9696516990661621,-1.1138916015625,3.662109375,-0.0457763671875
18.1299999,7.687781810760498,6.088454723358154,0.9816226959228516,-5.4931640625,4.69970703125,0.1068115234375
18.1499999,7.711723804473877,6.13633918762207,0.9888052940368652,-8.11767578125,3.4332275390625,0.579833984375
18.1699999,7.728483200073242,6.167463779449463,1.0103530883789062,-5.462646484375,1.2969970703125,2.6702880859375
18.1899999,7.726089000701904,6.165069580078125,1.0055646896362305,-1.6632080078125,-0.213623046875,3.936767578125
18.2099999,7.690176010131836,6.1267619132995605,1.0007762908935547,-2.13623046875,2.01416015625,3.3111572265625
18.2299999,7.625532627105713,6.0405707359313965,0.9816226959228516,-2.1820068359375,4.2266845703125,3.3416748046875
18.249999900000002,7.546523571014404,5.918466567993164,0.9600749015808105,-1.5716552734375,3.11279296875,3.6773681640625
18.269999900000002,7.491456985473633,5.810727596282959,1.0103530883789062,-2.8839111328125,4.1351318359375,1.3427734375
18.2899999,7.467514991760254,5.7341132164001465,1.0654197931289673,-1.9989013671875,1.129150390625,-1.739501953125
18.3099999,7.493851184844971,5.686229228973389,1.1348515748977661,5.7373046875,-3.0364990234375,-1.0986328125
18.3299999,7.556100368499756,5.729324817657471,1.2066776752471924,4.638671875,-1.312255859375,-1.8310546875
18.3499999,7.625532627105713,5.779603004455566,1.1994950771331787,2.685546875,-3.2958984375,-1.3427734375
18.3699999,7.694964408874512,5.837063789367676,1.1827356815338135,0.6256103515625,-2.5177001953125,-0.9307861328125
18.3899999,7.747636795043945,5.901707172393799,1.113303780555725,-0.4119873046875,-1.0223388671875,-2.1514892578125
18.409999900000003,7.795520782470703,5.959167957305908,1.0319008827209473,-0.91552734375,-0.06103515625,-2.838134765625
18.429999900000002,7.836222171783447,6.023811340332031,0.9911994934082031,-6.195068359375,0.8087158203125,-2.01416015625
18.4499999,7.869740962982178,6.09324312210083,0.9672574996948242,-8.30078125,-0.1983642578125,-0.5950927734375
18.4699999,7.891288757324219,6.141127586364746,0.9768342971801758,-3.631591796875,-1.4801025390625,0.0762939453125
18.4899999,7.891288757324219,6.179434776306152,0.9385270476341248,3.0059814453125,-2.6092529296875,-0.30517578125
18.5099999,7.876923561096191,6.169857978820801,0.9193734526634216,0.67138671875,2.4261474609375,-0.06103515625
18.5299999,7.838616371154785,6.14831018447876,0.8523358106613159,-2.288818359375,3.7689208984375,0.54931640625
18.5499999,7.795520782470703,6.102819919586182,0.8451532125473022,-6.072998046875,3.7078857421875,0.2288818359375
18.5699999,7.747636795043945,6.0405707359313965,0.8858546018600464,-6.561279296875,2.7008056640625,0.1373291015625
18.589999900000002,7.702147006988525,5.987898349761963,0.933738648891449,-5.9356689453125,-0.274658203125,-0.1373291015625
18.609999900000002,7.663839817047119,5.954379558563232,0.9768342971801758,-7.3089599609375,0.1678466796875,-0.8392333984375
18.6299999,7.6351094245910645,5.942408561706543,0.9864110946655273,-8.23974609375,2.044677734375,-0.6561279296875
18.6499999,7.613561630249023,5.9519853591918945,0.9864110946655273,-6.6070556640625,2.960205078125,-0.1678466796875
18.6699999,7.594407558441162,5.949591159820557,0.9888052940368652,-3.8909912109375,2.3193359375,0.6866455078125
18.6899999,7.580042362213135,5.942408561706543,1.0223240852355957,-4.5623779296875,2.410888671875,0
18.7099999,7.575253963470459,5.918466567993164,1.072602391242981,-5.67626953125,1.77001953125,-0.213623046875
18.7299999,7.577648162841797,5.899312973022461,1.1085153818130493,-4.8065185546875,-0.7781982421875,-0.701904296875
18.749999900000002,7.587224960327148,5.892130374908447,1.139639973640442,-3.326416015625,-0.1983642578125,-0.91552734375
18.769999900000002,7.601590633392334,5.894524574279785,1.1348515748977661,0.152587890625,1.556396484375,-1.03759765625
18.7899999,7.613561630249023,5.920860767364502,1.113303780555725,2.3956298828125,0.9918212890625,-1.708984375
18.8099999,7.632715225219727,5.95677375793457,1.1013327836990356,0.91552734375,1.9073486328125,-1.40380859375
18.8299999,7.654263019561768,6.016628742218018,1.0869675874710083,0.67138671875,0.67138671875,-0.701904296875
18.8499999,7.671022415161133,6.069301128387451,1.0989385843276978,-0.5645751953125,0.1220703125,0.335693359375
18.8699999,7.682993412017822,6.1052141189575195,1.0845733880996704,1.678466796875,-0.4730224609375,1.6632080078125
18.8899999,7.682993412017822,6.095637321472168,1.070208191871643,1.8768310546875,0.48828125,1.5716552734375
18.909999900000003,7.6782050132751465,6.066906929016113,1.0797849893569946,-3.4942626953125,3.326416015625,0.396728515625
18.929999900000002,7.675810813903809,6.01423454284668,1.0893617868423462,-2.2430419921875,2.01416015625,0.244140625
18.9499999,7.68538761138916,5.985504150390625,1.113303780555725,3.72314453125,-0.2288818359375,-0.3662109375
18.9699999,7.702147006988525,5.96874475479126,1.1228805780410767,3.814697265625,1.0833740234375,-0.79345703125
18.9899999,7.714118003845215,5.975927352905273,1.137245774269104,-1.3427734375,4.1046142578125,-0.1220703125
19.0099999,7.728483200073242,5.980715751647949,1.1180921792984009,-1.312255859375,2.0599365234375,1.03759765625
19.0299999,7.735665798187256,5.9974751472473145,1.1276689767837524,-1.2664794921875,1.1444091796875,1.3580322265625
19.0499999,7.735665798187256,5.995080947875977,1.1563993692398071,-5.5999755859375,2.74658203125,1.8310546875
19.0699999,7.733271598815918,5.966350555419922,1.1875240802764893,-2.38037109375,0.9918212890625,2.471923828125
19.089999900000002,7.706935405731201,5.944802761077881,1.1875240802764893,2.9296875,-1.861572265625,0.9613037109375
19.109999900000002,7.666234016418457,5.880159378051758,1.2090718746185303,-1.800537109375,1.2054443359375,1.190185546875
19.1299999,7.615955829620361,5.856217384338379,1.1516109704971313,-0.1220703125,-0.3509521484375,0.2288818359375
19.1499999,7.568071365356445,5.839457988739014,1.0893617868423462,-0.244140625,-1.52587890625,-1.2969970703125
19.1699999,7.544129371643066,5.846640586853027,1.0199298858642578,-3.0975341796875,0.5645751953125,-1.2054443359375
19.1899999,7.548917770385742,5.872976779937744,0.9696516990661621,-3.082275390625,1.6021728515625,-1.03759765625
19.2099999,7.577648162841797,5.896918773651123,0.993593692779541,-2.9144287109375,1.1138916015625,-0.9613037109375
19.2299999,7.618350028991699,5.91128396987915,1.0223240852355957,2.166748046875,-1.5106201171875,-1.007080078125
19.249999900000002,7.654263019561768,5.925649166107178,1.0654197931289673,5.279541015625,-2.8228759765625,-1.5716552734375
19.269999900000002,7.675810813903809,5.942408561706543,1.0989385843276978,-0.0152587890625,1.1444091796875,-2.01416015625
19.2899999,7.687781810760498,5.937620162963867,1.0582371950149536,5.3253173828125,0.1983642578125,-0.3814697265625
19.3099999,7.68538761138916,5.932831764221191,1.0438719987869263,5.096435546875,1.495361328125,-0.7476806640625
19.3299999,7.690176010131836,5.91128396987915,1.0031704902648926,-0.244140625,3.3721923828125,-1.03759765625
19.3499999,7.69735860824585,5.896918773651123,1.0295066833496094,-3.0364990234375,4.638671875,-1.5716552734375
19.3699999,7.711723804473877,5.899312973022461,1.0606313943862915,0.9307861328125,2.9296875,-0.9613037109375
19.3899999,7.7213006019592285,5.925649166107178,1.1276689767837524,1.708984375,0.1678466796875,-1.0528564453125
19.409999900000003,7.73087739944458,5.966350555419922,1.1540051698684692,0.274658203125,0.18310546875,-1.190185546875
19.429999900000002,7.73087739944458,6.007051944732666,1.1540051698684692,-1.129150390625,1.15966796875,-1.40380859375
19.4499999,7.73087739944458,6.050147533416748,1.1444283723831177,-1.5411376953125,2.8533935546875,-0.6103515625
19.4699999,7.728483200073242,6.074089527130127,1.113303780555725,2.3345947265625,0.579833984375,0.7171630859375
19.4899999,7.723694801330566,6.09324312210083,1.1180921792984009,-1.220703125,1.5716552734375,0.9002685546875
19.5099999,7.716512203216553,6.076483726501465,1.1204863786697388,-2.4566650390625,1.617431640625,1.40380859375
19.5299999,7.692570209503174,6.057330131530762,1.1109095811843872,-1.1444091796875,0.2899169921875,0.5950927734375
19.5499999,7.673416614532471,6.028599739074707,1.0869675874710083,0.2593994140625,1.068115234375,0.30517578125
19.5699999,7.659051418304443,6.023811340332031,1.0749965906143188,-2.7923583984375,3.90625,0.7476806640625
19.589999900000002,7.659051418304443,6.030993938446045,1.0654197931289673,-4.1961669921875,3.41796875,1.678466796875
19.609999900000002,7.666234016418457,6.050147533416748,1.0965443849563599,-3.0517578125,1.9073486328125,2.166748046875
19.6299999,7.671022415161133,6.04775333404541,1.1300631761550903,0.54931640625,0.396728515625,2.5482177734375
19.6499999,7.659051418304443,6.038176536560059,1.1659762859344482,-0.9002685546875,1.251220703125,1.708984375
19.6699999,7.63989782333374,6.00226354598999,1.161187767982483,-3.265380859375,1.5716552734375,1.556396484375
19.6899999,7.615955829620361,5.9735331535339355,1.1516109704971313,-2.7618408203125,1.8768310546875,1.4190673828125
19.7099999,7.5968017578125,5.940014362335205,1.1300631761550903,-2.0294189453125,2.3040771484375,2.0904541015625
19.7299999,7.589619159698486,5.906495571136475,1.1276689767837524,-4.302978515625,3.1585693359375,2.471923828125
19.749999900000002,7.594407558441162,5.880159378051758,1.1563993692398071,-5.4779052734375,2.471923828125,1.0833740234375
19.769999900000002,7.6111674308776855,5.856217384338379,1.1803414821624756,1.007080078125,-0.5035400390625,0.1373291015625
19.7899999,7.637503623962402,5.8873419761657715,1.2018892765045166,4.2877197265625,-1.617431640625,-0.640869140625
19.8099999,7.666234016418457,5.944802761077881,1.1851298809051514,1.3885498046875,-0.3814697265625,1.28173828125
19.8299999,7.690176010131836,6.007051944732666,1.1492167711257935,1.0833740234375,1.861572265625,3.8909912109375
19.8499999,7.704541206359863,6.0405707359313965,1.115697979927063,-0.1068115234375,1.8157958984375,3.662109375
19.8699999,7.6997528076171875,6.016628742218018,1.115697979927063,0.091552734375,1.7242431640625,2.4871826171875
19.8899999,7.68538761138916,5.942408561706543,1.1348515748977661,1.1749267578125,0.7781982421875,1.9073486328125
19.909999900000003,7.659051418304443,5.87776517868042,1.1803414821624756,-0.54931640625,0.8544921875,1.03759765625
19.929999900000002,7.625532627105713,5.827486991882324,1.1899182796478271,1.068115234375,0,0.6103515625
19.9499999,7.582436561584473,5.815515995025635,1.1659762859344482,1.922607421875,0.518798828125,0.823974609375
19.9699999,7.536946773529053,5.8203043937683105,1.1109095811843872,-1.8768310546875,4.1961669921875,2.044677734375
19.9899999,7.501033782958984,5.8442463874816895,1.0845733880996704,-5.4168701171875,6.8206787109375,2.99072265625
20.0099999,7.481880187988281,5.868188381195068,1.0606313943862915,-3.631591796875,4.3792724609375,2.7923583984375
20.0299999,7.486668586730957,5.894524574279785,1.1061211824417114,-1.4801025390625,3.143310546875,3.2501220703125
20.0499999,7.51779317855835,5.944802761077881,1.1180921792984009,0.396728515625,3.0670166015625,3.6163330078125
20.0699999,7.570465564727783,5.9974751472473145,1.115697979927063,-0.6866455078125,4.7760009765625,5.6304931640625
20.089999900000002,7.647080421447754,6.038176536560059,1.1492167711257935,-4.974365234375,7.75146484375,7.6904296875
20.109999900000002,7.747636795043945,6.081272125244141,1.1875240802764893,-1.3275146484375,2.99072265625,6.683349609375
20.1299999,7.848193168640137,6.121973514556885,1.2330138683319092,5.0506591796875,-2.532958984375,5.645751953125
20.1499999,7.931990146636963,6.162675380706787,1.2425906658172607,4.0740966796875,-0.9765625,9.0179443359375
20.1699999,7.979874134063721,6.1770405769348145,1.2018892765045166,-2.105712890625,3.4027099609375,12.542724609375
20.1899999,7.977479934692383,6.124367713928223,1.1037269830703735,-2.74658203125,3.2196044921875,11.566162109375
20.2099999,7.931990146636963,6.023811340332031,1.070208191871643,-11.6729736328125,4.8675537109375,6.591796875
20.2299999,7.86734676361084,5.853823184967041,1.0965443849563599,-13.275146484375,6.9732666015625,8.1329345703125
20.249999900000002,7.797914981842041,5.659893035888672,1.216254472732544,-9.063720703125,3.0975341796875,10.6201171875
20.269999900000002,7.752425193786621,5.501875400543213,1.359906554222107,-0.7476806640625,-2.349853515625,7.232666015625
20.2899999,7.740454196929932,5.389348030090332,1.4748282432556152,4.0740966796875,-3.936767578125,5.889892578125
20.3099999,7.762001991271973,5.353435039520264,1.525106430053711,4.180908203125,-2.0599365234375,7.50732421875
20.3299999,7.807491779327393,5.434837818145752,1.482010841369629,10.345458984375,-3.021240234375,7.8277587890625
20.3499999,7.872135162353516,5.552153587341309,1.460463047027588,5.79833984375,-2.0599365234375,8.3465576171875
20.3699999,7.929595947265625,5.6455278396606445,1.403002142906189,6.5155029296875,-5.523681640625,11.077880859375
20.3899999,7.977479934692383,5.681440830230713,1.3192051649093628,13.885498046875,-6.561279296875,11.1846923828125
20.409999900000003,8.006210327148438,5.655104637145996,1.290474772453308,4.791259765625,-1.129150390625,9.002685546875
20.429999900000002,8.020575523376465,5.590460777282715,1.2306196689605713,5.584716796875,-1.6326904296875,8.270263671875
20.4499999,8.02536392211914,5.52821159362793,1.1971008777618408,9.58251953125,-5.767822265625,8.819580078125
20.4699999,8.027758598327637,5.504269599914551,1.1276689767837524,7.7667236328125,-4.8980712890625,9.033203125
20.4899999,8.01339340209961,5.492298603057861,1.0438719987869263,-7.2021484375,2.4566650390625,10.5438232421875
20.5099999,7.996633529663086,5.430049419403076,0.9911994934082031,-16.4642333984375,8.026123046875,13.092041015625
20.5299999,7.975085735321045,5.355829238891602,1.0821791887283325,-15.5487060546875,8.3160400390625,10.406494140625
20.5499999,7.972691535949707,5.207388877868652,1.1971008777618408,-3.448486328125,-0.8544921875,7.9803466796875
20.5699999,7.977479934692383,5.058948040008545,1.4101848602294922,-11.810302734375,-0.0457763671875,5.8441162109375
20.589999900000002,8.003816604614258,4.972756862640381,1.556231141090393,-12.359619140625,1.708984375,5.4473876953125
20.609999900000002,8.04930591583252,4.941632270812988,1.6352397203445435,-0.1678466796875,-4.5166015625,5.0201416015625
20.6299999,8.087613105773926,5.035006046295166,1.5969325304031372,4.852294921875,-9.613037109375,3.5858154296875
