# Time (seconds),Accel_X,Accel_Y,Accel_Z,Gyro_X,Gyro_Y,Gyro_Z
0.0099999,-0.45010992884635925,-0.11971008777618408,8.911218643188477,-54.9468994140625,6.072998046875,-31.6162109375
0.029999900000000003,-0.7661445140838623,-0.009576806798577309,8.935160636901855,-15.4876708984375,19.1192626953125,-8.148193359375
0.0499999,-0.8738836050033569,0.14604631066322327,9.05247688293457,-30.6243896484375,6.7291259765625,-28.1524658203125
0.0699999,-0.9624691009521484,0.2059013396501541,8.908824920654297,-44.097900390625,-42.0074462890625,-31.219482421875
0.08999990000000001,-0.9720458984375,0.09816227108240128,8.681375503540039,-21.759033203125,-14.1448974609375,21.881103515625
0.10999990000000001,-0.6607996821403503,-0.3016694188117981,8.288725852966309,34.1796875,30.5023193359375,94.207763671875
0.1299999,-0.608127236366272,-1.0127472877502441,7.881711959838867,92.6971435546875,47.5006103515625,102.1728515625
0.14999990000000002,-0.47165772318840027,-1.9488801956176758,7.69735860824585,61.70654296875,69.9920654296875,33.8287353515625
0.1699999,0.2537853717803955,-2.6815059185028076,6.892906665802002,-18.035888671875,40.3900146484375,-29.144287109375
0.1899999,0.1867477297782898,-2.8778305053710938,6.519411087036133,-153.564453125,62.103271484375,-108.21533203125
0.20999990000000002,0.21308395266532898,-1.9369091987609863,6.461950302124023,-104.5989990234375,203.4912109375,-144.3023681640625
0.2299999,-0.2992752194404602,-1.115697979927063,6.710947513580322,-94.8028564453125,75.439453125,-4.8065185546875
0.2499999,-1.2282254695892334,-0.47165772318840027,7.647080421447754,-48.614501953125,36.773681640625,46.7071533203125
0.2699999,-2.10210919380188,-0.5482721924781799,8.564059257507324,-62.469482421875,79.77294921875,-30.2581787109375
0.28999990000000003,-2.537853717803955,-1.139639973640442,9.153033256530762,-9.0789794921875,89.447021484375,-66.5740966796875
0.3099999,-2.918531894683838,-1.5825673341751099,9.684545516967773,-13.6871337890625,72.81494140625,-58.41064453125
0.3299999,-3.1316158771514893,-1.7142484188079834,9.950302124023438,3.8604736328125,66.95556640625,-37.109375
0.34999990000000003,-3.2848446369171143,-1.4939818382263184,9.730035781860352,34.8052978515625,46.3714599609375,-41.9464111328125
0.3699999,-3.4380736351013184,-1.1659762859344482,9.346963882446289,15.7623291015625,58.9141845703125,-46.32568359375
0.3899999,-3.665522813796997,-0.7110779285430908,8.743624687194824,-22.0184326171875,65.1397705078125,-10.772705078125
0.40999990000000003,-4.036623954772949,0.035913024097681046,8.233659744262695,-5.43212890625,40.191650390625,25.146484375
0.4299999,-4.345476150512695,0.3687070608139038,8.2312650680542,7.0953369140625,45.562744140625,72.8302001953125
0.4499999,-4.618414878845215,0.1388636976480484,8.04930591583252,18.85986328125,33.3709716796875,62.3626708984375
0.4699999,-4.853046894073486,-0.15322890877723694,7.728483200073242,58.1207275390625,64.5294189453125,-32.562255859375
0.4899999,-5.193023681640625,-0.49799394607543945,7.484274387359619,-36.2701416015625,133.544921875,-46.1273193359375
0.5099999,-5.655104637145996,-0.5051765441894531,7.376535415649414,-82.9925537109375,148.2086181640625,24.4598388671875
0.5299999,-6.138733386993408,-0.4596867263317108,7.501033782958984,-26.275634765625,124.8321533203125,59.661865234375
0.5499999,-6.615179061889648,-0.5171475410461426,7.970297336578369,13.24462890625,179.656982421875,6.3323974609375
0.5699999,-6.9455790519714355,-0.9457096457481384,8.236053466796875,33.5693359375,250.4425048828125,-23.9105224609375
0.5899998999999999,-7.029376029968262,-1.280897855758667,8.681375503540039,-84.41162109375,227.4169921875,-21.3470458984375
0.6099998999999999,-7.402871608734131,-1.3886369466781616,9.205705642700195,-136.322021484375,134.3994140625,-23.25439453125
0.6299999,-7.50582218170166,-1.4413094520568848,9.737217903137207,-39.55078125,42.29736328125,21.2860107421875
0.6499999,-7.783549785614014,-1.5921441316604614,9.93354320526123,4.2724609375,-4.8675537109375,59.0667724609375
0.6699999,-8.2312650680542,-1.8076223134994507,9.485827445983887,-13.5345458984375,17.76123046875,39.1387939453125
0.6899999,-8.425195693969727,-2.032677173614502,8.667010307312012,-10.80322265625,77.5604248046875,25.4669189453125
0.7099999,-8.7268648147583,-1.987187385559082,8.346187591552734,14.6484375,115.631103515625,43.853759765625
0.7299998999999999,-9.047688484191895,-1.3407529592514038,8.26239013671875,3.8604736328125,41.32080078125,53.1158447265625
0.7499998999999999,-9.105149269104004,-0.4668693244457245,8.504204750061035,-11.993408203125,-88.5162353515625,130.0506591796875
0.7699999,-9.2033109664917,0.31364041566848755,8.71489429473877,28.0914306640625,-75.3631591796875,218.6431884765625
0.7899999,-8.884882926940918,0.4812345504760742,8.556877136230469,57.7392578125,-13.1683349609375,209.686279296875
0.8099999,-8.274360656738281,0,7.9846625328063965,35.5987548828125,-37.6129150390625,117.5079345703125
0.8299999,-7.496245384216309,-1.0438719987869263,7.453149795532227,-19.2413330078125,-54.2449951171875,51.69677734375
0.8499998999999999,-6.754043102264404,-1.9800047874450684,7.141903877258301,27.28271484375,21.17919921875,23.13232421875
0.8699998999999999,-6.423643112182617,-2.248155355453491,6.84981107711792,75.7904052734375,26.2451171875,-37.7960205078125
0.8899999,-6.4595561027526855,-1.8626888990402222,6.801927089691162,56.121826171875,-38.299560546875,-59.6160888671875
0.9099999,-6.703764915466309,-1.0462661981582642,6.936002254486084,23.3612060546875,-22.1710205078125,-19.1802978515625
0.9299999,-6.926425457000732,-0.21787235140800476,6.8809356689453125,17.0135498046875,6.9580078125,-13.2598876953125
0.9499999,-7.218518257141113,0.5626373887062073,6.797138690948486,41.412353515625,-10.772705078125,-70.3887939453125
0.9699998999999999,-7.201758861541748,1.2066776752471924,6.787561893463135,39.1998291015625,-22.5982666015625,-56.732177734375
0.9899998999999999,-7.647080421447754,1.7357962131500244,6.823474884033203,48.6602783203125,-12.39013671875,24.261474609375
1.0099999,-7.927201747894287,2.492363929748535,6.89530086517334,52.7801513671875,6.9122314453125,48.736572265625
1.0299999,-8.473079681396484,2.8658595085144043,7.362170219421387,4.33349609375,17.0745849609375,34.1033935546875
1.0499999,-8.980650901794434,3.1507694721221924,8.08282470703125,-55.419921875,-21.209716796875,24.35302734375
1.0699999,-9.296685218811035,3.251325845718384,8.829815864562988,0.4425048828125,-62.31689453125,62.9425048828125
1.0899999,-9.44991397857666,3.1699230670928955,9.32302188873291,43.7774658203125,-88.7451171875,94.1162109375
1.1099999,-9.437943458557129,3.1316158771514893,9.397241592407227,-40.8477783203125,-129.3182373046875,51.5899658203125
1.1299999,-9.121908187866211,2.786850690841675,9.255983352661133,-148.5443115234375,-156.3262939453125,43.487548828125
1.1499999,-8.722076416015625,2.5905263423919678,8.956708908081055,-108.7188720703125,-156.829833984375,51.025390625
1.1699998999999999,-8.303091049194336,2.250549554824829,9.030928611755371,-139.404296875,-172.393798828125,29.0069580078125
1.1899998999999999,-7.797914981842041,1.7908629179000854,9.141061782836914,-155.76171875,-203.399658203125,31.3720703125
1.2099999,-7.237671852111816,1.2521674633026123,9.241618156433105,-71.044921875,-184.1583251953125,48.15673828125
1.2299999,-6.552929878234863,0.608127236366272,9.330204010009766,-28.167724609375,-148.3001708984375,43.0450439453125
1.2499999,-5.683835029602051,-0.047884032130241394,8.889671325683594,4.08935546875,-176.055908203125,29.693603515625
1.2699999,-4.685452938079834,-0.6368576288223267,8.485051155090332,-10.589599609375,-174.3621826171875,26.7181396484375
1.2899999,-3.9264907836914062,-1.0247182846069336,8.485051155090332,-15.8233642578125,-114.7003173828125,13.24462890625
1.3099999,-3.3039982318878174,-1.0342950820922852,8.707711219787598,60.1806640625,-128.082275390625,7.6141357421875
1.3299999,-2.9065608978271484,-0.8307880163192749,9.0859956741333,39.1082763671875,-202.423095703125,15.1824951171875
1.3499999,-2.3104045391082764,-0.608127236366272,9.23682975769043,-30.8990478515625,-173.3856201171875,0.8087158203125
1.3699999,-1.5849615335464478,-0.49799394607543945,8.868123054504395,-69.549560546875,-98.968505859375,-43.365478515625
1.3899999,-0.7613561153411865,-0.6057330369949341,8.377311706542969,-79.4219970703125,-65.4754638671875,-75.2410888671875
1.4099999,-0.19871874153614044,-0.6655880808830261,8.190564155578613,-116.455078125,-76.1566162109375,-77.484130859375
1.4299998999999999,0.035913024097681046,-0.6751648783683777,8.13789176940918,-43.304443359375,-76.812744140625,-36.7889404296875
1.4499999,0.23942017555236816,-0.8188169598579407,8.195352554321289,30.059814453125,-46.9970703125,6.8817138671875
1.4699999,0.38307225704193115,-0.9911994934082031,7.943961143493652,4.547119140625,-43.670654296875,-22.3388671875
1.4899999,0.751779317855835,-1.292868971824646,7.637503623962402,47.9888916015625,-15.5181884765625,-27.130126953125
1.5099999,1.1180921792984009,-1.5682021379470825,7.4555439949035645,66.8487548828125,14.9688720703125,-2.471923828125
1.5299999,1.2449848651885986,-1.5849615335464478,7.824251174926758,44.708251953125,22.9644775390625,-13.519287109375
1.5499999,1.259350061416626,-1.4077905416488647,8.508993148803711,70.6329345703125,-1.03759765625,-16.7694091796875
1.5699999,1.2617442607879639,-1.1204863786697388,9.121908187866211,104.5684814453125,-25.726318359375,7.1258544921875
1.5899999,1.290474772453308,-0.8834604024887085,9.66539192199707,71.0296630859375,-0.396728515625,5.9814453125
1.6099999,1.4293384552001953,-0.6727706789970398,9.612719535827637,10.3759765625,2.227783203125,-51.0406494140625
1.6299999,1.5849615335464478,-0.6009446382522583,9.481039047241211,8.758544921875,-19.561767578125,-107.0709228515625
1.6499999,1.6304513216018677,-0.5554547905921936,9.30386734008789,10.467529296875,-33.6761474609375,-83.7860107421875
1.6699999,1.558625340461731,-0.43335050344467163,9.318233489990234,1.983642578125,-32.440185546875,-63.29345703125
1.6899998999999999,1.5083470344543457,-0.18914192914962769,9.165003776550293,33.3709716796875,-58.7310791015625,-65.643310546875
1.7099999,1.501164436340332,-0.009576806798577309,9.100360870361328,55.23681640625,-90.667724609375,-65.887451171875
1.7299999,1.6160861253738403,0.22505496442317963,8.710105895996094,13.1683349609375,-47.332763671875,-44.5098876953125
1.7499999,1.5634137392044067,0.5051765441894531,8.525752067565918,-36.041259765625,55.267333984375,-32.2418212890625
1.7699999,1.5514427423477173,0.5578489899635315,8.676587104797363,58.6395263671875,130.9814453125,-12.4359130859375
1.7899999,1.3838485479354858,0.7972691655158997,8.865729331970215,50.567626953125,49.6826171875,-40.283203125
1.8099999,1.3239935636520386,0.8619126081466675,9.428366661071777,-34.0118408203125,11.7645263671875,-66.4215087890625
1.8299999,1.314416766166687,0.9074024558067322,9.715670585632324,-15.31982421875,21.5301513671875,-76.59912109375
1.8499999,1.4221558570861816,0.9457096457481384,9.615114212036133,-56.0302734375,3.204345703125,-64.6514892578125
1.8699999,1.678335428237915,0.8236053586006165,9.349357604980469,-84.0301513671875,0.7781982421875,-46.8292236328125
1.8899999,1.742978811264038,0.5913678407669067,9.07641887664795,-49.072265625,-5.889892578125,-43.121337890625
1.9099999,1.6735470294952393,0.3423708379268646,8.848969459533691,-19.9737548828125,-32.28759765625,-36.0107421875
1.9299998999999999,1.1851298809051514,0.22744916379451752,8.954314231872559,-36.2548828125,-33.1268310546875,-44.9981689453125
1.9499999,0.5889736413955688,0.19632454216480255,8.83939266204834,-5.462646484375,-3.96728515625,-27.4658203125
1.9699999,-0.05267243832349777,0.2992752194404602,9.097966194152832,-9.521484375,32.53173828125,-7.4920654296875
1.9899999,-0.23702596127986908,0.28730419278144836,9.006986618041992,-0.3204345703125,-23.13232421875,-17.669677734375
2.0099999,-0.043095629662275314,0.1628057211637497,9.17936897277832,32.9132080078125,-51.8798828125,-30.6854248046875
2.0299999,0.49799394607543945,-0.0694318488240242,9.344569206237793,66.34521484375,-45.013427734375,-30.181884765625
2.0499999,1.1252747774124146,-0.21787235140800476,9.44991397857666,100.15869140625,-40.52734375,-25.421142578125
2.0699999,1.6041151285171509,-0.19871874153614044,9.478644371032715,101.5167236328125,-47.760009765625,-19.10400390625
2.0899999,1.8315643072128296,0.08140286058187485,9.35654067993164,69.0155029296875,-23.529052734375,-21.0723876953125
2.1099999,1.7142484188079834,0.6416460275650024,9.205705642700195,41.44287109375,16.937255859375,-19.2413330078125
2.1299999,1.50355863571167,1.2617442607879639,9.028534889221191,22.2625732421875,11.29150390625,17.791748046875
2.1499999,1.290474772453308,1.8483237028121948,8.923190116882324,-1.6632080078125,-30.8074951171875,36.07177734375
2.1699999,1.213860273361206,2.205059766769409,8.947132110595703,-18.1121826171875,-49.2095947265625,22.0794677734375
2.1899999,1.335964560508728,2.2649147510528564,9.026140213012695,-3.41796875,-44.3115234375,24.749755859375
2.2099999,1.5729905366897583,2.049436569213867,9.198522567749023,37.6434326171875,-68.1304931640625,39.55078125
2.2299999,1.8914192914962769,1.7717092037200928,9.469067573547363,55.11474609375,-75.347900390625,53.3905029296875
2.2499999,2.073378562927246,1.5203180313110352,9.569623947143555,73.18115234375,-22.03369140625,38.4521484375
2.2699999,2.2026655673980713,1.4413094520568848,9.655815124511719,87.0361328125,-12.847900390625,39.306640625
2.2899999,2.145204782485962,1.525106430053711,9.488221168518066,66.4215087890625,-18.5699462890625,48.27880859375
2.3099999,2.161964178085327,1.7525556087493896,9.279925346374512,47.36328125,-26.092529296875,55.999755859375
2.3299999,2.341529369354248,1.9584569931030273,9.167398452758789,45.806884765625,-10.009765625,53.2684326171875
2.3499999,2.477998733520508,2.166752576828003,9.059659004211426,21.5911865234375,117.706298828125,52.1392822265625
2.3699999,2.6408045291900635,2.3511061668395996,9.059659004211426,3.9215087890625,152.587890625,47.7447509765625
2.3899999,2.4612393379211426,2.559401512145996,8.999804496765137,-13.7939453125,91.064453125,56.6864013671875
2.4099999,2.1332337856292725,2.7317841053009033,8.901641845703125,-24.932861328125,25.3143310546875,58.04443359375
2.4299999,1.745373010635376,2.786850690841675,8.882488250732422,-27.862548828125,-10.1318359375,29.5867919921875
2.4499999,1.4173674583435059,2.6791117191314697,8.853757858276367,-12.7410888671875,7.4920654296875,9.8724365234375
2.4699999,1.1803414821624756,2.5091233253479004,8.923190116882324,-4.6234130859375,19.0582275390625,22.8729248046875
2.4899999,1.0247182846069336,2.3702597618103027,8.992621421813965,-4.39453125,-7.904052734375,54.7943115234375
2.5099999,0.993593692779541,2.255337953567505,9.08838939666748,2.593994140625,-16.17431640625,57.6019287109375
2.5299999,1.0223240852355957,2.2170307636260986,9.114726066589355,7.5836181640625,21.1334228515625,57.861328125
2.5499999,1.1324573755264282,2.2673089504241943,9.107542991638184,7.6446533203125,42.90771484375,64.0106201171875
2.5699999,1.2449848651885986,2.432508945465088,9.0859956741333,-1.1749267578125,36.5447998046875,73.9288330078125
2.5899999,1.2473790645599365,2.715024709701538,9.057265281677246,-17.88330078125,35.9954833984375,76.568603515625
2.6099999,1.3096283674240112,2.959233283996582,9.131484985351562,-46.0662841796875,51.849365234375,63.17138671875
2.6299999,1.2617442607879639,3.0526070594787598,9.169792175292969,-65.277099609375,77.911376953125,39.306640625
2.6499999,1.2210428714752197,3.0190882682800293,9.418789863586426,-88.68408203125,87.5091552734375,46.44775390625
2.6699999,1.1348515748977661,2.779668092727661,9.6989107131958,-113.28125,54.5501708984375,68.0389404296875
2.6899999,1.0295066833496094,2.4013843536376953,9.926360130310059,-95.8251953125,32.40966796875,70.1751708984375
2.7099999,1.0534487962722778,1.7836803197860718,10.098742485046387,-121.6278076171875,32.7606201171875,73.42529296875
2.7299999,1.2186486721038818,0.9409212470054626,10.036493301391602,-121.978759765625,33.5235595703125,72.44873046875
2.7499999,1.4652514457702637,-0.08858546614646912,9.86889934539795,-95.5657958984375,23.3917236328125,45.440673828125
2.7699999,1.6112977266311646,-0.790086567401886,9.619902610778809,-74.127197265625,-9.9639892578125,-2.6092529296875
2.7899999,1.625662922859192,-1.2521674633026123,9.430760383605957,-120.8343505859375,-30.70068359375,-6.195068359375
2.8099999,1.5155296325683594,-1.4987702369689941,9.184157371520996,-114.501953125,17.608642578125,19.1497802734375
2.8299999,1.3096283674240112,-1.6304513216018677,8.954314231872559,-81.97021484375,77.3468017578125,8.7738037109375
2.8499999,1.194706678390503,-2.0614075660705566,8.975862503051758,-123.931884765625,52.154541015625,-28.6102294921875
2.8699999,1.0079588890075684,-2.513911724090576,9.009381294250488,-163.0096435546875,-33.0047607421875,-100.4180908203125
2.8899999,0.7350199222564697,-2.786850690841675,8.858546257019043,-117.1722412109375,-67.596435546875,-110.260009765625
2.9099999,0.5578489899635315,-3.064578056335449,8.695740699768066,-72.8302001953125,27.64892578125,-31.524658203125
2.9299999,0.33039984107017517,-2.999934673309326,8.149862289428711,-54.2144775390625,48.583984375,-19.683837890625
2.9499999,0.2585737705230713,-2.980781078338623,7.65186882019043,-52.5054931640625,26.67236328125,-30.2886962890625
2.9699999,0.3471592366695404,-3.0166940689086914,7.216124057769775,-63.812255859375,32.5927734375,-5.4473876953125
2.9899999,0.3758896589279175,-3.112462282180786,6.888118267059326,-99.609375,27.03857421875,2.471923828125
3.0099999,0.42856210470199585,-3.4308910369873047,6.794744491577148,-105.7891845703125,41.1376953125,6.683349609375
3.0299999,0.42616790533065796,-3.97916316986084,6.931213855743408,-89.5538330078125,59.6771240234375,5.645751953125
3.0499999,0.33758243918418884,-4.577713489532471,7.139509677886963,-69.1375732421875,60.821533203125,-4.1351318359375
3.0699999,0.24181437492370605,-5.154716491699219,7.201758861541748,-54.4891357421875,57.2052001953125,-7.476806640625
3.0899999,0.07182604819536209,-5.5545477867126465,7.206547260284424,-65.0634765625,70.3277587890625,-19.317626953125
3.1099999,-0.11013327538967133,-5.870582580566406,7.275979042053223,-45.7000732421875,97.22900390625,-36.6668701171875
3.1299999,-0.31124621629714966,-6.114790916442871,7.3238630294799805,19.83642578125,110.595703125,-48.3245849609375
3.1499999,-0.5554547905921936,-6.282385349273682,7.462726593017578,28.7322998046875,107.0098876953125,-60.6231689453125
3.1699999,-0.9097966551780701,-6.344634532928467,7.73087739944458,-52.276611328125,103.45458984375,-64.971923828125
3.1899999,-1.2617442607879639,-6.399701118469238,7.994239330291748,-75.37841796875,81.817626953125,-50.1861572265625
3.2099999,-1.5945383310317993,-6.481103897094727,8.487444877624512,4.2724609375,85.02197265625,-37.0635986328125
3.2299999,-1.7884687185287476,-6.560112476348877,8.968679428100586,65.3228759765625,79.7882080078125,-46.08154296875
3.2499999,-1.8267759084701538,-6.574477672576904,9.14345645904541,51.5899658203125,63.3544921875,-53.3905029296875
3.2699999,-1.8291701078414917,-6.517016887664795,9.081207275390625,-21.270751953125,60.302734375,-40.6951904296875
3.2899999,-1.8148049116134644,-6.521805286407471,9.117119789123535,-88.2568359375,59.0362548828125,-23.101806640625
3.3099999,-1.889025092124939,-6.572083473205566,9.27034854888916,-76.690673828125,49.9267578125,-25.604248046875
3.3299999000000002,-1.9967641830444336,-6.7708024978637695,9.552865028381348,-47.4090576171875,32.71484375,-28.7017822265625
3.3499999,-2.1332337856292725,-6.912060260772705,9.746794700622559,-44.86083984375,27.557373046875,-22.94921875
3.3699999,-2.2697031497955322,-7.005434036254883,9.775525093078613,-14.129638671875,36.9110107421875,-21.4691162109375
3.3899999,-2.382230758666992,-6.998251438140869,9.658209800720215,65.460205078125,39.581298828125,-29.4342041015625
3.4099999,-2.4157495498657227,-6.938396453857422,9.62947940826416,96.7559814453125,32.073974609375,-34.210205078125
3.4299999,-2.3774423599243164,-6.787561893463135,9.591172218322754,63.29345703125,14.2059326171875,-25.9552001953125
3.4499999,-2.343923568725586,-6.45476770401001,9.402029991149902,32.9742431640625,-8.1329345703125,-16.17431640625
3.4699999,-2.365471363067627,-6.074089527130127,9.260771751403809,31.8145751953125,4.6844482421875,-18.7530517578125
3.4899999,-2.58813214302063,-5.2696380615234375,8.971074104309082,89.111328125,37.3077392578125,-18.3258056640625
3.5099999,-2.7222073078155518,-4.867412090301514,8.865729331970215,71.6400146484375,36.43798828125,-16.510009765625
3.5299999,-2.873042106628418,-4.448426723480225,8.968679428100586,23.1781005859375,39.7186279296875,-9.3536376953125
3.5499999,-3.0358476638793945,-4.050989151000977,9.188945770263672,9.46044921875,29.84619140625,-5.7830810546875
3.5699999,-3.246537446975708,-3.6607344150543213,9.648633003234863,21.9573974609375,18.3563232421875,-7.01904296875
3.5899999,-3.450044631958008,-3.3710360527038574,10.213664054870605,18.0816650390625,12.4359130859375,-0.0762939453125
3.6099999,-3.5865142345428467,-3.1914708614349365,10.536881446838379,22.613525390625,-1.800537109375,11.3372802734375
3.6299999,-3.581725835800171,-3.246537446975708,10.60391902923584,28.3966064453125,-4.791259765625,16.3421630859375
3.6499999,-3.509899616241455,-3.4117374420166016,10.398017883300781,27.9388427734375,4.4708251953125,11.9781494140625
3.6699999,-3.375824451446533,-3.5865142345428467,9.873687744140625,34.027099609375,-6.134033203125,7.26318359375
3.6899999,-3.2585084438323975,-3.6822822093963623,9.469067573547363,10.0555419921875,-4.8828125,18.24951171875
3.7099999,-3.1723172664642334,-3.665522813796997,9.042900085449219,-14.678955078125,-10.6353759765625,28.0303955078125
3.7299999,-3.095702886581421,-3.6846764087677,8.7268648147583,-11.8865966796875,-21.3623046875,28.8848876953125
3.7499999,-3.00711727142334,-3.84269380569458,8.501810073852539,1.7242431640625,-17.5323486328125,24.993896484375
3.7699999,-2.964021682739258,-4.101267337799072,8.307879447937012,7.2479248046875,-10.589599609375,16.0675048828125
3.7899999,-2.959233283996582,-4.402936935424805,7.989450931549072,13.1683349609375,-15.869140625,10.2081298828125
3.8099999,-2.9688100814819336,-4.776432514190674,7.762001991271973,10.2386474609375,-6.0882568359375,10.0555419921875
3.8299999000000002,-3.021482467651367,-5.085284233093262,7.615955829620361,2.288818359375,9.6435546875,-1.52587890625
3.8499999,-3.090914487838745,-5.288791656494141,7.68538761138916,8.1024169921875,13.5345458984375,-20.7672119140625
3.8699999,-3.160346269607544,-5.3127336502075195,8.003816604614258,15.1214599609375,10.6658935546875,-28.8848876953125
3.8899999,-3.2776620388031006,-5.049371242523193,8.439560890197754,21.4385986328125,8.575439453125,-31.402587890625
3.9099999,-3.3470940589904785,-4.627991676330566,8.813055992126465,30.517578125,11.4288330078125,-31.1431884765625
3.9299999,-3.361459255218506,-4.108449935913086,8.98543930053711,27.6336669921875,14.2364501953125,-31.67724609375
3.9499999,-3.272873640060425,-3.584120035171509,9.038111686706543,9.33837890625,15.777587890625,-33.721923828125
3.9699999,-3.071760892868042,-3.220201253890991,9.033323287963867,-6.103515625,16.204833984375,-26.0009765625
3.9899999,-2.8371291160583496,-3.0789434909820557,8.990227699279785,-8.36181640625,10.4522705078125,-21.026611328125
4.0099999,-2.5737667083740234,-3.181894063949585,8.983044624328613,-18.280029296875,10.4522705078125,-24.35302734375
4.029999900000001,-2.3127987384796143,-3.3949780464172363,9.078812599182129,-38.330078125,17.5933837890625,-26.458740234375
4.0499999,-2.073378562927246,-3.509899616241455,9.222464561462402,-39.7796630859375,17.425537109375,-21.484375
4.069999900000001,-1.821987509727478,-3.5242648124694824,9.464279174804688,-32.5164794921875,6.9732666015625,-4.3792724609375
4.0899999000000005,-1.5155296325683594,-3.5410242080688477,9.639056205749512,-40.2679443359375,-2.227783203125,11.9476318359375
4.1099999,-1.2545616626739502,-3.5889084339141846,9.576807022094727,-42.3126220703125,7.080078125,10.8642578125
4.1299999000000005,-1.0223240852355957,-3.9193081855773926,9.373299598693848,-49.1180419921875,42.5262451171875,20.20263671875
4.1499999,-0.9313444495201111,-4.438849925994873,9.126696586608887,-56.9000244140625,71.9451904296875,36.07177734375
4.1699999000000005,-1.048660397529602,-5.063736438751221,8.882488250732422,-75.4852294921875,50.018310546875,29.632568359375
4.1899999,-1.316810965538025,-5.805939197540283,8.621520042419434,-88.3331298828125,5.9814453125,13.61083984375
4.209999900000001,-1.6543933153152466,-6.399701118469238,8.370129585266113,-59.3109130859375,12.1307373046875,-3.5552978515625
4.2299999,-1.941697597503662,-6.682217121124268,8.109161376953125,-5.9356689453125,38.5589599609375,-24.2919921875
4.249999900000001,-2.2433669567108154,-6.588842868804932,7.862558364868164,25.6195068359375,33.9202880859375,-35.5072021484375
4.2699999,-2.542642116546631,-6.14831018447876,7.702147006988525,-1.5716552734375,14.46533203125,-30.4107666015625
4.289999900000001,-2.9328970909118652,-5.439626216888428,7.462726593017578,-47.332763671875,-2.74658203125,-22.5067138671875
4.3099999,-3.5027170181274414,-4.575319290161133,7.19936466217041,-74.21875,3.3111572265625,-16.571044921875
4.329999900000001,-4.046200752258301,-4.082113742828369,6.921637058258057,-85.0982666015625,9.0179443359375,9.368896484375
4.3499999,-4.5394062995910645,-4.216189384460449,6.866570472717285,-80.6732177734375,19.2108154296875,32.470703125
4.369999900000001,-4.917690277099609,-4.987122058868408,6.981492042541504,-38.848876953125,33.4625244140625,15.0604248046875
4.3899999,-5.104437828063965,-6.167463779449463,7.3693528175354,3.692626953125,37.506103515625,-4.3792724609375
4.409999900000001,-5.147533416748047,-7.161057472229004,7.86734676361084,-0.5645751953125,23.529052734375,-3.96728515625
4.4299999,-4.991910457611084,-7.522581577301025,8.17380428314209,-19.04296875,-5.5694580078125,0.6866455078125
4.449999900000001,-4.726154327392578,-7.230489253997803,8.24084186553955,-43.2281494140625,-18.2037353515625,0.3662109375
4.4699999,-4.378994941711426,-6.715735912322998,7.951143741607666,-55.72509765625,-18.5394287109375,8.3770751953125
4.489999900000001,-4.050989151000977,-6.445190906524658,7.393294811248779,-64.39208984375,-28.7017822265625,21.240234375
4.5099999,-3.8067808151245117,-6.615179061889648,6.847416877746582,-69.427490234375,-35.0341796875,5.92041015625
4.529999900000001,-3.641580820083618,-7.2137298583984375,6.313509941101074,-52.3529052734375,-34.8052978515625,-25.32958984375
4.5499999,-3.5194764137268066,-7.936778545379639,5.940014362335205,-14.8773193359375,-32.1197509765625,-44.2657470703125
4.569999900000001,-3.471592426300049,-8.470685958862305,5.827486991882324,23.1170654296875,-20.4315185546875,-55.267333984375
4.5899999000000005,-3.380612850189209,-8.609549522399902,5.870582580566406,49.7283935546875,-20.93505859375,-69.6868896484375
4.609999900000001,-3.2393548488616943,-8.501810073852539,6.141127586364746,63.3697509765625,-29.449462890625,-83.67919921875
4.6299999000000005,-3.141192674636841,-8.226476669311523,6.423643112182617,47.943115234375,-49.2095947265625,-86.1968994140625
4.6499999,-3.043030261993408,-8.030152320861816,6.517016887664795,35.2935791015625,-67.0928955078125,-84.89990234375
4.6699999000000005,-3.0406360626220703,-7.898471355438232,6.332663536071777,44.3878173828125,-61.492919921875,-97.8240966796875
4.6899999,-3.064578056335449,-7.790732383728027,5.846640586853027,66.680908203125,-39.2913818359375,-117.2637939453125
4.709999900000001,-3.026270866394043,-7.489062786102295,5.1595048904418945,90.087890625,-21.9268798828125,-128.7689208984375
4.7299999,-2.8419175148010254,-6.603208065032959,4.2951979637146,133.1787109375,-10.3302001953125,-140.93017578125
4.749999900000001,-2.427720546722412,-5.128379821777344,3.5458126068115234,139.6331787109375,23.4527587890625,-128.143310546875
4.7699999,-1.8052281141281128,-3.44765043258667,3.552995204925537,42.4652099609375,55.5877685546875,-80.26123046875
4.789999900000001,-1.039083480834961,-2.207453966140747,4.2329487800598145,20.32470703125,42.816162109375,-37.2467041015625
4.8099999,-0.2561795711517334,-1.7908629179000854,5.66228723526001,45.654296875,-3.9520263671875,-24.10888671875
4.829999900000001,0.33997663855552673,-2.691082715988159,7.400477409362793,3.753662109375,-26.5655517578125,-2.716064453125
4.8499999,0.7134721279144287,-4.491522312164307,8.829815864562988,-32.04345703125,-20.6756591796875,11.7034912109375
4.869999900000001,0.8068459630012512,-6.291962146759033,9.615114212036133,-14.5263671875,-23.590087890625,-18.218994140625
4.8899999,0.7110779285430908,-7.6566572189331055,9.974244117736816,-6.866455078125,-12.8631591796875,-35.3546142578125
4.909999900000001,0.5410895943641663,-8.154650688171387,9.979032516479492,-29.296875,5.9661865234375,-15.0146484375
4.9299999,0.4141969084739685,-7.807491779327393,9.658209800720215,-44.647216796875,-4.638671875,0.3509521484375
4.949999900000001,0.3734954595565796,-7.103596210479736,9.277531623840332,-55.572509765625,-17.9595947265625,7.843017578125
4.9699999,0.5123591423034668,-6.653486728668213,8.769960403442383,-54.962158203125,-22.3846435546875,23.49853515625
4.989999900000001,0.7469909191131592,-6.66785192489624,8.04691219329834,-38.3453369140625,-31.3873291015625,29.11376953125
5.0099999,1.0103530883789062,-7.146692276000977,7.242460250854492,-18.646240234375,-20.5230712890625,13.275146484375
5.029999900000001,1.2258312702178955,-7.781155586242676,6.572083473205566,-9.033203125,9.857177734375,-0.79345703125
5.0499999,1.314416766166687,-8.24084186553955,6.265625953674316,4.2266845703125,14.312744140625,10.040283203125
5.069999900000001,1.314416766166687,-8.367734909057617,6.457161903381348,12.298583984375,-25.238037109375,31.524658203125
5.0899999000000005,1.2497732639312744,-8.073247909545898,6.892906665802002,22.27783203125,-51.9561767578125,19.927978515625
5.109999900000001,1.1779472827911377,-7.565677165985107,7.529764175415039,7.904052734375,-45.6695556640625,15.2130126953125
5.1299999000000005,1.0893617868423462,-6.856993675231934,7.807491779327393,28.6865234375,-44.98291015625,28.717041015625
5.1499999,0.9720458984375,-6.066906929016113,7.8314337730407715,60.1806640625,-30.94482421875,49.98779296875
5.1699999000000005,0.8619126081466675,-5.410895824432373,7.8960771560668945,50.079345703125,-6.6375732421875,65.826416015625
5.1899999,0.7110779285430908,-5.116408824920654,7.869740962982178,59.295654296875,-7.6904296875,65.399169921875
5.209999900000001,0.5147533416748047,-5.1595048904418945,7.869740962982178,83.343505859375,-38.330078125,63.04931640625
5.2299999,0.2944868206977844,-5.664681434631348,7.824251174926758,33.477783203125,-51.3458251953125,55.7098388671875
5.249999900000001,0.1412578970193863,-6.224924564361572,7.692570209503174,-33.7066650390625,-40.0390625,26.4739990234375
5.2699999,0.016759412363171577,-6.5481414794921875,7.565677165985107,-33.0810546875,-24.993896484375,-8.148193359375
5.289999900000001,-0.009576806798577309,-6.658275127410889,7.558494567871094,-11.65771484375,-31.1431884765625,-4.730224609375
5.3099999,-0.016759412363171577,-6.418854713439941,7.515398979187012,-22.0489501953125,-39.794921875,10.498046875
5.329999900000001,-0.014365210197865963,-6.121973514556885,7.465120792388916,-50.3997802734375,-28.3203125,7.568359375
5.3499999,0.0454898327589035,-6.01423454284668,7.383718013763428,-60.150146484375,-12.5885009765625,6.378173828125
5.369999900000001,0.2346317619085312,-6.143521785736084,7.24485445022583,-22.4151611328125,-16.9219970703125,4.5623779296875
5.3899999,0.4405331015586853,-6.19379997253418,7.266402244567871,-11.41357421875,-8.5601806640625,-11.077880859375
5.409999900000001,0.5410895943641663,-6.222530364990234,7.321468830108643,-17.39501953125,1.800537109375,-24.322509765625
5.4299999,0.5123591423034668,-6.246472358703613,7.343016624450684,-8.23974609375,-5.8135986328125,-0.0457763671875
5.449999900000001,0.3663128614425659,-6.081272125244141,7.333439826965332,-0.1373291015625,-8.0718994140625,-0.2593994140625
5.4699999,0.1604115068912506,-5.87776517868042,7.400477409362793,1.251220703125,8.026123046875,-21.1029052734375
5.489999900000001,-0.009576806798577309,-5.688623428344727,7.436390399932861,-1.03759765625,9.0789794921875,-11.8865966796875
5.5099999,-0.11252748221158981,-5.530605792999268,7.592013359069824,-1.9989013671875,8.1939697265625,8.5296630859375
5.529999900000001,-0.17238251864910126,-5.398924827575684,7.747636795043945,-0.396728515625,14.5263671875,6.622314453125
5.5499999,-0.21547815203666687,-5.374982833862305,7.910442352294922,-15.1214599609375,4.9285888671875,0.457763671875
5.569999900000001,-0.1867477297782898,-5.564124584197998,7.977479934692383,-26.55029296875,-5.4168701171875,16.876220703125
5.5899999000000005,-0.1867477297782898,-5.8873419761657715,7.927201747894287,-15.289306640625,-15.0146484375,20.660400390625
5.609999900000001,-0.21547815203666687,-6.323086738586426,7.850587368011475,-10.31494140625,-11.23046875,-0.4730224609375
5.6299999000000005,-0.2992752194404602,-6.7061591148376465,7.829039573669434,-16.05224609375,-5.9814453125,-10.92529296875
5.6499999,-0.4644751250743866,-6.825869083404541,7.826645374298096,-8.4381103515625,-9.33837890625,1.0986328125
5.6699999000000005,-0.6871358752250671,-6.694188117980957,7.972691535949707,10.528564453125,2.1514892578125,13.8702392578125
5.6899999,-0.9193734526634216,-6.354211330413818,8.11634349822998,35.2630615234375,24.0478515625,8.1329345703125
5.709999900000001,-1.0582371950149536,-5.96874475479126,8.343792915344238,37.0941162109375,37.4298095703125,5.950927734375
5.7299999,-1.0869675874710083,-5.640739440917969,8.561665534973145,15.8843994140625,29.052734375,18.3563232421875
5.749999900000001,-0.9911994934082031,-5.446808815002441,8.710105895996094,-0.579833984375,11.871337890625,26.641845703125
5.7699999,-0.8571242094039917,-5.418078422546387,8.731653213500977,-4.94384765625,10.9710693359375,17.9595947265625
5.789999900000001,-0.7350199222564697,-5.56173038482666,8.525752067565918,0.274658203125,13.9007568359375,11.16943359375
5.8099999,-0.689530074596405,-5.693411827087402,8.145073890686035,0.5035400390625,5.5999755859375,10.6201171875
5.829999900000001,-0.6967126727104187,-5.7341132164001465,7.759607791900635,4.57763671875,1.64794921875,10.3759765625
5.8499999,-0.6991068720817566,-5.693411827087402,7.405265808105469,24.5513916015625,0.213623046875,9.3231201171875
5.869999900000001,-0.6655880808830261,-5.494692802429199,7.1921820640563965,57.586669921875,6.1492919921875,4.486083984375
5.8899999,-0.5817909836769104,-5.331887245178223,7.218518257141113,68.7408447265625,10.80322265625,11.871337890625
5.909999900000001,-0.5027823448181152,-5.236119270324707,7.438784599304199,76.5838623046875,8.697509765625,25.1312255859375
5.9299999,-0.4189853072166443,-5.178658485412598,7.812280178070068,88.68408203125,-3.5552978515625,21.2860107421875
5.949999900000001,-0.3280056416988373,-5.0900726318359375,8.26478385925293,87.1124267578125,-12.8021240234375,11.04736328125
5.9699999,-0.26815059781074524,-4.917690277099609,8.65743350982666,59.0362548828125,-11.8865966796875,6.2713623046875
5.989999900000001,-0.17477671802043915,-4.659116744995117,8.937555313110352,25.115966796875,-7.01904296875,17.5323486328125
6.0099999,-0.07661445438861847,-4.431667327880859,9.069235801696777,11.41357421875,-3.41796875,18.9361572265625
6.029999900000001,0.002394201699644327,-4.4723687171936035,9.129091262817383,9.765625,1.434326171875,9.735107421875
6.0499999,0.033518824726343155,-4.726154327392578,8.99740982055664,18.1427001953125,-1.6632080078125,-3.143310546875
6.069999900000001,0.06464344263076782,-5.04218864440918,8.851364135742188,18.707275390625,3.0670166015625,-9.765625
6.0899999000000005,0.028730420395731926,-5.2480902671813965,8.705317497253418,3.387451171875,6.927490234375,-12.75634765625
6.109999900000001,-0.043095629662275314,-5.288791656494141,8.652645111083984,-3.7384033203125,7.7667236328125,-12.1002197265625
6.1299999000000005,-0.10055647045373917,-5.195417881011963,8.69095230102539,1.3275146484375,5.462646484375,-4.791259765625
6.149999900000001,-0.1364694982767105,-5.063736438751221,8.889671325683594,-0.640869140625,7.8887939453125,-1.983642578125
6.1699999000000005,-0.14604631066322327,-4.963180065155029,9.062053680419922,-2.2735595703125,1.6021728515625,-5.3558349609375
6.1899999,-0.10534487664699554,-4.924872875213623,9.217676162719727,-10.7574462890625,-7.8277587890625,-3.0364990234375
6.209999900000001,-0.06464344263076782,-4.924872875213623,9.294290542602539,-13.5498046875,-11.810302734375,2.685546875
6.2299999,-0.035913024097681046,-4.903325080871582,9.184157371520996,-4.2266845703125,-14.129638671875,4.2266845703125
6.249999900000001,-0.033518824726343155,-4.874594688415527,9.009381294250488,-5.096435546875,-11.199951171875,4.94384765625
6.2699999,-0.05027823522686958,-4.888959884643555,8.765172004699707,-10.589599609375,-6.3323974609375,11.3677978515625
6.289999900000001,-0.05506663769483566,-4.93923807144165,8.540117263793945,-8.48388671875,-5.9967041015625,14.2059326171875
6.3099999,-0.05746084079146385,-5.0254292488098145,8.394071578979492,-6.6986083984375,-1.8310546875,8.6517333984375
6.329999900000001,-0.033518824726343155,-5.169081687927246,8.360552787780762,-7.5836181640625,3.23486328125,6.89697265625
6.3499999,0.002394201699644327,-5.2911858558654785,8.367734909057617,-4.913330078125,3.2958984375,8.514404296875
6.369999900000001,0.047884032130241394,-5.351040840148926,8.437167167663574,-2.5482177734375,2.7923583984375,6.0577392578125
6.3899999,0.05985504388809204,-5.367800235748291,8.504204750061035,-3.204345703125,5.828857421875,2.25830078125
6.409999900000001,0.06464344263076782,-5.310339450836182,8.53293514251709,-2.9754638671875,3.90625,3.875732421875
6.4299999,0.05746084079146385,-5.193023681640625,8.595184326171875,-2.0904541015625,6.500244140625,7.3699951171875
6.449999900000001,0.0694318488240242,-5.12119722366333,8.65743350982666,5.3863525390625,3.47900390625,7.598876953125
6.4699999,0.0454898327589035,-5.142745018005371,8.777143478393555,12.4359130859375,-1.6326904296875,-1.3580322265625
6.489999900000001,0.009576806798577309,-5.288791656494141,8.815450668334961,35.980224609375,-9.0789794921875,-4.4097900390625
6.5099999,-0.028730420395731926,-5.48272180557251,8.899248123168945,23.8800048828125,-5.6304931640625,-0.42724609375
6.529999900000001,-0.047884032130241394,-5.544970989227295,8.846575736999512,15.838623046875,-7.7056884765625,-4.57763671875
6.5499999,0.031124621629714966,-5.442020416259766,8.78432559967041,20.111083984375,-0.1068115234375,-9.2620849609375
6.569999900000001,0.10055647045373917,-5.2265424728393555,8.786720275878906,3.84521484375,10.3302001953125,-15.045166015625
6.5899999000000005,0.10295066982507706,-4.975151062011719,8.743624687194824,-3.84521484375,8.0718994140625,-19.1802978515625
6.609999900000001,0.06224924325942993,-4.819528102874756,8.69334602355957,-18.463134765625,-1.5716552734375,-11.65771484375
6.6299999000000005,-0.019153613597154617,-4.728548526763916,8.707711219787598,-31.1126708984375,5.218505859375,-10.8642578125
6.649999900000001,-0.09576806426048279,-4.584896087646484,8.695740699768066,-16.3421630859375,14.2822265625,-18.9208984375
6.6699999000000005,-0.10534487664699554,-4.438849925994873,8.777143478393555,-13.275146484375,10.9710693359375,-10.19287109375
6.6899999,-0.10295066982507706,-4.371812343597412,8.882488250732422,-15.19775390625,5.2642822265625,5.0201416015625
6.709999900000001,-0.11013327538967133,-4.400542736053467,8.949525833129883,-13.6260986328125,5.615234375,2.7313232421875
6.7299999,-0.13407529890537262,-4.548983097076416,9.033323287963867,-11.749267578125,13.5955810546875,-6.439208984375
6.749999900000001,-0.181959331035614,-4.707000732421875,9.006986618041992,4.08935546875,7.9803466796875,-3.021240234375
6.7699999,-0.2561795711517334,-4.819528102874756,9.016563415527344,7.14111328125,3.6468505859375,6.7596435546875
6.789999900000001,-0.3280056416988373,-4.8937482833862305,8.949525833129883,3.8604736328125,1.8768310546875,9.429931640625
6.8099999,-0.395043283700943,-5.008669853210449,8.83699893951416,2.838134765625,0,5.9967041015625
6.829999900000001,-0.4141969084739685,-5.152322292327881,8.707711219787598,-5.43212890625,-1.3580322265625,4.8828125
6.8499999,-0.45010992884635925,-5.240907669067383,8.576030731201172,-9.8419189453125,-4.058837890625,6.2103271484375
6.869999900000001,-0.45250412821769714,-5.274426460266113,8.453926086425781,-5.462646484375,-4.8370361328125,7.2784423828125
6.8899999,-0.4596867263317108,-5.20978307723999,8.362946510314941,-2.8533935546875,-2.6702880859375,6.988525390625
6.909999900000001,-0.4644751250743866,-5.157110691070557,8.303091049194336,-5.9814453125,-2.8533935546875,5.0506591796875
6.9299999,-0.4620809257030487,-5.142745018005371,8.257601737976074,-7.537841796875,-2.197265625,3.8909912109375
6.949999900000001,-0.45489832758903503,-5.128379821777344,8.224082946777344,-9.918212890625,0.1220703125,-1.2664794921875
6.9699999,-0.44532153010368347,-5.135562419891357,8.250418663024902,-14.5416259765625,5.9967041015625,-2.01416015625
6.989999900000001,-0.4381389021873474,-5.135562419891357,8.283937454223633,-6.7138671875,6.1798095703125,1.2054443359375
7.0099999,-0.43335050344467163,-5.128379821777344,8.362946510314941,3.5400390625,3.5247802734375,1.312255859375
7.029999900000001,-0.42856210470199585,-5.157110691070557,8.463502883911133,4.8828125,4.7149658203125,-1.8768310546875
7.0499999,-0.4357447028160095,-5.185841083526611,8.518569946289062,0.701904296875,3.9520263671875,-4.69970703125
7.069999900000001,-0.4357447028160095,-5.2265424728393555,8.56645393371582,-3.96728515625,3.9520263671875,-3.6468505859375
7.0899999000000005,-0.47644615173339844,-5.2049946784973145,8.542511940002441,2.593994140625,6.9580078125,-6.6070556640625
7.109999900000001,-0.5099649429321289,-5.188235282897949,8.544905662536621,2.8228759765625,9.490966796875,-6.9732666015625
7.1299999000000005,-0.5506663918495178,-5.157110691070557,8.525752067565918,-0.06103515625,8.5906982421875,-6.134033203125
7.149999900000001,-0.569819986820221,-5.123591423034668,8.497021675109863,2.8533935546875,4.8065185546875,-6.8359375
7.1699999000000005,-0.5674257874488831,-5.106832027435303,8.520963668823242,6.378173828125,11.04736328125,-6.744384765625
7.1899999,-0.5578489899635315,-5.066130638122559,8.523358345031738,5.706787109375,10.894775390625,-5.9051513671875
7.209999900000001,-0.5626373887062073,-5.023035049438477,8.523358345031738,-0.213623046875,4.45556640625,-4.1656494140625
7.2299999,-0.5554547905921936,-5.039794445037842,8.580819129943848,1.220703125,11.5509033203125,-2.5177001953125
7.249999900000001,-0.5650315880775452,-5.037400245666504,8.62630844116211,5.096435546875,10.80322265625,-6.6986083984375
7.2699999,-0.569819986820221,-5.0469770431518555,8.695740699768066,3.7384033203125,3.72314453125,-6.927490234375
7.289999900000001,-0.5674257874488831,-5.063736438751221,8.779537200927734,7.62939453125,4.486083984375,1.556396484375
7.3099999,-0.5746083855628967,-5.051765441894531,8.844181060791016,12.0697021484375,5.2337646484375,4.2266845703125
7.329999900000001,-0.5985504388809204,-5.020640850067139,8.801085472106934,16.8914794921875,-0.396728515625,-1.708984375
7.3499999,-0.608127236366272,-5.0014872550964355,8.78432559967041,4.5318603515625,4.57763671875,-2.38037109375
7.369999900000001,-0.6009446382522583,-5.054159641265869,8.760383605957031,-2.4261474609375,6.65283203125,-1.251220703125
7.3899999,-0.6248866319656372,-5.013458251953125,8.695740699768066,16.78466796875,-0.1373291015625,-11.8865966796875
7.409999900000001,-0.6272808313369751,-5.018246650695801,8.731653213500977,19.6685791015625,2.2430419921875,-14.007568359375
7.4299999,-0.6560112833976746,-4.941632270812988,8.71489429473877,9.94873046875,5.1727294921875,-6.317138671875
7.449999900000001,-0.7015010714530945,-4.759673118591309,8.705317497253418,7.080078125,4.302978515625,-4.1046142578125
7.4699999,-0.7086837291717529,-4.632780075073242,8.722076416015625,12.5579833984375,11.1083984375,3.814697265625
7.489999900000001,-0.730231523513794,-4.525041103363037,8.777143478393555,8.5296630859375,13.3819580078125,4.1656494140625
7.5099999,-0.7326257228851318,-4.527435302734375,8.81784439086914,3.021240234375,7.0953369140625,1.3580322265625
7.529999900000001,-0.7422025203704834,-4.5609540939331055,8.913613319396973,-3.875732421875,6.0272216796875,1.7242431640625
7.5499999,-0.7565677165985107,-4.623203277587891,8.959102630615234,-1.953125,2.4871826171875,2.1209716796875
7.569999900000001,-0.7781155705451965,-4.668693542480469,8.987833023071289,3.90625,-0.946044921875,3.1890869140625
7.5899999000000005,-0.8092401623725891,-4.680664539337158,8.96149730682373,2.0751953125,0.48828125,3.7994384765625
7.609999900000001,-0.8523358106613159,-4.661510944366455,8.884882926940918,-3.2196044921875,-0.457763671875,3.631591796875
7.6299999000000005,-0.8858546018600464,-4.663905143737793,8.813055992126465,-3.4942626953125,1.739501953125,7.7362060546875
7.649999900000001,-0.9193734526634216,-4.651933670043945,8.71489429473877,0.7476806640625,-0.152587890625,7.6446533203125
7.6699999000000005,-0.9409212470054626,-4.656722068786621,8.652645111083984,-0.9918212890625,0,5.67626953125
7.6899999,-0.9744400978088379,-4.661510944366455,8.585607528686523,-1.2054443359375,3.0364990234375,6.7596435546875
7.709999900000001,-1.015141487121582,-4.675876140594482,8.518569946289062,-0.8697509765625,1.89208984375,8.880615234375
7.7299999,-1.0534487962722778,-4.671087741851807,8.458714485168457,-1.7547607421875,4.5318603515625,8.6212158203125
7.749999900000001,-1.072602391242981,-4.67827033996582,8.434772491455078,-5.950927734375,9.6435546875,9.6282958984375
7.7699999,-1.0749965906143188,-4.666299343109131,8.44434928894043,-9.429931640625,10.68115234375,11.6424560546875
7.789999900000001,-1.0534487962722778,-4.692635536193848,8.501810073852539,-8.0108642578125,9.2315673828125,15.6707763671875
7.8099999,-1.05105459690094,-4.745307922363281,8.592789649963379,-5.4168701171875,7.9345703125,13.1988525390625
7.829999900000001,-1.0558429956436157,-4.833893299102783,8.719682693481445,-2.0904541015625,8.4991455078125,7.0953369140625
7.8499999,-1.0654197931289673,-4.908113479614258,8.834604263305664,1.8157958984375,3.9520263671875,4.8980712890625
7.869999900000001,-1.070208191871643,-4.963180065155029,8.942343711853027,3.4637451171875,-1.312255859375,5.9967041015625
7.8899999,-1.0749965906143188,-4.989516258239746,8.978256225585938,3.60107421875,-3.0364990234375,5.5999755859375
7.909999900000001,-1.0821791887283325,-5.015852451324463,8.966285705566406,1.9378662109375,-2.349853515625,1.6632080078125
7.9299999,-1.0893617868423462,-5.011064052581787,8.892065048217773,0.762939453125,-1.373291015625,-1.2969970703125
7.949999900000001,-1.1013327836990356,-4.948814868927002,8.820239067077637,-1.1138916015625,-1.8768310546875,-0.42724609375
7.9699999,-1.1013327836990356,-4.838681697845459,8.779537200927734,-4.0740966796875,-2.38037109375,2.5482177734375
7.989999900000001,-1.094150185585022,-4.709394931793213,8.688557624816895,-4.119873046875,-3.8604736328125,3.3416748046875
8.0099999,-1.0965443849563599,-4.649539470672607,8.652645111083984,-18.3258056640625,2.25830078125,4.1351318359375
8.0299999,-1.0845733880996704,-4.6950297355651855,8.650250434875488,-27.4200439453125,6.7596435546875,4.8828125
8.049999900000001,-1.1037269830703735,-4.778826713562012,8.647856712341309,-12.0697021484375,-0.1983642578125,-1.2664794921875
8.069999900000001,-1.1228805780410767,-4.886565685272217,8.736441612243652,-2.0904541015625,0.6103515625,-4.2572021484375
8.0899999,-1.158793568611145,-4.9583916664123535,8.78432559967041,-0.2288818359375,-0.1678466796875,-3.8299560546875
8.1099999,-1.1971008777618408,-4.987122058868408,8.767566680908203,3.7689208984375,-2.8076171875,-4.6539306640625
8.129999900000001,-1.1899182796478271,-5.07570743560791,8.767566680908203,3.936767578125,-0.8392333984375,-6.072998046875
8.149999900000001,-1.173158884048462,-5.109226226806641,8.743624687194824,8.30078125,0.6103515625,-13.946533203125
8.1699999,-1.1013327836990356,-5.200206279754639,8.736441612243652,20.782470703125,-4.2877197265625,-20.6146240234375
8.1899999,-1.0582371950149536,-5.099649429321289,8.662221908569336,29.2205810546875,-8.4075927734375,-24.9481201171875
8.2099999,-1.01753568649292,-4.975151062011719,8.645462036132812,16.326904296875,-2.8839111328125,-18.8446044921875
8.229999900000001,-1.0079588890075684,-4.778826713562012,8.544905662536621,17.5628662109375,1.708984375,-10.9405517578125
8.2499999,-1.0127472877502441,-4.5609540939331055,8.523358345031738,17.27294921875,-1.6632080078125,-12.7410888671875
8.2699999,-0.9959878921508789,-4.51067590713501,8.576030731201172,0.8392333984375,-1.4495849609375,-7.8277587890625
8.2899999,-0.9840168952941895,-4.520252704620361,8.7268648147583,1.4495849609375,-2.105712890625,-9.613037109375
8.309999900000001,-0.9959878921508789,-4.496310710906982,8.875306129455566,23.49853515625,-12.7410888671875,-19.8974609375
8.3299999,-1.0295066833496094,-4.4939165115356445,9.030928611755371,32.501220703125,-20.294189453125,-5.828857421875
8.3499999,-1.1492167711257935,-4.335899353027344,9.210494041442871,20.2484130859375,-24.6429443359375,18.2037353515625
8.3699999,-1.036689281463623,-4.228160381317139,9.260771751403809,32.257080078125,-34.6221923828125,33.7982177734375
8.389999900000001,-0.9457096457481384,-4.259284973144531,9.198522567749023,57.12890625,-42.1295166015625,25.604248046875
8.4099999,-0.629675030708313,-4.364629745483398,9.014169692993164,36.2396240234375,-23.193359375,-0.0152587890625
8.4299999,-0.3471592366695404,-4.467580318450928,8.700529098510742,13.519287109375,0.946044921875,-14.129638671875
8.4499999,-0.19632454216480255,-4.448426723480225,8.506598472595215,-8.5906982421875,14.5111083984375,-18.9208984375
8.469999900000001,-0.17477671802043915,-4.307168960571289,8.556877136230469,-16.4794921875,16.2506103515625,-14.5111083984375
8.4899999,-0.2849099934101105,-4.0964789390563965,8.844181060791016,-5.950927734375,6.591796875,-11.0626220703125
8.5099999,-0.43335050344467163,-3.9049429893493652,9.198522567749023,9.185791015625,-5.401611328125,-6.4849853515625
8.5299999,-0.5770025849342346,-3.7660791873931885,9.461885452270508,11.260986328125,-9.6435546875,0
8.549999900000001,-0.6703764796257019,-3.7253777980804443,9.5408935546875,-4.7607421875,-8.270263671875,4.5623779296875
8.569999900000001,-0.6224924325942993,-3.780444383621216,9.284713745117188,-18.829345703125,-16.265869140625,5.31005859375
8.5899999,-0.5434837937355042,-3.9647979736328125,9.097966194152832,-33.5540771484375,-2.8839111328125,-1.15966796875
8.6099999,-0.40940847992897034,-4.185064792633057,8.89445972442627,-35.2020263671875,6.6375732421875,-14.8773193359375
8.629999900000001,-0.31603461503982544,-4.3191399574279785,8.78432559967041,-15.777587890625,-9.7808837890625,-17.4102783203125
8.649999900000001,-0.28730419278144836,-4.378994941711426,8.827422142028809,-22.9034423828125,-5.096435546875,-8.880615234375
8.6699999,-0.31364041566848755,-4.32871675491333,8.901641845703125,-29.9072265625,9.2315673828125,-3.8299560546875
8.6899999,-0.35434186458587646,-4.264073371887207,8.935160636901855,-7.8277587890625,8.1634521484375,-2.0599365234375
8.709999900000001,-0.38067805767059326,-4.264073371887207,9.01895809173584,-2.7923583984375,4.4403076171875,0.579833984375
8.729999900000001,-0.4118026793003082,-4.2951979637146,9.064447402954102,-5.55419921875,3.90625,-0.79345703125
8.7499999,-0.43095630407333374,-4.41969633102417,9.047688484191895,-0.885009765625,0.9613037109375,-0.5035400390625
8.7699999,-0.4189853072166443,-4.565742492675781,8.992621421813965,0.4119873046875,-0.244140625,-0.67138671875
8.7899999,-0.4213795065879822,-4.63517427444458,8.935160636901855,0.762939453125,1.0223388671875,-8.4991455078125
8.809999900000001,-0.40222588181495667,-4.663905143737793,8.841787338256836,4.8065185546875,0.2899169921875,-6.77490234375
8.8299999,-0.3974374830722809,-4.616020679473877,8.777143478393555,-5.4779052734375,-2.685546875,0.335693359375
8.8499999,-0.3711012601852417,-4.611232280731201,8.736441612243652,-22.369384765625,-6.9580078125,4.2266845703125
8.8699999,-0.3687070608139038,-4.668693542480469,8.69334602355957,-33.6151123046875,-15.5181884765625,1.251220703125
8.889999900000001,-0.3423708379268646,-4.752490520477295,8.65982723236084,-47.2869873046875,-26.5960693359375,-0.42724609375
8.9099999,-0.31603461503982544,-4.841075897216797,8.628703117370605,-39.215087890625,-14.6484375,3.41796875
8.9299999,-0.2513911724090576,-4.881777286529541,8.65743350982666,-30.2581787109375,-4.94384765625,8.8653564453125
8.9499999,-0.20111294090747833,-4.891354084014893,8.664615631103516,-10.4522705078125,-7.598876953125,4.1046142578125
8.969999900000001,-0.08379705995321274,-4.970362663269043,8.755595207214355,-2.899169921875,-10.345458984375,4.33349609375
8.9899999,0.016759412363171577,-5.099649429321289,8.832210540771484,-4.0283203125,-9.4451904296875,7.4920654296875
9.0099999,0.090979665517807,-5.149928092956543,8.7484130859375,13.763427734375,-5.43212890625,-4.8370361328125
9.0299999,0.15083470940589905,-5.224148273468018,8.7268648147583,-2.9296875,9.6435546875,-5.0811767578125
9.049999900000001,0.1604115068912506,-5.243301868438721,8.645462036132812,-4.9896240234375,16.4642333984375,-3.4942626953125
9.069999900000001,0.13407529890537262,-5.166687488555908,8.542511940002441,14.6331787109375,9.7198486328125,-12.8326416015625
9.0899999,0.09576806426048279,-5.080495834350586,8.501810073852539,-4.791259765625,15.3656005859375,-7.080078125
9.1099999,0.031124621629714966,-4.93923807144165,8.540117263793945,-27.6947021484375,25.93994140625,2.960205078125
9.129999900000001,-0.06703764945268631,-4.8051629066467285,8.554482460021973,-4.9896240234375,20.56884765625,6.7596435546875
9.149999900000001,-0.17956513166427612,-4.774038314819336,8.667010307312012,6.561279296875,14.58740234375,9.7198486328125
9.1699999,-0.2849099934101105,-4.821922302246094,8.786720275878906,-6.134033203125,12.5732421875,11.260986328125
9.1899999,-0.3711012601852417,-4.898536682128906,8.80587387084961,-6.9732666015625,6.8511962890625,10.7879638671875
9.209999900000001,-0.4357447028160095,-4.98472785949707,8.791508674621582,-1.708984375,6.561279296875,15.045166015625
9.229999900000001,-0.4812345504760742,-5.051765441894531,8.736441612243652,-2.74658203125,9.521484375,16.7999267578125
9.2499999,-0.524330198764801,-5.106832027435303,8.645462036132812,-2.899169921875,7.1868896484375,12.847900390625
9.2699999,-0.5578489899635315,-5.183446884155273,8.552088737487793,-5.584716796875,5.9356689453125,9.4146728515625
9.2899999,-0.5746083855628967,-5.274426460266113,8.504204750061035,-14.5416259765625,8.9263916015625,10.07080078125
9.309999900000001,-0.5793967843055725,-5.324704647064209,8.470685958862305,-16.2506103515625,13.824462890625,7.26318359375
9.3299999,-0.5961562395095825,-5.3582234382629395,8.473079681396484,-10.5133056640625,12.9241943359375,3.570556640625
9.3499999,-0.6153098344802856,-5.394136428833008,8.506598472595215,-16.265869140625,13.336181640625,4.4403076171875
9.3699999,-0.6536170840263367,-5.410895824432373,8.544905662536621,-25.6500244140625,11.7645263671875,3.11279296875
9.389999900000001,-0.7015010714530945,-5.43723201751709,8.530540466308594,-25.0091552734375,8.3160400390625,-0.091552734375
9.4099999,-0.751779317855835,-5.456385612487793,8.513781547546387,-26.1993408203125,7.2174072265625,-1.953125
9.4299999,-0.8092401623725891,-5.432443618774414,8.432378768920898,-21.0113525390625,8.23974609375,-3.1280517578125
9.4499999,-0.8619126081466675,-5.427655220031738,8.341399192810059,-16.5252685546875,7.9193115234375,0.0762939453125
9.469999900000001,-0.9265560507774353,-5.413290023803711,8.259995460510254,-16.3116455078125,8.514404296875,1.3885498046875
9.4899999,-0.9983820915222168,-5.4659624099731445,8.20732307434082,-13.946533203125,7.6751708984375,2.471923828125
9.5099999,-1.0534487962722778,-5.51624059677124,8.161833763122559,-8.5601806640625,7.1868896484375,3.11279296875
9.5299999,-1.1109095811843872,-5.556941986083984,8.128314971923828,-4.57763671875,6.134033203125,2.5482177734375
9.549999900000001,-1.1420341730117798,-5.640739440917969,8.042123794555664,-1.678466796875,4.8675537109375,4.4403076171875
9.569999900000001,-1.1563993692398071,-5.717353820800781,7.982268333435059,-3.082275390625,6.5460205078125,2.8076171875
9.5899999,-1.161187767982483,-5.793968200683594,7.903259754180908,-2.0904541015625,6.28662109375,-1.068115234375
9.6099999,-1.170764684677124,-5.839457988739014,7.857769966125488,3.0059814453125,3.753662109375,-1.220703125
9.629999900000001,-1.1899182796478271,-5.856217384338379,7.802703380584717,6.317138671875,5.2947998046875,0.1373291015625
9.649999900000001,-1.213860273361206,-5.8442463874816895,7.812280178070068,5.2490234375,9.7198486328125,-2.2125244140625
9.6699999,-1.2425906658172607,-5.832275390625,7.8745293617248535,4.7454833984375,9.46044921875,-4.8675537109375
9.6899999,-1.2545616626739502,-5.832275390625,7.979874134063721,7.9193115234375,3.265380859375,-2.9296875
9.709999900000001,-1.2641384601593018,-5.772420406341553,8.152256965637207,9.1552734375,3.448486328125,-1.8310546875
9.729999900000001,-1.2761094570159912,-5.700594425201416,8.255207061767578,11.444091796875,3.90625,0.1983642578125
9.7499999,-1.2952631711959839,-5.65031623840332,8.358158111572266,7.5836181640625,6.16455078125,3.326416015625
9.7699999,-1.316810965538025,-5.604825973510742,8.374917984008789,6.8359375,3.814697265625,2.5177001953125
9.7899999,-1.335964560508728,-5.621585369110107,8.358158111572266,10.7421875,1.2969970703125,0.701904296875
9.809999900000001,-1.3431471586227417,-5.669469833374023,8.303091049194336,10.8184814453125,2.899169921875,0.5340576171875
9.8299999,-1.3479355573654175,-5.69580602645874,8.219294548034668,11.2457275390625,3.4942626953125,-1.3580322265625
9.8499999,-1.3479355573654175,-5.693411827087402,8.14028549194336,13.092041015625,3.997802734375,-3.0670166015625
9.8699999,-1.3551181554794312,-5.640739440917969,8.094796180725098,10.3759765625,5.18798828125,-2.044677734375
9.889999900000001,-1.3646949529647827,-5.564124584197998,8.063671112060547,7.537841796875,4.4097900390625,-0.9765625
9.9099999,-1.37906014919281,-5.477933406829834,8.058882713317871,5.6610107421875,3.631591796875,-1.983642578125
9.9299999,-1.4053963422775269,-5.439626216888428,8.066065788269043,5.157470703125,4.5623779296875,-2.3040771484375
9.9499999,-1.4173674583435059,-5.427655220031738,8.085219383239746,6.53076171875,5.9356689453125,-1.2969970703125
9.969999900000001,-1.4317326545715332,-5.413290023803711,8.10437297821045,8.1939697265625,6.77490234375,-2.8839111328125
9.9899999,-1.4269442558288574,-5.434837818145752,8.149862289428711,4.0130615234375,7.26318359375,-2.5177001953125
10.0099999,-1.4293384552001953,-5.427655220031738,8.192957878112793,4.058837890625,6.40869140625,-3.47900390625
10.0299999,-1.4245500564575195,-5.461174011230469,8.238448143005371,7.232666015625,7.9498291015625,-2.74658203125
10.049999900000001,-1.4245500564575195,-5.497087001800537,8.283937454223633,3.753662109375,9.796142578125,-2.288818359375
10.069999900000001,-1.41257905960083,-5.540182590484619,8.327033042907715,0.7476806640625,10.6353759765625,-3.4942626953125
10.0899999,-1.4077905416488647,-5.602431774139404,8.40843677520752,3.387451171875,11.4288330078125,-3.7994384765625
10.1099999,-1.3862427473068237,-5.7772088050842285,8.456320762634277,5.950927734375,8.4075927734375,-2.777099609375
10.129999900000001,-1.3623007535934448,-6.0190229415893555,8.520963668823242,-0.9918212890625,9.429931640625,-8.056640625
10.149999900000001,-1.3455413579940796,-6.375759124755859,8.549694061279297,-8.0718994140625,15.7623291015625,-12.9547119140625
10.1699999,-1.2521674633026123,-7.0341644287109375,8.604761123657227,-4.69970703125,28.25927734375,-12.0391845703125
10.1899999,-1.1204863786697388,-7.711723804473877,8.762778282165527,-8.392333984375,34.0423583984375,-31.0821533203125
10.209999900000001,-0.9672574996948242,-8.24084186553955,9.10993766784668,-7.0343017578125,32.073974609375,-58.4716796875
10.229999900000001,-0.8475474119186401,-8.664615631103516,9.550470352172852,2.960205078125,31.0211181640625,-55.1300048828125
10.2499999,-0.8164227604866028,-8.59997272491455,10.02691650390625,-1.3885498046875,26.4739990234375,-60.1959228515625
10.2699999,-0.8547300100326538,-7.967903137207031,10.63504409790039,-16.0980224609375,26.0162353515625,-76.7822265625
10.2899999,-1.0103530883789062,-7.007828235626221,10.793061256408691,15.4876708984375,5.096435546875,-66.9403076171875
10.309999900000001,-1.161187767982483,-5.966350555419922,10.855310440063477,33.203125,1.5716552734375,-40.6951904296875
10.3299999,-1.3527239561080933,-4.790797710418701,10.414777755737305,5.5999755859375,2.3651123046875,-37.689208984375
10.3499999,-1.4915876388549805,-4.10366153717041,9.780313491821289,-33.355712890625,-9.185791015625,-33.6151123046875
10.3699999,-1.6328455209732056,-3.6343982219696045,8.712499618530273,-16.1895751953125,-23.8037109375,-26.6571044921875
10.389999900000001,-1.680729627609253,-3.3925838470458984,7.630321025848389,28.3355712890625,-12.5579833984375,-20.56884765625
10.4099999,-1.6950948238372803,-3.426102638244629,6.536170482635498,32.1197509765625,4.4097900390625,-17.8070068359375
10.4299999,-1.6496049165725708,-3.646369218826294,5.724536418914795,5.5694580078125,7.75146484375,-16.17431640625
10.4499999,-1.5729905366897583,-3.9911341667175293,5.298368453979492,-2.0751953125,6.134033203125,-17.913818359375
10.469999900000001,-1.4700398445129395,-4.410119533538818,5.353435039520264,23.223876953125,19.500732421875,-16.0980224609375
10.4899999,-1.3886369466781616,-4.63517427444458,5.746084213256836,40.008544921875,31.2957763671875,-17.1966552734375
10.5099999,-1.3096283674240112,-4.728548526763916,6.3973069190979,23.681640625,26.0009765625,-13.641357421875
10.5299999,-1.2330138683319092,-4.774038314819336,7.237671852111816,-5.5084228515625,14.434814453125,-5.035400390625
10.549999900000001,-1.2090718746185303,-4.824316501617432,8.020575523376465,-15.533447265625,6.011962890625,-7.720947265625
10.569999900000001,-1.2186486721038818,-5.013458251953125,8.5903959274292,-15.1214599609375,6.500244140625,-10.467529296875
10.5899999,-1.2449848651885986,-5.142745018005371,8.980650901794434,-14.8162841796875,9.6282958984375,-14.8773193359375
10.6099999,-1.2761094570159912,-5.169081687927246,9.05247688293457,-3.875732421875,7.080078125,-10.467529296875
10.629999900000001,-1.2976573705673218,-5.013458251953125,9.035717010498047,10.284423828125,5.4473876953125,-3.1890869140625
10.649999900000001,-1.3072341680526733,-4.9799394607543945,8.884882926940918,10.6964111328125,8.544921875,3.5858154296875
10.6699999,-1.2976573705673218,-4.999093055725098,8.65982723236084,3.90625,7.8125,-4.3182373046875
10.6899999,-1.2545616626739502,-5.147533416748047,8.489839553833008,-1.5869140625,6.988525390625,-12.054443359375
10.709999900000001,-1.158793568611145,-5.384559631347656,8.389283180236816,3.35693359375,6.4239501953125,-9.8419189453125
10.729999900000001,-1.01753568649292,-5.767632007598877,8.47786808013916,16.2811279296875,7.110595703125,-12.847900390625
10.7499999,-0.8188169598579407,-6.224924564361572,8.978256225585938,30.1666259765625,4.9896240234375,-34.3170166015625
10.7699999,-0.6320692300796509,-6.933608055114746,10.04846477508545,31.73828125,-11.29150390625,-58.53271484375
10.7899999,-0.4165911078453064,-7.556100368499756,11.712434768676758,44.3267822265625,-41.5496826171875,-81.8023681640625
10.809999900000001,-0.1364694982767105,-7.6566572189331055,14.113819122314453,51.3458251953125,-77.7130126953125,-103.8970947265625
10.8299999,0.043095629662275314,-7.053318023681641,16.479290008544922,34.0728759765625,-166.1224365234375,-108.5357666015625
10.8499999,0.14844051003456116,-5.805939197540283,18.27972984313965,15.7318115234375,-259.8419189453125,-87.82958984375
10.8699999,0.026336219161748886,-3.7158010005950928,18.696321487426758,30.975341796875,-295.10498046875,-60.6842041015625
10.889999900000001,-0.10773907601833344,-1.5514427423477173,18.203115463256836,56.9305419921875,-266.4947509765625,-8.7432861328125
10.9099999,-0.5267243981361389,1.048660397529602,16.71631622314453,83.0535888671875,-300.35400390625,41.168212890625
10.9299999,-1.2425906658172607,3.469198226928711,15.002067565917969,108.94775390625,-371.2005615234375,103.0426025390625
10.9499999,-2.449268341064453,5.432443618774414,12.789825439453125,158.6456298828125,-362.5946044921875,181.976318359375
10.969999900000001,-4.07014274597168,6.682217121124268,10.163386344909668,175.7354736328125,-301.971435546875,240.29541015625
10.9899999,-6.155492782592773,7.398083209991455,6.48828649520874,193.29833984375,-251.983642578125,276.7333984375
11.0099999,-8.40843677520752,7.359776020050049,1.7884687185287476,201.568603515625,-151.336669921875,356.1553955078125
11.0299999,-10.896012306213379,6.813898086547852,-3.73016619682312,155.2276611328125,-2.1820068359375,439.849853515625
11.049999900000001,-13.55118179321289,5.4013190269470215,-8.614337921142578,113.0218505859375,164.886474609375,488.6016845703125
11.069999900000001,-16.59181785583496,2.3774423599243164,-12.90714168548584,76.3092041015625,300.018310546875,499.9847412109375
11.0899999,-19.850326538085938,-3.138798475265503,-13.960590362548828,-64.5904541015625,469.7113037109375,499.9847412109375
11.1099999,-22.919692993164062,-10.642226219177246,-12.401965141296387,-110.809326171875,499.9847412109375,499.9847412109375
11.129999900000001,-25.294740676879883,-19.663578033447266,-8.180987358093262,31.4788818359375,499.9847412109375,321.96044921875
11.149999900000001,-26.2021427154541,-27.973852157592773,-0.9576807022094727,153.0303955078125,499.9847412109375,55.419921875
11.1699999,-25.536556243896484,-33.011253356933594,5.781997203826904,222.96142578125,374.2523193359375,-203.4912109375
11.1899999,-23.846248626708984,-33.49488067626953,12.892776489257812,81.085205078125,321.9146728515625,-304.4281005859375
11.209999900000001,-21.188684463500977,-31.64655876159668,20.132843017578125,-212.7227783203125,357.4066162109375,-276.214599609375
11.229999900000001,-18.622100830078125,-26.73604965209961,25.21573257446289,-171.844482421875,185.1043701171875,-336.029052734375
11.2499999,-15.80173110961914,-21.557392120361328,29.307422637939453,-32.28759765625,-0.7476806640625,-401.3824462890625
11.2699999,-13.12261962890625,-16.04115104675293,30.183700561523438,-101.4862060546875,-79.6661376953125,-364.898681640625
11.2899999,-10.754754066467285,-9.734824180603027,27.119123458862305,-119.0948486328125,-140.2587890625,-318.9239501953125
11.309999900000001,-8.803479194641113,-3.4380736351013184,20.676326751708984,-74.0814208984375,-197.2808837890625,-281.280517578125
11.3299999,-7.1251444816589355,1.4532804489135742,12.425907135009766,-36.0260009765625,-181.365966796875,-182.9071044921875
11.3499999,-5.683835029602051,4.637568473815918,4.685452938079834,-24.7039794921875,-50.3997802734375,-86.3037109375
11.3699999,-4.343081951141357,5.5976433753967285,-1.8195933103561401,64.117431640625,-35.64453125,-74.2034912109375
11.389999900000001,-2.9041666984558105,4.508281707763672,-4.824316501617432,69.3206787109375,-16.265869140625,-46.478271484375
11.4099999,-1.6974890232086182,2.3989901542663574,-5.341464042663574,30.7769775390625,-4.4097900390625,-16.204833984375
11.4299999,-0.8906430602073669,-0.45489832758903503,-4.331110954284668,29.815673828125,-21.1029052734375,13.7786865234375
11.4499999,-0.38307225704193115,-3.708618402481079,-2.5067291259765625,24.6429443359375,12.847900390625,33.3251953125
11.469999900000001,-0.24899697303771973,-6.653486728668213,-0.8164227604866028,22.9339599609375,35.400390625,2.1209716796875
11.4899999,-0.1604115068912506,-9.062053680419922,0.8212111592292786,27.7099609375,23.9105224609375,-21.240234375
11.5099999,-0.047884032130241394,-10.26394271850586,2.2673089504241943,28.3966064453125,2.5634765625,-6.0577392578125
11.5299999,0.004788403399288654,-10.558429718017578,3.315969467163086,32.0892333984375,-17.425537109375,13.153076171875
11.549999900000001,0.0933738648891449,-10.582371711730957,3.840299606323242,29.449462890625,-5.1116943359375,22.3236083984375
11.569999900000001,0.07182604819536209,-10.524910926818848,3.928884983062744,31.92138671875,18.0816650390625,0.3662109375
11.5899999,0.05027823522686958,-10.541669845581055,3.794809579849243,38.57421875,14.434814453125,-11.749267578125
11.6099999,0.05027823522686958,-10.235212326049805,3.7708675861358643,38.51318359375,3.4027099609375,-1.678466796875
11.629999900000001,0.011971008032560349,-9.749189376831055,3.907337188720703,22.216796875,-5.18798828125,14.9078369140625
11.649999900000001,-0.033518824726343155,-9.516951560974121,4.062960147857666,3.204345703125,-9.5062255859375,23.773193359375
11.6699999,-0.13168109953403473,-9.552865028381348,4.050989151000977,13.8092041015625,-11.871337890625,6.89697265625
11.6899999,-0.2059013396501541,-9.80904483795166,3.8953661918640137,24.6429443359375,-8.0108642578125,-10.833740234375
11.709999900000001,-0.24181437492370605,-9.84495735168457,3.7636849880218506,21.3165283203125,10.3302001953125,-7.5225830078125
11.729999900000001,-0.2513911724090576,-9.59835433959961,3.758896589279175,19.8822021484375,8.4686279296875,6.103515625
11.7499999,-0.2513911724090576,-9.241618156433105,3.9264907836914062,14.8773193359375,-4.39453125,14.007568359375
11.7699999,-0.2753331959247589,-9.040505409240723,4.163516521453857,14.129638671875,-5.615234375,9.6893310546875
11.7899999,-0.2992752194404602,-9.030928611755371,4.314351558685303,18.6614990234375,0.6103515625,3.11279296875
11.809999900000001,-0.3495534360408783,-9.097966194152832,4.364629745483398,24.84130859375,1.8157958984375,0.67138671875
11.8299999,-0.3663128614425659,-9.17936897277832,4.441244125366211,25.726318359375,0.9307861328125,5.0201416015625
11.8499999,-0.37828385829925537,-9.129091262817383,4.627991676330566,21.8658447265625,3.90625,0.2288818359375
11.8699999,-0.35913026332855225,-9.062053680419922,4.831499099731445,21.331787109375,-3.4637451171875,-2.4566650390625
11.889999900000001,-0.33518823981285095,-8.956708908081055,5.003881454467773,17.3187255859375,-13.2293701171875,0.6256103515625
11.9099999,-0.3208230137825012,-8.856152534484863,4.98472785949707,16.5252685546875,-12.8631591796875,2.44140625
11.9299999,-0.3064578175544739,-8.83699893951416,4.853046894073486,16.66259765625,-0.91552734375,1.190185546875
11.9499999,-0.2992752194404602,-8.789113998413086,4.707000732421875,14.7857666015625,7.232666015625,-7.9498291015625
11.969999900000001,-0.26815059781074524,-8.738836288452148,4.618414878845215,13.00048828125,1.7242431640625,-7.232666015625
11.9899999,-0.21787235140800476,-8.60236644744873,4.685452938079834,9.979248046875,-2.777099609375,-0.518798828125
12.0099999,-0.19393034279346466,-8.44195556640625,4.738125324249268,14.923095703125,-4.4708251953125,0.5035400390625
12.0299999,-0.1843535304069519,-8.327033042907715,4.8267107009887695,12.1307373046875,-0.30517578125,2.1514892578125
12.049999900000001,-0.19871874153614044,-8.348581314086914,4.920084476470947,1.5869140625,4.57763671875,6.072998046875
12.069999900000001,-0.2346317619085312,-8.35336971282959,4.941632270812988,5.7373046875,-3.0517578125,3.0517578125
12.0899999,-0.272938996553421,-8.446743965148926,5.032611846923828,12.5732421875,-2.01416015625,2.105712890625
12.1099999,-0.31364041566848755,-8.633491516113281,5.106832027435303,13.3819580078125,3.7841796875,3.3111572265625
12.129999900000001,-0.35913026332855225,-8.808267593383789,5.135562419891357,14.9993896484375,2.50244140625,-5.1727294921875
12.149999900000001,-0.37828385829925537,-8.954314231872559,5.238513469696045,7.5225830078125,3.3416748046875,-11.932373046875
12.1699999,-0.3902548849582672,-8.947132110595703,5.322310447692871,5.828857421875,4.57763671875,-8.7738037109375
12.1899999,-0.38307225704193115,-8.822632789611816,5.415684223175049,11.7645263671875,0.5645751953125,-1.7242431640625
12.209999900000001,-0.3711012601852417,-8.647856712341309,5.489904403686523,14.46533203125,-2.288818359375,-0.396728515625
12.229999900000001,-0.33997663855552673,-8.516175270080566,5.518634796142578,11.6729736328125,-4.2266845703125,-4.0283203125
12.2499999,-0.31364041566848755,-8.437167167663574,5.463568210601807,8.1024169921875,-3.173828125,-4.5166015625
12.2699999,-0.31124621629714966,-8.334216117858887,5.34625244140625,6.65283203125,-1.4190673828125,-2.3345947265625
12.289999900000002,-0.304063618183136,-8.250418663024902,5.279214859008789,-2.7008056640625,4.669189453125,1.4190673828125
12.309999900000001,-0.2968810200691223,-8.154650688171387,5.279214859008789,-6.3018798828125,6.256103515625,2.38037109375
12.3299999,-0.2753331959247589,-8.164227485656738,5.329493045806885,1.922607421875,-0.30517578125,3.4332275390625
12.3499999,-0.24181437492370605,-8.293514251708984,5.442020416259766,6.34765625,-1.64794921875,4.2724609375
12.3699999,-0.21308395266532898,-8.427590370178223,5.51624059677124,9.09423828125,1.556396484375,-2.2430419921875
12.389999900000001,-0.19393034279346466,-8.53293514251709,5.626373767852783,12.6495361328125,2.8076171875,-3.875732421875
12.4099999,-0.16759411990642548,-8.513781547546387,5.729324817657471,20.8740234375,-0.8544921875,2.4261474609375
12.4299999,-0.15322890877723694,-8.434772491455078,5.832275390625,28.167724609375,-6.622314453125,6.683349609375
12.4499999,-0.15083470940589905,-8.35336971282959,5.870582580566406,28.900146484375,-8.087158203125,4.364013671875
12.469999900000001,-0.16759411990642548,-8.310274124145508,5.880159378051758,22.0794677734375,-3.3111572265625,-0.9307861328125
12.4899999,-0.20111294090747833,-8.269572257995605,5.868188381195068,19.3023681640625,-3.4942626953125,0.579833984375
12.5099999,-0.24660277366638184,-8.245630264282227,5.870582580566406,24.7650146484375,-6.6680908203125,4.8828125
12.5299999,-0.2825157940387726,-8.188169479370117,5.8873419761657715,26.2908935546875,-5.340576171875,1.617431640625
12.549999900000001,-0.31364041566848755,-8.121131896972656,5.841852188110352,20.172119140625,-3.1890869140625,-3.11279296875
12.569999900000001,-0.33039984107017517,-8.051700592041016,5.813121795654297,0.4730224609375,0.1220703125,-0.1373291015625
12.5899999,-0.3208230137825012,-7.953537940979004,5.767632007598877,-0.030517578125,1.556396484375,3.2958984375
12.6099999,-0.2968810200691223,-7.888894557952881,5.791574001312256,13.36669921875,1.8768310546875,2.5634765625
12.629999900000001,-0.29209262132644653,-7.908048152923584,5.817910194396973,16.0980224609375,0.48828125,-1.2359619140625
12.649999900000001,-0.2561795711517334,-7.999027729034424,5.961562156677246,3.7994384765625,2.655029296875,-2.62451171875
12.6699999,-0.24420857429504395,-8.054094314575195,6.121973514556885,-1.1444091796875,1.46484375,-4.9591064453125
12.6899999,-0.22505496442317963,-8.135497093200684,6.327875137329102,8.026123046875,-4.1046142578125,-3.84521484375
12.709999900000001,-0.22266076505184174,-8.20492935180664,6.562506675720215,9.33837890625,-4.8675537109375,-5.8135986328125
12.729999900000001,-0.21308395266532898,-8.29830265045166,6.715735912322998,8.7738037109375,-8.056640625,-13.1072998046875
12.7499999,-0.2059013396501541,-8.324639320373535,6.785167694091797,9.0179443359375,-11.90185546875,-18.646240234375
12.7699999,-0.1867477297782898,-8.252813339233398,6.763619899749756,11.962890625,-13.427734375,-17.4407958984375
12.789999900000002,-0.14604631066322327,-8.073247909545898,6.708553314208984,14.5111083984375,-11.90185546875,-13.4735107421875
12.809999900000001,-0.1388636976480484,-7.833827972412109,6.574477672576904,24.71923828125,-15.5792236328125,-15.380859375
12.8299999,-0.13168109953403473,-7.682993412017822,6.471527099609375,27.252197265625,-16.326904296875,-16.815185546875
12.8499999,-0.14365209639072418,-7.570465564727783,6.325480937957764,30.517578125,-13.9007568359375,-18.798828125
12.8699999,-0.12210428714752197,-7.544129371643066,6.279991149902344,33.7371826171875,-6.8511962890625,-18.7530517578125
12.889999900000001,-0.05027823522686958,-7.422025203704834,6.404489517211914,25.0396728515625,0.91552734375,-20.2178955078125
12.9099999,0.07182604819536209,-7.299921035766602,6.651092529296875,16.021728515625,-8.97216796875,-12.054443359375
12.9299999,0.19153612852096558,-7.184999465942383,6.936002254486084,6.2713623046875,-20.6756591796875,0.30517578125
12.9499999,0.272938996553421,-7.196970462799072,7.113173484802246,10.345458984375,-22.857666015625,1.1749267578125
12.969999900000001,0.33758243918418884,-7.240066051483154,7.113173484802246,16.66259765625,-14.8773193359375,-9.1400146484375
12.9899999,0.38307225704193115,-7.321468830108643,6.995857238769531,6.8511962890625,-12.176513671875,-12.4359130859375
13.0099999,0.4405331015586853,-7.419631004333496,6.854599475860596,-3.8299560546875,-17.3797607421875,-4.150390625
13.0299999,0.45489832758903503,-7.546523571014404,6.7492547035217285,3.72314453125,-20.6756591796875,-7.3089599609375
13.049999900000001,0.47405192255973816,-7.615955829620361,6.801927089691162,18.402099609375,-14.007568359375,-20.9197998046875
13.069999900000001,0.47405192255973816,-7.513004779815674,7.0317702293396,16.7388916015625,-14.495849609375,-25.177001953125
13.0899999,0.4692635238170624,-7.359776020050049,7.321468830108643,7.3089599609375,-30.792236328125,-6.134033203125
13.1099999,0.44532153010368347,-7.304709434509277,7.546523571014404,8.3465576171875,-40.34423828125,4.425048828125
13.129999900000001,0.38546648621559143,-7.405265808105469,7.493851184844971,16.7083740234375,-35.2325439453125,-13.4429931640625
13.149999900000001,0.3447650372982025,-7.623138427734375,7.259219646453857,18.096923828125,-27.77099609375,-31.9061279296875
13.1699999,0.38546648621559143,-7.6351094245910645,6.957550048828125,11.16943359375,-30.2581787109375,-30.6396484375
13.1899999,0.507570743560791,-7.527369976043701,6.710947513580322,11.077880859375,-41.5191650390625,-20.5841064453125
13.209999900000001,0.6584054827690125,-7.481880187988281,6.550535678863525,12.5274658203125,-46.356201171875,-21.5606689453125
13.229999900000001,0.7709329724311829,-7.462726593017578,6.44279670715332,9.2620849609375,-49.346923828125,-40.5120849609375
13.2499999,0.8164227604866028,-7.331045627593994,6.406883716583252,-12.664794921875,-72.9827880859375,-43.975830078125
13.2699999,0.8858546018600464,-6.768408298492432,6.428431510925293,-44.9676513671875,-93.3990478515625,1.3580322265625
13.289999900000002,1.0797849893569946,-6.440402507781982,6.71334171295166,-52.398681640625,-64.8345947265625,56.0760498046875
13.309999900000001,1.357512354850769,-6.268020153045654,6.94079065322876,-27.9693603515625,-63.446044921875,41.5496826171875
13.3299999,1.7860745191574097,-6.50025749206543,7.134721279144287,10.3912353515625,-76.873779296875,-11.41357421875
13.3499999,2.2840683460235596,-7.005434036254883,7.1251444816589355,25.81787109375,-52.3681640625,-20.20263671875
13.3699999,2.647987127304077,-7.3023152351379395,6.789956092834473,22.064208984375,-31.3568115234375,-12.420654296875
13.389999900000001,2.9041666984558105,-7.50582218170166,6.3949127197265625,7.476806640625,-20.538330078125,-13.671875
13.4099999,3.0190882682800293,-7.620744228363037,5.899312973022461,9.4451904296875,-17.7459716796875,-20.0347900390625
13.4299999,3.043030261993408,-7.486668586730957,5.647922039031982,7.6751708984375,-9.1552734375,-24.810791015625
13.4499999,3.112462282180786,-7.101202011108398,5.585672378540039,2.899169921875,-0.48828125,-12.8631591796875
13.469999900000001,3.1938650608062744,-6.670246124267578,5.65031623840332,20.111083984375,-1.007080078125,4.5013427734375
13.4899999,3.335123062133789,-6.466738700866699,5.796362400054932,28.8848876953125,4.8065185546875,10.955810546875
13.5099999,3.488351821899414,-6.497863292694092,5.932831764221191,20.965576171875,5.0048828125,-0.0762939453125
13.5299999,3.6343982219696045,-6.665457725524902,6.212953567504883,15.68603515625,8.5601806640625,-10.711669921875
13.549999900000001,3.7876269817352295,-6.799532890319824,6.576871871948242,26.30615234375,-0.67138671875,-2.410888671875
13.569999900000001,3.8163576126098633,-6.912060260772705,6.89530086517334,19.53125,-19.866943359375,7.4310302734375
13.5899999,3.7469255924224854,-7.048529624938965,6.97430944442749,-0.79345703125,-24.993896484375,2.655029296875
13.6099999,3.5936968326568604,-7.050923824310303,6.703764915466309,-1.8463134765625,-11.138916015625,-16.8304443359375
13.629999900000001,3.4548330307006836,-6.854599475860596,6.344634532928467,11.077880859375,7.568359375,-20.93505859375
13.649999900000001,3.4356794357299805,-6.607996463775635,6.143521785736084,14.6026611328125,18.6920166015625,-2.197265625
13.6699999,3.49314022064209,-6.404489517211914,6.121973514556885,19.134521484375,7.8125,-3.8604736328125
13.6899999,3.6128504276275635,-6.44279670715332,6.3733649253845215,13.48876953125,7.26318359375,-21.209716796875
13.709999900000001,3.687070608139038,-6.531382083892822,6.610390663146973,3.4027099609375,11.5509033203125,-30.1055908203125
13.729999900000001,3.687070608139038,-6.473921298980713,6.780379295349121,5.645751953125,8.6669921875,-26.6571044921875
13.7499999,3.646369218826294,-6.325480937957764,6.9455790519714355,7.0953369140625,14.0380859375,-17.791748046875
13.7699999,3.600879430770874,-6.071695327758789,7.007828235626221,2.8839111328125,15.716552734375,-17.9901123046875
13.789999900000002,3.5410242080688477,-5.87776517868042,7.041347026824951,-0.213623046875,12.2833251953125,-24.200439453125
13.809999900000001,3.514688014984131,-5.801150798797607,7.024587631225586,2.5634765625,15.7928466796875,-19.7906494140625
13.8299999,3.44765043258667,-5.851428985595703,6.933608055114746,-4.4708251953125,19.6075439453125,-18.829345703125
13.8499999,3.397372245788574,-6.069301128387451,6.921637058258057,-29.5257568359375,24.3072509765625,-22.5830078125
13.8699999,3.3016040325164795,-6.332663536071777,7.007828235626221,-39.1998291015625,24.4140625,-29.8309326171875
13.889999900000001,3.201047658920288,-6.53377628326416,7.12035608291626,-17.8680419921875,14.09912109375,-29.876708984375
13.9099999,3.1052796840667725,-6.512228488922119,7.275979042053223,-1.9989013671875,16.2506103515625,-26.2603759765625
13.9299999,3.0358476638793945,-6.385335922241211,7.240066051483154,-12.1307373046875,18.4478759765625,-21.0418701171875
13.9499999,2.999934673309326,-6.251260757446289,7.0557122230529785,-30.2276611328125,20.782470703125,-18.218994140625
13.969999900000001,3.0119056701660156,-6.143521785736084,6.825869083404541,-31.9366455078125,34.9273681640625,-21.4996337890625
13.9899999,3.045424461364746,-6.004657745361328,6.62236213684082,-17.0745849609375,42.1905517578125,-25.0701904296875
14.0099999,3.1244332790374756,-6.01423454284668,6.6127848625183105,-10.2386474609375,45.166015625,-14.7857666015625
14.0299999,3.2345664501190186,-6.191405773162842,6.734889507293701,-13.7176513671875,41.1834716796875,-6.011962890625
14.049999900000001,3.337517261505127,-6.521805286407471,6.818686485290527,-12.9547119140625,28.9459228515625,-17.791748046875
14.069999900000001,3.3710360527038574,-6.912060260772705,6.718130111694336,-8.8958740234375,22.430419921875,-29.9224853515625
14.0899999,3.3423056602478027,-7.074865818023682,6.452373504638672,-0.3509521484375,37.04833984375,-33.69140625
14.1099999,3.2585084438323975,-6.950367450714111,6.279991149902344,2.4261474609375,55.1910400390625,-31.3873291015625
14.129999900000001,3.1507694721221924,-6.756437301635742,6.296750545501709,-3.021240234375,47.393798828125,-22.491455078125
14.149999900000001,3.0597896575927734,-6.603208065032959,6.5050458908081055,-5.0201416015625,25.7415771484375,-20.599365234375
14.1699999,2.983175277709961,-6.552929878234863,6.828263282775879,-13.85498046875,27.16064453125,-24.993896484375
14.1899999,2.9305028915405273,-6.466738700866699,6.995857238769531,-15.533447265625,30.3955078125,-26.3671875
14.209999900000001,2.8850131034851074,-6.315904140472412,6.998251438140869,-3.3721923828125,23.49853515625,-19.3023681640625
14.229999900000001,2.873042106628418,-6.174646377563477,6.959944248199463,1.0223388671875,24.322509765625,-9.979248046875
14.2499999,2.8778305053710938,-6.114790916442871,6.890512466430664,-6.1187744140625,27.008056640625,-8.1329345703125
14.2699999,2.868253707885742,-6.1530985832214355,6.825869083404541,-15.4876708984375,23.3917236328125,-10.6353759765625
14.289999900000002,2.8610711097717285,-6.339846134185791,6.847416877746582,-13.24462890625,17.76123046875,-4.1046142578125
14.309999900000001,2.827552318572998,-6.550535678863525,6.976703643798828,-3.4332275390625,21.2249755859375,-2.5787353515625
14.3299999,2.7772738933563232,-6.732495307922363,7.110779285430908,-0.9002685546875,15.106201171875,-10.5133056640625
14.3499999,2.7269957065582275,-6.885724067687988,7.29034423828125,-13.18359375,7.38525390625,-9.979248046875
14.3699999,2.695871114730835,-6.9240312576293945,7.429207801818848,-16.693115234375,4.4403076171875,-5.0811767578125
14.389999900000001,2.6886885166168213,-6.8378400802612305,7.450755596160889,-5.37109375,1.2969970703125,-5.0811767578125
14.4099999,2.7533318996429443,-6.6391215324401855,7.132327079772949,-10.2081298828125,2.197265625,-3.0364990234375
14.4299999,2.7988216876983643,-6.596025466918945,6.876147270202637,-16.05224609375,2.7923583984375,-2.1209716796875
14.4499999,2.8395233154296875,-6.5696892738342285,6.6391215324401855,-6.591796875,2.197265625,-2.8228759765625
14.469999900000001,2.8395233154296875,-6.552929878234863,6.447585105895996,-2.0599365234375,3.3416748046875,-3.8909912109375
14.4899999,2.827552318572998,-6.473921298980713,6.370970726013184,-14.373779296875,7.6904296875,-2.685546875
14.5099999,2.8107926845550537,-6.323086738586426,6.342240333557129,-13.12255859375,8.7738037109375,0.2593994140625
14.5299999,2.808398485183716,-6.224924564361572,6.452373504638672,7.4310302734375,11.7645263671875,7.537841796875
14.549999900000001,2.8347349166870117,-6.234501361846924,6.6846113204956055,16.1590576171875,17.0135498046875,10.2386474609375
14.569999900000001,2.8634653091430664,-6.4164605140686035,7.010222434997559,7.8582763671875,15.0146484375,5.4931640625
14.5899999,2.9017724990844727,-6.7923502922058105,7.429207801818848,0.9765625,10.0250244140625,2.5177001953125
14.6099999,2.940079689025879,-7.175422668457031,7.8098859786987305,5.157470703125,3.448486328125,-1.4495849609375
14.629999900000001,2.983175277709961,-7.489062786102295,8.090007781982422,1.312255859375,-4.57763671875,-5.523681640625
14.649999900000001,3.0095114707946777,-7.769184589385986,8.190564155578613,-9.9639892578125,-7.9193115234375,-4.8980712890625
14.6699999,3.028665065765381,-7.934384346008301,8.125920295715332,-11.871337890625,-7.232666015625,-10.6658935546875
14.6899999,3.028665065765381,-7.970297336578369,7.939172744750977,-2.6092529296875,-7.293701171875,-23.3001708984375
14.709999900000001,3.0573954582214355,-7.91283655166626,7.714118003845215,2.3345947265625,-8.880615234375,-25.7720947265625
14.729999900000001,3.1531636714935303,-7.649474620819092,7.527369976043701,-3.9825439453125,-8.331298828125,-25.0396728515625
14.7499999,3.2824504375457764,-7.220912456512451,7.299921035766602,-3.8299560546875,-9.7503662109375,-26.85546875
14.7699999,3.4404678344726562,-6.756437301635742,7.074865818023682,-3.5247802734375,-7.7972412109375,-23.712158203125
14.789999900000002,3.5745432376861572,-6.212953567504883,6.742072105407715,-2.288818359375,-6.2255859375,-22.64404296875
14.809999900000001,3.6583402156829834,-5.743690013885498,6.382941722869873,-0.213623046875,-1.9683837890625,-19.2413330078125
14.8299999,3.6798880100250244,-5.355829238891602,6.074089527130127,-3.5400390625,2.6397705078125,-15.380859375
14.8499999,3.6559460163116455,-5.171475887298584,5.9735331535339355,-6.2408447265625,5.7220458984375,-13.153076171875
14.8699999,3.5721490383148193,-5.178658485412598,6.1052141189575195,-2.044677734375,8.6517333984375,-17.059326171875
14.889999900000001,3.485957622528076,-5.410895824432373,6.426037311553955,-0.4730224609375,7.568359375,-22.247314453125
14.9099999,3.4141316413879395,-5.671864032745361,6.8043212890625,-9.3231201171875,4.486083984375,-26.8096923828125
14.9299999,3.3734302520751953,-5.990292549133301,7.115567684173584,-6.591796875,3.2958984375,-25.726318359375
14.9499999,3.3423056602478027,-6.4834980964660645,7.371747016906738,5.7525634765625,10.162353515625,-24.0631103515625
14.969999900000001,3.3494882583618164,-7.1921820640563965,7.649474620819092,3.7689208984375,18.798828125,-36.43798828125
14.9899999,3.423708438873291,-7.797914981842041,7.91283655166626,1.77001953125,9.94873046875,-62.9730224609375
15.0099999,3.5625722408294678,-8.291120529174805,8.202534675598145,-1.2359619140625,-4.9285888671875,-67.4591064453125
15.0299999,3.8738183975219727,-8.487444877624512,8.516175270080566,-20.6451416015625,-4.9896240234375,-59.4482421875
15.049999900000001,4.273650169372559,-8.31985092163086,8.729259490966797,-43.121337890625,-18.7530517578125,-75.836181640625
15.069999900000001,4.752490520477295,-8.058882713317871,8.810662269592285,-35.4766845703125,-32.073974609375,-95.3826904296875
15.0899999,5.295974254608154,-7.5968017578125,8.801085472106934,-43.15185546875,-36.468505859375,-101.0284423828125
15.1099999,5.853823184967041,-6.833051681518555,8.492233276367188,-55.5877685546875,-52.6123046875,-104.278564453125
15.129999900000001,6.332663536071777,-5.738901615142822,7.7883381843566895,-29.2205810546875,-60.7147216796875,-100.9674072265625
15.149999900000001,6.864176273345947,-4.67827033996582,6.864176273345947,-12.87841796875,-37.8570556640625,-81.329345703125
15.1699999,7.359776020050049,-3.648763418197632,5.817910194396973,-25.634765625,-21.8353271484375,-73.91357421875
15.1899999,7.8314337730407715,-2.7054479122161865,4.812345504760742,-36.0870361328125,-33.3709716796875,-92.0257568359375
15.209999900000001,8.418013572692871,-1.8124107122421265,3.9671921730041504,-31.1431884765625,-35.7208251953125,-89.8590087890625
15.229999900000001,9.042900085449219,-0.5770025849342346,3.4572272300720215,-37.200927734375,-19.744873046875,-86.395263671875
15.2499999,9.93354320526123,0.7134721279144287,2.851494312286377,-12.1612548828125,-23.9410400390625,-72.998046875
15.2699999,11.24795913696289,1.941697597503662,2.346317768096924,14.6484375,-22.5067138671875,-60.1348876953125
15.289999900000002,12.94305419921875,3.1268274784088135,1.9393033981323242,24.017333984375,-2.74658203125,-77.3162841796875
15.309999900000001,15.028404235839844,4.479551315307617,1.0869675874710083,41.8853759765625,-7.354736328125,-94.940185546875
15.3299999,17.43218231201172,7.194576263427734,-0.023942016065120697,73.6083984375,40.191650390625,-104.888916015625
15.3499999,19.74737548828125,14.087482452392578,-0.3926490843296051,61.1724853515625,168.0908203125,-125.396728515625
15.3699999,20.563798904418945,25.87413787841797,-1.3479355573654175,-70.5718994140625,120.17822265625,-33.905029296875
15.389999900000001,16.905458450317383,38.87704849243164,-4.32871675491333,-147.0947265625,-33.9813232421875,319.9005126953125
15.4099999,4.9799394607543945,47.7044677734375,-7.005434036254883,-53.985595703125,71.6552734375,499.9847412109375
15.4299999,-14.099453926086426,38.32159423828125,-5.779603004455566,-17.852783203125,272.9949951171875,499.9847412109375
15.4499999,-33.37995910644531,16.575057983398438,-2.6886885166168213,-143.6309814453125,248.5198974609375,499.9847412109375
15.469999900000001,-46.493003845214844,-10.002974510192871,11.745953559875488,226.2115478515625,342.6361083984375,-126.5869140625
15.4899999,-48.50413131713867,-27.89723777770996,23.93004608154297,223.541259765625,72.75390625,-191.4215087890625
15.5099999,-40.53144073486328,-31.150959014892578,29.180530548095703,-264.95361328125,-453.9947509765625,9.33837890625
15.5299999,-28.598739624023438,-24.293964385986328,24.44001007080078,-159.912109375,-304.107666015625,128.387451171875
15.549999900000001,-16.962919235229492,-14.906299591064453,12.112266540527344,130.279541015625,83.0230712890625,19.3634033203125
15.569999900000001,-7.819462776184082,-7.869740962982178,-0.0454898327589035,161.6058349609375,134.27734375,-45.318603515625
15.5899999,-1.5538369417190552,-3.3662476539611816,-4.891354084014893,33.3251953125,-0.457763671875,54.6417236328125
15.6099999,1.3120225667953491,-0.9265560507774353,-3.864241600036621,-39.1693115234375,-142.88330078125,123.6114501953125
15.629999900000001,1.9991583824157715,-0.7110779285430908,-0.4381389021873474,-37.4908447265625,-98.20556640625,67.718505859375
15.649999900000001,1.139639973640442,-3.251325845718384,2.2625205516815186,16.9219970703125,-10.406494140625,31.5399169921875
15.6699999,-0.031124621629714966,-5.791574001312256,3.8331170082092285,39.6575927734375,-6.1492919921875,19.561767578125
15.6899999,-0.9169792532920837,-7.264008045196533,5.04218864440918,24.6429443359375,-42.144775390625,22.308349609375
15.709999900000001,-1.3024457693099976,-8.14028549194336,5.918466567993164,-29.4647216796875,-51.69677734375,48.0194091796875
15.729999900000001,-1.3527239561080933,-8.494627952575684,6.045359134674072,-34.088134765625,-48.3551025390625,34.576416015625
15.7499999,-1.1204863786697388,-9.059659004211426,5.808333396911621,22.430419921875,-34.027099609375,4.82177734375
15.7699999,-0.6991068720817566,-9.466673851013184,5.52821159362793,39.4134521484375,-24.7955322265625,-13.0615234375
15.789999900000002,-0.22744916379451752,-9.433155059814453,5.592854976654053,19.0887451171875,-37.17041015625,-9.5062255859375
15.809999900000001,0.24181437492370605,-8.877699851989746,6.011840343475342,4.4097900390625,-46.051025390625,6.7901611328125
15.8299999,0.6177040338516235,-8.255207061767578,6.196194171905518,24.6124267578125,-59.2041015625,5.6304931640625
15.8499999,0.8762778043746948,-7.824251174926758,6.3302693367004395,17.0745849609375,-34.1796875,-3.509521484375
15.869999900000002,1.0654197931289673,-7.723694801330566,6.296750545501709,-6.0882568359375,-11.871337890625,-7.080078125
15.889999900000001,1.2114660739898682,-7.805097579956055,6.3973069190979,0.8544921875,-19.4091796875,-7.232666015625
15.9099999,1.3718775510787964,-7.888894557952881,6.689399719238281,8.697509765625,-28.8543701171875,-11.90185546875
15.9299999,1.5610195398330688,-7.943961143493652,6.98628044128418,-0.06103515625,-22.8729248046875,-11.5966796875
15.9499999,1.723825216293335,-7.843404769897461,7.19936466217041,-5.584716796875,-15.2435302734375,-7.8277587890625
15.969999900000001,1.8698714971542358,-7.766790390014648,7.340622425079346,-5.06591796875,-12.908935546875,-0.1068115234375
15.9899999,1.946485996246338,-7.560888767242432,7.390900611877441,-11.29150390625,-21.392822265625,-2.8839111328125
16.0099999,1.941697597503662,-7.4100542068481445,7.314286231994629,-18.5546875,-23.468017578125,-2.13623046875
16.0299999,1.8602946996688843,-7.338228225708008,7.0557122230529785,-19.59228515625,-17.27294921875,6.04248046875
16.0499999,1.7334020137786865,-7.271190643310547,6.596025466918945,-12.8021240234375,-12.4359130859375,3.8604736328125
16.0699999,1.5729905366897583,-7.2783732414245605,6.102819919586182,-5.9051513671875,-6.378173828125,-2.38037109375
16.089999900000002,1.455674648284912,-7.266402244567871,5.779603004455566,-14.923095703125,4.058837890625,-1.190185546875
16.109999900000002,1.400607943534851,-7.180211067199707,5.702988624572754,-6.011962890625,7.965087890625,2.9296875
16.1299999,1.4197616577148438,-7.022193431854248,5.896918773651123,16.5557861328125,1.3275146484375,7.2021484375
16.1499999,1.4437036514282227,-6.97430944442749,6.296750545501709,9.246826171875,-2.7313232421875,9.246826171875
16.1699999,1.4748282432556152,-7.048529624938965,6.677428722381592,-12.2222900390625,-3.35693359375,5.950927734375
16.1899999,1.4676456451416016,-7.182605266571045,6.938396453857422,-15.289306640625,-4.119873046875,-6.7596435546875
16.2099999,1.4652514457702637,-7.314286231994629,7.024587631225586,-7.568359375,-3.4332275390625,-9.6282958984375
16.2299999,1.4700398445129395,-7.283161640167236,6.938396453857422,1.007080078125,-1.2969970703125,-6.9732666015625
16.249999900000002,1.5322890281677246,-7.184999465942383,6.730101108551025,2.471923828125,2.166748046875,0.2899169921875
16.269999900000002,1.6280571222305298,-7.094019412994385,6.631938934326172,-4.2572021484375,9.4757080078125,-1.28173828125
16.2899999,1.742978811264038,-7.175422668457031,6.67982292175293,-2.197265625,7.8582763671875,-5.3253173828125
16.3099999,1.86508309841156,-7.252037048339844,6.856993675231934,3.4332275390625,-2.532958984375,-11.1541748046875
16.3299999,1.9704279899597168,-7.283161640167236,7.079654216766357,-2.38037109375,-6.744384765625,-10.68115234375
16.3499999,2.027888774871826,-7.168240070343018,7.201758861541748,-7.50732421875,-6.5460205078125,-3.1585693359375
16.3699999,2.032677173614502,-7.0772600173950195,7.15387487411499,0.42724609375,-8.9874267578125,5.2490234375
16.3899999,1.9847931861877441,-7.070077419281006,6.957550048828125,8.97216796875,-11.6424560546875,5.4779052734375
16.4099999,1.9081788063049316,-7.0988078117370605,6.660669326782227,5.8135986328125,-9.2010498046875,-3.692626953125
16.429999900000002,1.8195933103561401,-7.173028469085693,6.291962146759033,-1.678466796875,-7.2174072265625,0.4119873046875
16.4499999,1.8052281141281128,-7.132327079772949,5.980715751647949,-4.638671875,-3.6163330078125,8.48388671875
16.4699999,1.8339585065841675,-7.074865818023682,5.767632007598877,3.3416748046875,-0.3204345703125,7.2174072265625
16.4899999,1.9057846069335938,-7.089231014251709,5.7556610107421875,2.6397705078125,2.9296875,2.6092529296875
16.5099999,1.9776105880737305,-7.1251444816589355,5.96874475479126,-14.6484375,2.74658203125,-0.48828125
16.5299999,2.03507137298584,-7.151480674743652,6.236895561218262,-3.0975341796875,-7.7056884765625,2.0904541015625
16.5499999,2.0925323963165283,-7.058106422424316,6.584054470062256,16.8304443359375,-10.3759765625,6.744384765625
16.5699999,2.1116859912872314,-6.97430944442749,6.8043212890625,18.768310546875,-9.33837890625,10.8184814453125
16.589999900000002,2.1164743900299072,-6.92881965637207,6.92881965637207,9.27734375,-9.2620849609375,13.427734375
16.609999900000002,2.0805611610412598,-7.036558628082275,7.022193431854248,0.244140625,-11.993408203125,11.8865966796875
16.6299999,2.0159177780151367,-7.196970462799072,7.101202011108398,16.7083740234375,-21.66748046875,8.880615234375
16.6499999,1.9536685943603516,-7.292738437652588,7.0557122230529785,44.403076171875,-34.11865234375,6.4697265625
16.6699999,1.9967641830444336,-7.328651428222656,6.94079065322876,53.0242919921875,-34.4085693359375,15.7012939453125
16.6899999,2.0685901641845703,-7.228095054626465,6.876147270202637,60.2569580078125,-27.313232421875,8.5906982421875
16.7099999,2.10210919380188,-7.151480674743652,6.912060260772705,81.4208984375,-27.6641845703125,-12.63427734375
16.7299999,2.1356279850006104,-6.993463039398193,7.127538681030273,78.2928466796875,-41.6412353515625,-15.4876708984375
16.749999900000002,2.027888774871826,-6.653486728668213,7.429207801818848,33.63037109375,-49.9725341796875,-17.913818359375
16.769999900000002,2.0661959648132324,-6.129156112670898,7.47230339050293,15.0146484375,-48.15673828125,1.8310546875
16.7899999,2.03507137298584,-5.461174011230469,7.2783732414245605,8.97216796875,-40.2374267578125,15.44189453125
16.8099999,2.190694570541382,-5.140350818634033,7.072471618652344,6.317138671875,-17.7001953125,42.083740234375
16.8299999,2.2361843585968018,-5.080495834350586,6.766014099121094,24.1241455078125,-4.486083984375,33.538818359375
16.8499999,2.248155355453491,-5.2696380615234375,6.689399719238281,33.02001953125,-10.92529296875,8.7432861328125
16.8699999,2.255337953567505,-5.657498836517334,6.768408298492432,-23.5748291015625,-0.0762939453125,41.3360595703125
16.8899999,2.032677173614502,-6.054935932159424,6.789956092834473,-23.25439453125,13.6871337890625,50.8270263671875
16.9099999,2.0207061767578125,-6.370970726013184,6.907271862030029,-14.068603515625,28.717041015625,38.6962890625
16.929999900000002,2.070984363555908,-6.447585105895996,7.182605266571045,-94.970703125,47.91259765625,16.6778564453125
16.9499999,1.9297266006469727,-6.1315507888793945,7.462726593017578,-113.22021484375,21.392822265625,30.731201171875
16.9699999,1.7142484188079834,-5.767632007598877,7.644686222076416,-36.2396240234375,-4.852294921875,109.375
16.9899999,1.1971008777618408,-5.566518783569336,7.445967197418213,15.655517578125,13.916015625,144.866943359375
17.0099999,0.6248866319656372,-5.8657941818237305,7.0557122230529785,-101.165771484375,72.8912353515625,121.76513671875
17.0299999,0.07661445438861847,-6.555324077606201,6.687005519866943,-214.84375,110.5499267578125,78.5980224609375
17.0499999,-0.4118026793003082,-7.29034423828125,6.519411087036133,-110.9161376953125,56.5643310546875,94.9859619140625
17.0699999,-0.8595184087753296,-8.348581314086914,6.313509941101074,-10.4217529296875,3.2958984375,122.61962890625
17.089999900000002,-1.2521674633026123,-9.196128845214844,6.174646377563477,-66.6656494140625,31.890869140625,65.97900390625
17.109999900000002,-1.4197616577148438,-9.751583099365234,6.119579315185547,-104.4464111328125,67.7337646484375,-38.6962890625
17.1299999,-1.4437036514282227,-10.251971244812012,6.069301128387451,-52.6885986328125,21.8963623046875,-41.961669921875
17.1499999,-1.460463047027588,-10.488997459411621,6.054935932159424,-35.308837890625,-55.0689697265625,-55.9234619140625
17.1699999,-1.6903064250946045,-10.644620895385742,6.0597243309021,-36.0565185546875,-24.932861328125,-97.16796875
17.1899999,-1.7980455160140991,-10.108319282531738,5.762843608856201,13.12255859375,35.400390625,-125.0457763671875
17.2099999,-1.357512354850769,-9.016563415527344,5.410895824432373,4.974365234375,-0.7171630859375,-70.1751708984375
17.2299999,-0.8595184087753296,-7.46033239364624,5.0469770431518555,-40.3900146484375,-54.901123046875,9.9029541015625
17.249999900000002,-0.07900865375995636,-7.1490864753723145,4.563348293304443,-45.5780029296875,-73.3795166015625,75.62255859375
17.269999900000002,0.28969839215278625,-7.848193168640137,3.890577793121338,4.2724609375,-46.44775390625,4.7454833984375
17.2899999,0.3687070608139038,-9.260771751403809,3.4955344200134277,69.091796875,34.8052978515625,-77.484130859375
17.3099999,0.23702596127986908,-10.333374977111816,3.794809579849243,53.741455078125,67.3370361328125,-60.150146484375
17.3299999,0.12689268589019775,-10.577583312988281,4.410119533538818,-13.214111328125,-22.5372314453125,-2.9144287109375
17.3499999,0.22026655077934265,-10.465055465698242,4.960785865783691,-34.36279296875,-113.09814453125,22.39990234375
17.3699999,0.0694318488240242,-10.232817649841309,4.9368438720703125,-23.1781005859375,-96.5118408203125,-22.3388671875
17.3899999,0.23702596127986908,-10.180145263671875,4.587290287017822,1.1444091796875,18.1121826171875,-81.390380859375
17.409999900000003,0.40701428055763245,-9.710882186889648,4.07014274597168,-33.355712890625,30.4107666015625,-100.40283203125
17.429999900000002,0.7326257228851318,-8.769960403442383,3.821146011352539,-160.2935791015625,-80.3375244140625,-74.1729736328125
17.4499999,0.9744400978088379,-7.560888767242432,4.812345504760742,-188.0340576171875,-57.4188232421875,2.3193359375
17.4699999,1.1468225717544556,-6.347028732299805,5.224148273468018,246.5667724609375,10.406494140625,95.916748046875
17.4899999,0.9792284965515137,-6.761225700378418,5.30076265335083,318.756103515625,-133.36181640625,188.0035400390625
17.5099999,0.8092401623725891,-7.376535415649414,4.838681697845459,51.3763427734375,-44.7235107421875,91.85791015625
17.5299999,0.6009446382522583,-8.734047889709473,3.9600095748901367,-34.149169921875,86.2274169921875,-37.4908447265625
17.5499999,0.6177040338516235,-9.555258750915527,3.3255462646484375,-31.1737060546875,48.6907958984375,0.2899169921875
17.5699999,0.6416460275650024,-9.279925346374512,3.6104562282562256,-50.29296875,39.031982421875,12.0697021484375
17.589999900000002,0.6512228846549988,-8.49941635131836,4.034229755401611,-10.6658935546875,55.5419921875,15.3961181640625
17.609999900000002,0.6631938815116882,-7.841010570526123,4.496310710906982,23.406982421875,70.8160400390625,33.050537109375
17.6299999,0.47884035110473633,-7.438784599304199,4.821922302246094,-3.1280517578125,72.7081298828125,43.39599609375
17.6499999,0.3256114423274994,-7.465120792388916,4.908113479614258,22.4456787109375,64.849853515625,40.7257080078125
17.6699999,0.2801215946674347,-7.738059997558594,4.991910457611084,27.1759033203125,55.6488037109375,35.2935791015625
17.6899999,0.20111294090747833,-7.9176249504089355,5.183446884155273,-32.89794921875,53.52783203125,19.195556640625
17.7099999,0.2059013396501541,-7.915230751037598,5.161899089813232,-25.45166015625,53.4210205078125,36.1785888671875
17.7299999,0.12928688526153564,-7.4770917892456055,5.20978307723999,15.6097412109375,41.412353515625,55.6182861328125
17.749999900000002,-0.6703764796257019,-7.220912456512451,5.640739440917969,162.353515625,41.1834716796875,65.2313232421875
17.769999900000002,-0.6129156351089478,-7.759607791900635,6.603208065032959,499.9847412109375,21.91162109375,126.922607421875
17.7899999,-1.0247182846069336,-8.406042098999023,7.5632829666137695,462.5091552734375,-58.807373046875,78.5675048828125
17.8099999,-0.8738836050033569,-9.244012832641602,8.245630264282227,57.3883056640625,-108.642578125,-23.4527587890625
17.8299999,-0.5171475410461426,-9.332598686218262,8.401253700256348,77.63671875,-9.185791015625,-21.1029052734375
17.8499999,-0.4836287498474121,-8.346187591552734,7.884106159210205,104.827880859375,13.3514404296875,-9.5977783203125
17.8699999,-0.47884035110473633,-6.909666061401367,7.534552574157715,115.9515380859375,-21.5911865234375,-9.521484375
17.8899999,-0.5123591423034668,-5.492298603057861,8.037335395812988,99.700927734375,-13.4735107421875,-12.5885009765625
17.909999900000003,-0.6823474764823914,-4.565742492675781,8.427590370178223,128.570556640625,-52.6123046875,-31.463623046875
17.929999900000002,-0.8164227604866028,-3.8163576126098633,8.678980827331543,182.1136474609375,-96.0693359375,-57.6324462890625
17.9499999,-0.8954314589500427,-3.0406360626220703,8.827422142028809,133.97216796875,-30.9295654296875,-67.6116943359375
17.9699999,-0.8762778043746948,-2.427720546722412,8.396465301513672,220.9930419921875,-2.838134765625,4.150390625
17.9899999,-0.6440402865409851,-1.9536685943603516,7.948749542236328,269.3328857421875,-34.1339111328125,53.5888671875
18.0099999,-0.4620809257030487,-1.5107412338256836,7.649474620819092,208.9996337890625,7.26318359375,-20.5230712890625
18.0299999,-0.304063618183136,-1.0606313943862915,7.587224960327148,155.029296875,67.352294921875,-32.53173828125
18.0499999,-0.22505496442317963,-0.7158663272857666,8.188169479370117,139.2059326171875,87.6617431640625,30.6549072265625
18.0699999,-0.2849099934101105,0.2322375625371933,8.932766914367676,140.350341796875,49.713134765625,-18.2952880859375
18.089999900000002,-0.4572925269603729,1.0965443849563599,9.785101890563965,143.5546875,50.84228515625,-16.11328125
18.109999900000002,-0.6871358752250671,2.078166961669922,10.321403503417969,117.3858642578125,106.2164306640625,-7.8277587890625
18.1299999,-1.1085153818130493,2.585737943649292,10.390835762023926,131.7596435546875,133.5296630859375,-14.6026611328125
18.1499999,-1.2737152576446533,2.8562827110290527,10.225635528564453,204.2083740234375,129.1046142578125,2.5177001953125
18.1699999,-1.7717092037200928,3.117250680923462,9.856928825378418,268.4173583984375,115.325927734375,-21.17919921875
18.1899999,-2.367865562438965,3.4308910369873047,9.950302124023438,133.1024169921875,135.7574462890625,-61.004638671875
18.2099999,-3.0526070594787598,4.412513732910156,9.806650161743164,114.2425537109375,86.36474609375,13.48876953125
18.2299999,-3.797203779220581,5.185841083526611,9.847352027893066,130.1727294921875,31.6162109375,50.1708984375
18.249999900000002,-4.213795185089111,5.461174011230469,9.830592155456543,105.6060791015625,36.5753173828125,26.885986328125
18.269999900000002,-4.24970817565918,5.544970989227295,9.63187313079834,86.12060546875,45.9136962890625,16.78466796875
18.2899999,-4.177882194519043,5.688623428344727,9.016563415527344,87.921142578125,-3.7078857421875,38.63525390625
18.3099999,-3.907337188720703,6.088454723358154,8.832210540771484,44.43359375,5.9814453125,92.6055908203125
18.3299999,-3.6966474056243896,6.691793918609619,8.35097599029541,27.008056640625,13.18359375,96.588134765625
18.3499999,-2.9448680877685547,6.821080684661865,7.773972988128662,23.0712890625,19.8516845703125,70.037841796875
18.3699999,-2.1715409755706787,6.636727333068848,7.4555439949035645,-84.2437744140625,49.102783203125,7.171630859375
18.3899999,-1.37906014919281,6.308721542358398,7.438784599304199,-112.335205078125,77.5604248046875,-45.7763671875
18.409999900000003,-0.8403648138046265,6.232107162475586,7.805097579956055,-64.9871826171875,38.818359375,-32.3486328125
18.429999900000002,-0.8427590131759644,6.2847795486450195,8.451532363891602,7.7056884765625,6.0272216796875,-11.04736328125
18.4499999,-1.2018892765045166,6.538564682006836,8.78432559967041,89.9810791015625,-12.5579833984375,-3.4332275390625
18.4699999,-1.5969325304031372,6.730101108551025,8.980650901794434,43.9605712890625,-5.9051513671875,6.744384765625
18.4899999,-1.98958158493042,6.993463039398193,8.78193187713623,14.5416259765625,-9.3536376953125,13.458251953125
18.5099999,-2.1715409755706787,7.371747016906738,8.53293514251709,40.7562255859375,-34.6221923828125,20.965576171875
18.5299999,-2.207453966140747,7.781155586242676,8.255207061767578,59.1278076171875,-26.7333984375,37.9638671875
18.5499999,-2.121262788772583,8.166622161865234,7.735665798187256,97.808837890625,-26.458740234375,51.361083984375
18.5699999,-1.9345149993896484,8.573636054992676,7.314286231994629,96.3592529296875,-20.44677734375,66.6961669921875
18.589999900000002,-1.7357962131500244,8.789113998413086,6.631938934326172,76.690673828125,-25.8636474609375,84.9609375
18.609999900000002,-1.5490485429763794,8.892065048217773,6.349422931671143,28.62548828125,5.2947998046875,98.114013671875
18.6299999,-1.3263877630233765,8.971074104309082,6.09324312210083,-8.7890625,6.16455078125,96.9390869140625
18.6499999,-1.1324573755264282,8.832210540771484,5.992686748504639,-10.3302001953125,-2.655029296875,109.3902587890625
18.6699999,-0.8858546018600464,8.662221908569336,5.928043365478516,21.4385986328125,-1.2664794921875,114.6392822265625
18.6899999,-0.6631938815116882,8.403648376464844,5.808333396911621,22.2625732421875,9.0179443359375,123.84033203125
18.7099999,-0.47165772318840027,8.164227485656738,5.693411827087402,-36.9415283203125,15.8538818359375,142.27294921875
18.7299999,-0.3687070608139038,7.723694801330566,5.600037574768066,-85.6475830078125,0.18310546875,148.2696533203125
18.749999900000002,-0.2537853717803955,7.457938194274902,5.647922039031982,-86.700439453125,5.31005859375,123.687744140625
18.769999900000002,-0.090979665517807,7.2783732414245605,5.748478412628174,-76.8890380859375,33.5540771484375,98.6785888671875
18.7899999,0.08140286058187485,7.12035608291626,5.870582580566406,-66.650390625,38.7420654296875,91.7510986328125
18.8099999,0.2753331959247589,7.022193431854248,6.007051944732666,-50.3692626953125,31.982421875,89.599609375
18.8299999,0.44532153010368347,6.785167694091797,6.289567947387695,-89.630126953125,23.6053466796875,87.5701904296875
18.8499999,0.5315127968788147,6.378153324127197,6.6630635261535645,-143.585205078125,15.1824951171875,80.2459716796875
18.8699999,0.5817909836769104,6.030993938446045,7.003039836883545,-132.6141357421875,8.7127685546875,60.5621337890625
18.8899999,0.5817909836769104,5.781997203826904,7.38132381439209,-110.107421875,26.153564453125,26.7486572265625
18.909999900000003,0.5722141861915588,5.827486991882324,7.687781810760498,-114.2120361328125,43.6248779296875,19.83642578125
18.929999900000002,0.6368576288223267,6.138733386993408,8.283937454223633,-130.523681640625,38.9404296875,39.1693115234375
18.9499999,0.6368576288223267,6.174646377563477,8.860940933227539,-51.1016845703125,22.1405029296875,64.27001953125
18.9699999,0.6105214357376099,6.069301128387451,9.306262016296387,22.2320556640625,-6.134033203125,35.0189208984375
18.9899999,0.5099649429321289,5.5545477867126465,9.41639518737793,-6.9427490234375,17.4407958984375,20.843505859375
19.0099999,0.3256114423274994,4.843470096588135,8.990227699279785,-55.633544921875,34.8968505859375,20.5841064453125
19.0299999,0.1843535304069519,4.343081951141357,8.489839553833008,-82.9315185546875,69.305419921875,16.2353515625
19.0499999,0.11971008777618408,4.01268196105957,8.257601737976074,-118.59130859375,104.4158935546875,26.641845703125
19.0699999,0.009576806798577309,4.182670593261719,8.075642585754395,-66.070556640625,90.423583984375,35.2630615234375
19.089999900000002,-0.09816227108240128,4.180276393890381,8.324639320373535,-47.54638671875,87.4786376953125,60.9130859375
19.109999900000002,-0.19153612852096558,4.299986362457275,8.75080680847168,-101.4404296875,63.201904296875,73.4710693359375
19.1299999,-0.3519476354122162,4.127603530883789,9.244012832641602,-31.2652587890625,32.5164794921875,57.373046875
19.1499999,-0.42377370595932007,3.823540210723877,9.780313491821289,16.265869140625,4.486083984375,48.3856201171875
19.1699999,-0.5051765441894531,3.6343982219696045,10.053253173828125,20.172119140625,8.0413818359375,49.1790771484375
19.1899999,-0.5554547905921936,3.5936968326568604,10.010157585144043,6.53076171875,6.65283203125,54.901123046875
19.2099999,-0.5841852426528931,3.557783842086792,10.091560363769531,20.904541015625,3.9520263671875,60.3790283203125
19.2299999,-0.6967126727104187,3.4596214294433594,10.053253173828125,116.6229248046875,-27.618408203125,39.459228515625
19.249999900000002,-0.751779317855835,3.2178070545196533,10.065223693847656,47.2412109375,-58.59375,27.9541015625
19.269999900000002,-0.8619126081466675,3.0382418632507324,9.84495735168457,-88.9434814453125,-46.722412109375,36.773681640625
19.2899999,-0.8331822156906128,2.9927520751953125,9.485827445983887,-152.8167724609375,-33.1878662109375,62.9425048828125
19.3099999,-0.7015010714530945,3.0621838569641113,9.028534889221191,-147.88818359375,-39.7491455078125,89.4012451171875
19.3299999,-0.5051765441894531,3.1196448802948,8.647856712341309,-82.9620361328125,-31.6925048828125,98.5107421875
19.3499999,-0.33039984107017517,2.983175277709961,8.283937454223633,-33.782958984375,-7.7056884765625,100.1129150390625
19.3699999,-0.26096799969673157,2.518700122833252,7.972691535949707,-19.805908203125,18.1121826171875,101.9744873046875
19.3899999,-0.26575639843940735,2.0015525817871094,7.888894557952881,-54.3060302734375,38.0706787109375,90.4998779296875
19.409999900000003,-0.33518823981285095,1.436521053314209,8.032546997070312,-111.7095947265625,36.0870361328125,98.7548828125
19.429999900000002,-0.40222588181495667,0.9744400978088379,8.44195556640625,-131.3018798828125,21.514892578125,107.91015625
19.4499999,-0.4572925269603729,0.6392518281936646,8.918401718139648,-110.382080078125,22.9034423828125,107.818603515625
19.4699999,-0.507570743560791,0.3447650372982025,9.320627212524414,-92.1478271484375,24.2462158203125,115.29541015625
19.4899999,-0.6344634294509888,-0.10055647045373917,9.512163162231445,-72.5555419921875,15.31982421875,117.4774169921875
19.5099999,-0.8044517636299133,-0.6607996821403503,9.57441234588623,-55.5572509765625,20.99609375,91.461181640625
19.5299999,-0.9864110946655273,-1.290474772453308,9.548076629638672,-74.554443359375,34.2559814453125,73.8067626953125
19.5499999,-1.137245774269104,-1.7621324062347412,9.433155059814453,-76.446533203125,33.1268310546875,72.8912353515625
19.5699999,-1.2018892765045166,-2.0661959648132324,9.366117477416992,-59.99755859375,27.7252197265625,73.6236572265625
19.589999900000002,-1.2258312702178955,-2.2457611560821533,9.29189682006836,-66.8487548828125,23.9715576171875,68.2220458984375
19.609999900000002,-1.237802267074585,-2.535459518432617,9.370905876159668,-89.111328125,25.6805419921875,51.7578125
19.6299999,-1.2282254695892334,-2.8850131034851074,9.481039047241211,-74.8138427734375,18.3868408203125,31.005859375
19.6499999,-1.1994950771331787,-3.201047658920288,9.557653427124023,-19.22607421875,9.735107421875,17.2576904296875
19.6699999,-1.1276689767837524,-3.3925838470458984,9.533711433410645,-32.7606201171875,10.1470947265625,19.378662109375
19.6899999,-1.0079588890075684,-3.445256233215332,9.792284965515137,-82.5653076171875,10.528564453125,22.796630859375
19.7099999,-0.9552865028381348,-3.4117374420166016,9.947908401489258,30.5023193359375,-16.7999267578125,-6.3323974609375
19.7299999,-0.9193734526634216,-3.406949043273926,9.832986831665039,137.0086669921875,-53.070068359375,-25.8941650390625
19.749999900000002,-0.9409212470054626,-3.2106244564056396,9.66299819946289,49.6673583984375,-16.571044921875,-21.42333984375
19.769999900000002,-1.0055646896362305,-3.045424461364746,9.081207275390625,-24.35302734375,16.05224609375,-0.8392333984375
19.7899999,-1.0558429956436157,-2.7892448902130127,8.552088737487793,-26.397705078125,-0.9918212890625,14.5416259765625
19.8099999,-1.0678139925003052,-2.557007312774658,8.461109161376953,-28.1524658203125,-5.43212890625,17.9443359375
19.8299999,-1.0582371950149536,-2.559401512145996,8.44434928894043,-7.5531005859375,-4.608154296875,28.8848876953125
19.8499999,-1.01753568649292,-2.7461493015289307,8.482656478881836,-8.9111328125,-2.38037109375,28.839111328125
19.8699999,-0.9600749015808105,-3.136404275894165,8.497021675109863,-15.899658203125,3.7689208984375,21.5911865234375
19.8899999,-0.9624691009521484,-3.7469255924224854,8.458714485168457,13.3514404296875,5.2490234375,20.01953125
19.909999900000003,-1.039083480834961,-4.402936935424805,8.439560890197754,48.7213134765625,10.2386474609375,17.4713134765625
19.929999900000002,-1.2641384601593018,-5.114014625549316,8.446743965148926,36.2396240234375,14.068603515625,3.631591796875
19.9499999,-1.6663644313812256,-5.875370979309082,8.437167167663574,3.1280517578125,6.6375732421875,-13.7786865234375
19.9699999,-2.2385785579681396,-6.830657482147217,8.317456245422363,8.270263671875,4.3792724609375,-29.78515625
19.9899999,-2.9903578758239746,-7.805097579956055,7.994239330291748,3.448486328125,12.847900390625,-40.5731201171875
20.0099999,-3.9049429893493652,-8.695740699768066,7.65186882019043,-16.6168212890625,33.6151123046875,-59.8907470703125
20.0299999,-4.999093055725098,-9.57441234588623,7.3885064125061035,-29.6630859375,38.4979248046875,-80.3985595703125
20.0499999,-6.234501361846924,-10.345345497131348,7.225700855255127,-19.3023681640625,27.7099609375,-112.85400390625
20.0699999,-7.6111674308776855,-10.924742698669434,7.314286231994629,3.11279296875,30.7769775390625,-154.2205810546875
20.089999900000002,-9.090784072875977,-11.41555404663086,7.343016624450684,43.3807373046875,35.491943359375,-186.58447265625
20.109999900000002,-10.687716484069824,-11.568782806396484,7.462726593017578,74.798583984375,35.3546142578125,-216.7205810546875
20.1299999,-12.401965141296387,-11.221623420715332,7.671022415161133,47.637939453125,31.1431884765625,-255.645751953125
20.1499999,-14.300566673278809,-10.730812072753906,8.458714485168457,35.8734130859375,29.6173095703125,-280.70068359375
20.1699999,-16.503232955932617,-10.556035041809082,10.062829971313477,52.2308349609375,12.39013671875,-308.135986328125
20.1899999,-18.866310119628906,-11.111490249633789,12.428300857543945,25.87890625,-46.844482421875,-380.7830810546875
20.2099999,-21.471200942993164,-12.176909446716309,14.932636260986328,9.490966796875,-109.588623046875,-479.8583984375
20.2299999,-24.44001007080078,-14.022839546203613,17.712305068969727,104.9346923828125,-124.45068359375,-500
20.249999900000002,-27.88526725769043,-15.193603515625,19.14643096923828,146.148681640625,-181.5338134765625,-500
