# Time (seconds),Accel_X,Accel_Y,Accel_Z,Gyro_X,Gyro_Y,Gyro_Z
0.0099999,0.5315127968788147,9.742006301879883,-0.7972691655158997,3.570556640625,1.15966796875,0.30517578125
0.029999900000000003,0.5482721924781799,9.744400978088379,-0.8259995579719543,0.457763671875,0.5950927734375,-1.3885498046875
0.0499999,0.5578489899635315,9.765948295593262,-0.8355764150619507,-0.7171630859375,1.5869140625,-1.8157958984375
0.0699999,0.5650315880775452,9.78989028930664,-0.8403648138046265,0.823974609375,2.38037109375,-0.5340576171875
0.08999990000000001,0.5650315880775452,9.821015357971191,-0.8403648138046265,2.5634765625,0.6866455078125,1.2664794921875
0.10999990000000001,0.5650315880775452,9.849745750427246,-0.8307880163192749,1.007080078125,0.42724609375,0.4119873046875
0.1299999,0.5650315880775452,9.852140426635742,-0.8379706144332886,-1.6326904296875,1.434326171875,-0.2593994140625
0.14999990000000002,0.5674257874488831,9.840168952941895,-0.8355764150619507,-3.6773681640625,1.4495849609375,0.1678466796875
0.1699999,0.5674257874488831,9.830592155456543,-0.8307880163192749,-5.5389404296875,0.2899169921875,0.3814697265625
0.1899999,0.5674257874488831,9.81143856048584,-0.7972691655158997,-5.401611328125,0.06103515625,0.67138671875
0.20999990000000002,0.5626373887062073,9.78989028930664,-0.7781155705451965,-2.13623046875,0.1678466796875,0.67138671875
0.2299999,0.5602431893348694,9.768342971801758,-0.7565677165985107,-0.732421875,0.701904296875,0.6103515625
0.2499999,0.5578489899635315,9.749189376831055,-0.7589619159698486,-2.685546875,0.2593994140625,0.701904296875
0.2699999,0.5626373887062073,9.732429504394531,-0.7613561153411865,-4.1656494140625,-0.0457763671875,0.5950927734375
0.28999990000000003,0.5650315880775452,9.72285270690918,-0.751779317855835,-4.058837890625,0.3814697265625,0.2288818359375
0.3099999,0.5722141861915588,9.694122314453125,-0.7541735172271729,0.30517578125,0.244140625,0.823974609375
0.3299999,0.5674257874488831,9.691728591918945,-0.7422025203704834,0.152587890625,0.335693359375,-0.30517578125
0.34999990000000003,0.5626373887062073,9.682151794433594,-0.751779317855835,-0.9002685546875,0.518798828125,-0.1373291015625
0.3699999,0.5482721924781799,9.68933391571045,-0.7637503147125244,-1.9073486328125,0.48828125,0.4119873046875
0.3899999,0.5410895943641663,9.682151794433594,-0.7829039692878723,-2.01416015625,0.5035400390625,0.457763671875
0.40999990000000003,0.5339069962501526,9.670180320739746,-0.7852981686592102,-3.1585693359375,1.0528564453125,-0.335693359375
0.4299999,0.5363011956214905,9.646238327026367,-0.7829039692878723,-1.6326904296875,1.5869140625,-1.03759765625
0.4499999,0.5434837937355042,9.641449928283691,-0.7374141216278076,-1.1749267578125,1.8157958984375,-1.129150390625
0.4699999,0.5482721924781799,9.648633003234863,-0.706289529800415,2.5787353515625,1.129150390625,-0.3204345703125
0.4899999,0.5554547905921936,9.658209800720215,-0.667982280254364,1.4190673828125,0.4425048828125,-0.2288818359375
0.5099999,0.5602431893348694,9.66299819946289,-0.6799532771110535,-0.4730224609375,0.48828125,-1.2664794921875
0.5299999,0.5626373887062073,9.670180320739746,-0.6871358752250671,-4.241943359375,1.129150390625,-2.960205078125
0.5499999,0.5626373887062073,9.6989107131958,-0.7110779285430908,-2.01416015625,1.8157958984375,-2.5482177734375
0.5699999,0.5650315880775452,9.737217903137207,-0.7230489253997803,0.79345703125,0.3662109375,-0.67138671875
0.5899998999999999,0.5578489899635315,9.78989028930664,-0.7374141216278076,-0.732421875,0.2288818359375,-1.0223388671875
0.6099998999999999,0.5554547905921936,9.818621635437012,-0.7709329724311829,-3.0975341796875,0.91552734375,-1.373291015625
0.6299999,0.5434837937355042,9.852140426635742,-0.7829039692878723,-4.9896240234375,2.655029296875,-1.9683837890625
0.6499999,0.5339069962501526,9.86889934539795,-0.790086567401886,-1.4801025390625,2.3651123046875,-0.7171630859375
0.6699999,0.524330198764801,9.883264541625977,-0.751779317855835,-0.4119873046875,1.9073486328125,0.9307861328125
0.6899999,0.5219359993934631,9.861717224121094,-0.7134721279144287,-0.091552734375,1.64794921875,0.946044921875
0.7099999,0.5171475410461426,9.818621635437012,-0.6823474764823914,-0.9918212890625,1.4190673828125,0.2288818359375
0.7299998999999999,0.5171475410461426,9.768342971801758,-0.6703764796257019,-4.33349609375,1.495361328125,-1.068115234375
0.7499998999999999,0.5171475410461426,9.737217903137207,-0.6727706789970398,-5.1727294921875,1.8157958984375,-0.8544921875
0.7699999,0.5147533416748047,9.730035781860352,-0.6655880808830261,-4.7607421875,2.0599365234375,-0.396728515625
0.7899999,0.5147533416748047,9.725247383117676,-0.6655880808830261,-3.23486328125,1.6632080078125,0.1220703125
0.8099999,0.5123591423034668,9.720458984375,-0.6584054827690125,-3.997802734375,1.708984375,-0.2593994140625
0.8299999,0.507570743560791,9.718064308166504,-0.6440402865409851,-4.669189453125,2.4871826171875,-1.4190673828125
0.8499998999999999,0.5051765441894531,9.718064308166504,-0.629675030708313,-1.46484375,2.7008056640625,-0.4730224609375
0.8699998999999999,0.5003881454467773,9.739612579345703,-0.6129156351089478,1.068115234375,1.617431640625,0.0457763671875
0.8899999,0.507570743560791,9.75397777557373,-0.6009446382522583,-0.518798828125,1.8310546875,0.244140625
0.9099999,0.5195417404174805,9.75637149810791,-0.5817909836769104,0.7171630859375,3.1890869140625,0.2288818359375
0.9299999,0.5291185975074768,9.765948295593262,-0.586579442024231,2.7618408203125,1.9989013671875,-0.7171630859375
0.9499999,0.5410895943641663,9.758766174316406,-0.5674257874488831,2.227783203125,1.4495849609375,0.0457763671875
0.9699998999999999,0.545877993106842,9.75637149810791,-0.586579442024231,3.0364990234375,2.01416015625,0.946044921875
0.9899998999999999,0.5410895943641663,9.749189376831055,-0.6129156351089478,2.9144287109375,2.5787353515625,-0.5035400390625
1.0099999,0.5339069962501526,9.746794700622559,-0.608127236366272,-2.6092529296875,3.7078857421875,-1.15966796875
1.0299999,0.5267243981361389,9.744400978088379,-0.6105214357376099,1.190185546875,2.1209716796875,0.30517578125
1.0499999,0.5219359993934631,9.744400978088379,-0.5889736413955688,3.2196044921875,0.9002685546875,1.0223388671875
1.0699999,0.524330198764801,9.744400978088379,-0.5650315880775452,1.40380859375,2.3193359375,-0.1983642578125
1.0899999,0.5315127968788147,9.746794700622559,-0.5578489899635315,1.4190673828125,3.2196044921875,-1.3580322265625
1.1099999,0.5410895943641663,9.768342971801758,-0.5171475410461426,0.18310546875,2.5177001953125,-0.54931640625
1.1299999,0.5530605912208557,9.801861763000488,-0.4405331015586853,3.021240234375,2.5482177734375,1.5411376953125
1.1499999,0.5626373887062073,9.821015357971191,-0.3519476354122162,5.8441162109375,0.0457763671875,1.7852783203125
1.1699998999999999,0.5578489899635315,9.847352027893066,-0.19393034279346466,3.90625,1.983642578125,1.40380859375
1.1899998999999999,0.5722141861915588,9.77791976928711,-0.12449848651885986,8.7432861328125,1.068115234375,5.0811767578125
1.2099999,0.5770025849342346,9.782708168029785,0.047884032130241394,-1.77001953125,-0.5340576171875,1.495361328125
1.2299999,0.6105214357376099,9.78989028930664,0.17477671802043915,-11.1846923828125,-1.983642578125,1.068115234375
1.2499999,0.6631938815116882,9.830592155456543,0.40462008118629456,-17.9595947265625,-5.523681640625,6.5460205078125
1.2699999,0.7158663272857666,9.890447616577148,0.7350199222564697,-25.390625,-7.50732421875,9.063720703125
1.2899999,0.768538773059845,9.883264541625977,1.1013327836990356,-25.4974365234375,-15.5029296875,7.75146484375
1.3099999,0.8236053586006165,9.854534149169922,1.50355863571167,-21.0418701171875,-22.7203369140625,3.021240234375
1.3299999,0.8547300100326538,9.895236015319824,1.8531121015548706,-19.2413330078125,-27.069091796875,-1.3427734375
1.3499999,0.8762778043746948,10.007762908935547,2.0925323963165283,-20.8892822265625,-33.843994140625,3.9825439453125
1.3699999,0.8762778043746948,10.194510459899902,2.27209734916687,-27.7557373046875,-39.8101806640625,10.5438232421875
1.3899999,0.8475474119186401,10.314221382141113,2.47560453414917,-36.0107421875,-40.9393310546875,11.962890625
1.4099999,0.8331822156906128,10.292673110961914,2.669534921646118,-33.294677734375,-47.7752685546875,11.16943359375
1.4299998999999999,0.8403648138046265,10.220847129821777,3.0597896575927734,-48.0499267578125,-53.64990234375,5.9967041015625
1.4499999,0.8643068075180054,10.192116737365723,3.550601005554199,-50.3692626953125,-59.63134765625,3.1890869140625
1.4699999,0.8571242094039917,10.311826705932617,4.156333923339844,-36.5753173828125,-70.4345703125,4.3792724609375
1.4899999,0.7733271718025208,10.553641319274902,4.747702121734619,-13.8702392578125,-82.45849609375,7.6141357421875
1.5099999,0.5554547905921936,10.704475402832031,5.171475887298584,-0.0762939453125,-95.1385498046875,14.16015625
1.5299999,0.26096799969673157,10.682928085327148,5.22175407409668,10.68115234375,-100.6011962890625,16.326904296875
1.5499999,-0.07422025501728058,10.45547866821289,5.051765441894531,-7.26318359375,-97.7020263671875,14.0228271484375
1.5699999,-0.38546648621559143,10.122684478759766,4.812345504760742,-43.060302734375,-98.9837646484375,13.5498046875
1.5899999,-0.6799532771110535,9.718064308166504,4.726154327392578,-49.5147705078125,-114.9444580078125,13.5955810546875
1.6099999,-0.9672574996948242,9.38048267364502,4.6950297355651855,-31.585693359375,-142.8985595703125,5.92041015625
1.6299999,-1.2880805730819702,9.028534889221191,4.6734819412231445,-24.0325927734375,-161.0260009765625,-3.9520263671875
1.6499999,-1.5873557329177856,8.719682693481445,4.106055736541748,-5.6915283203125,-173.248291015625,-7.87353515625
1.6699999,-1.8818424940109253,8.631096839904785,3.2800562381744385,-23.92578125,-167.236328125,-16.1895751953125
1.6899998999999999,-2.1739351749420166,8.7484130859375,2.1499931812286377,-63.8580322265625,-166.412353515625,-21.514892578125
1.7099999,-2.473210334777832,8.983044624328613,0.8547300100326538,-48.919677734375,-173.858642578125,-18.5699462890625
1.7299999,-2.7916390895843506,9.222464561462402,-0.6129156351089478,-34.85107421875,-176.361083984375,-20.99609375
1.7499999,-3.0358476638793945,9.29189682006836,-1.8962076902389526,-64.51416015625,-184.417724609375,-39.9932861328125
1.7699999,-3.2561142444610596,9.528923034667969,-3.3446998596191406,-87.6312255859375,-223.0987548828125,-77.7130126953125
1.7899999,-3.3638534545898438,10.137049674987793,-4.314351558685303,-66.8487548828125,-189.6209716796875,-76.3702392578125
1.8099999,-3.3063924312591553,10.8505220413208,-4.7620673179626465,-23.5137939453125,-93.4906005859375,-3.326416015625
1.8299999,-2.9712042808532715,11.405977249145508,-4.4939165115356445,35.0799560546875,-38.604736328125,34.088134765625
1.8499999,-2.410961151123047,11.21444034576416,-3.665522813796997,97.59521484375,-46.1883544921875,0.9918212890625
1.8699999,-1.6855180263519287,10.299856185913086,-2.7293899059295654,115.6768798828125,-90.7135009765625,-40.71044921875
1.8899999,-1.0199298858642578,9.253589630126953,-1.9608511924743652,70.9075927734375,-101.9744873046875,-55.511474609375
1.9099999,-0.5195417404174805,8.520963668823242,-1.50355863571167,2.62451171875,-85.4949951171875,-40.130615234375
1.9299998999999999,-0.12689268589019775,8.396465301513672,-1.235408067703247,-24.59716796875,-82.672119140625,-19.378662109375
1.9499999,0.2059013396501541,8.820239067077637,-0.8212111592292786,-39.1998291015625,-87.4786376953125,-12.7716064453125
1.9699999,0.49799394607543945,9.459490776062012,-0.2968810200691223,-70.37353515625,-93.26171875,-10.19287109375
1.9899999,0.7110779285430908,10.04846477508545,0.16759411990642548,-89.019775390625,-93.32275390625,-6.9732666015625
2.0099999,0.8140285611152649,10.505757331848145,0.5554547905921936,-86.4410400390625,-82.4737548828125,-16.082763671875
2.0299999,0.8331822156906128,10.651803016662598,0.8954314589500427,-86.822509765625,-66.7877197265625,-23.895263671875
2.0499999,0.7972691655158997,10.625467300415039,1.259350061416626,-63.232421875,-58.8531494140625,-35.3546142578125
2.0699999,0.7038952708244324,10.54645824432373,1.6950948238372803,-26.0162353515625,-57.80029296875,-45.83740234375
2.0899999,0.5650315880775452,10.412383079528809,2.1092917919158936,18.463134765625,-57.281494140625,-42.41943359375
2.1099999,0.3232172429561615,10.323798179626465,2.2218191623687744,39.2303466796875,-64.361572265625,-35.2020263671875
2.1299999,0.028730420395731926,10.235212326049805,2.0207061767578125,30.5633544921875,-60.72998046875,-29.2816162109375
2.1499999,-0.272938996553421,10.15141487121582,1.5873557329177856,4.730224609375,-48.9959716796875,-23.5443115234375
2.1699999,-0.4812345504760742,10.053253173828125,1.2306196689605713,-16.41845703125,-50.8880615234375,-15.2435302734375
2.1899999,-0.5506663918495178,9.945513725280762,1.1444283723831177,-23.040771484375,-70.0531005859375,-9.2315673828125
2.2099999,-0.5554547905921936,9.856928825378418,1.2473790645599365,7.6141357421875,-83.587646484375,-10.101318359375
2.2299999,-0.5291185975074768,9.66299819946289,1.2952631711959839,39.886474609375,-79.7882080078125,-5.462646484375
2.2499999,-0.5554547905921936,9.490615844726562,1.0989385843276978,31.524658203125,-61.2945556640625,-7.3089599609375
2.2699999,-0.6607996821403503,9.342175483703613,0.6440402865409851,0.7171630859375,-47.5311279296875,-12.725830078125
2.2899999,-0.7493851184844971,9.210494041442871,0.17477671802043915,-19.4244384765625,-41.07666015625,-10.5133056640625
2.3099999,-0.849941611289978,9.129091262817383,-0.16519992053508759,-22.2320556640625,-34.210205078125,-13.5650634765625
2.3299999,-0.950498104095459,9.133879661560059,-0.3471592366695404,-8.209228515625,-30.548095703125,-22.88818359375
2.3499999,-1.0558429956436157,9.222464561462402,-0.38307225704193115,1.2664794921875,-25.81787109375,-27.069091796875
2.3699999,-1.1635819673538208,9.373299598693848,-0.40222588181495667,10.07080078125,-22.9034423828125,-17.2119140625
2.3899999,-1.259350061416626,9.66539192199707,-0.43335050344467163,4.69970703125,-23.773193359375,-8.9874267578125
2.4099999,-1.2737152576446533,9.876082420349121,-0.38546648621559143,-10.92529296875,-18.096923828125,-1.8463134765625
2.4299999,-1.2186486721038818,10.029311180114746,-0.26575639843940735,-13.8702392578125,-14.007568359375,3.814697265625
2.4499999,-1.1252747774124146,10.053253173828125,-0.1364694982767105,-5.584716796875,-15.1214599609375,0.640869140625
2.4699999,-0.9911994934082031,9.959878921508789,0.021547814831137657,-8.514404296875,-5.0201416015625,0.640869140625
2.4899999,-0.8259995579719543,9.81143856048584,0.15322890877723694,-18.1884765625,10.1776123046875,-2.227783203125
2.5099999,-0.6320692300796509,9.660603523254395,0.4596867263317108,-30.2581787109375,18.61572265625,-8.697509765625
2.5299999,-0.45010992884635925,9.615114212036133,0.8068459630012512,-14.9078369140625,6.805419921875,-13.580322265625
2.5499999,-0.30885201692581177,9.68694019317627,1.2713210582733154,8.2855224609375,0.6866455078125,-10.406494140625
2.5699999,-0.2513911724090576,9.849745750427246,1.6112977266311646,12.7716064453125,1.953125,-2.8076171875
2.5899999,-0.2585737705230713,10.007762908935547,1.8148049116134644,5.889892578125,0.6256103515625,2.0294189453125
2.6099999,-0.28969839215278625,10.08437728881836,1.8291701078414917,3.509521484375,-3.96728515625,5.7220458984375
2.6299999,-0.2944868206977844,9.986215591430664,1.7980455160140991,-0.1983642578125,-3.96728515625,6.378173828125
2.6499999,-0.2777273952960968,9.854534149169922,1.7166426181793213,-14.1754150390625,1.2359619140625,2.38037109375
2.6699999,-0.24899697303771973,9.72285270690918,1.644816517829895,-22.8118896484375,3.9825439453125,-2.410888671875
2.6899999,-0.19871874153614044,9.66539192199707,1.6735470294952393,-18.463134765625,6.988525390625,-1.495361328125
2.7099999,-0.17238251864910126,9.68933391571045,1.8052281141281128,-8.8653564453125,8.1024169921875,0
2.7299999,-0.1628057211637497,9.744400978088379,1.944091796875,7.14111328125,2.349853515625,1.617431640625
2.7499999,-0.17238251864910126,9.739612579345703,2.094926595687866,15.5029296875,1.373291015625,2.4871826171875
2.7699999,-0.19153612852096558,9.718064308166504,2.1763293743133545,16.6015625,-0.091552734375,0.579833984375
2.7899999,-0.21308395266532898,9.660603523254395,2.1332337856292725,17.1051025390625,-6.4239501953125,-0.2288818359375
2.8099999,-0.2513911724090576,9.636661529541016,2.051830768585205,9.8876953125,-7.7362060546875,3.5400390625
2.8299999,-0.28969839215278625,9.603142738342285,1.8411411046981812,7.0953369140625,-6.866455078125,5.584716796875
2.8499999,-0.31364041566848755,9.548076629638672,1.6735470294952393,-0.6561279296875,-0.30517578125,6.8206787109375
2.8699999,-0.363918662071228,9.50737476348877,1.4437036514282227,-0.244140625,1.556396484375,1.9378662109375
2.8899999,-0.3663128614425659,9.457097053527832,1.2737152576446533,4.730224609375,3.204345703125,0.1373291015625
2.9099999,-0.35434186458587646,9.478644371032715,1.2761094570159912,-12.8936767578125,13.2293701171875,-0.54931640625
2.9299999,-0.3232172429561615,9.550470352172852,1.3479355573654175,-10.3607177734375,7.9803466796875,-0.6256103515625
2.9499999,-0.2777273952960968,9.639056205749512,1.4987702369689941,6.9580078125,0.1068115234375,2.655029296875
2.9699999,-0.22744916379451752,9.708487510681152,1.6879122257232666,9.429931640625,1.3580322265625,2.5787353515625
2.9899999,-0.22026655077934265,9.782708168029785,1.721431016921997,12.2222900390625,4.1351318359375,0.091552734375
3.0099999,-0.21787235140800476,9.84256362915039,1.6879122257232666,12.786865234375,4.058837890625,2.349853515625
3.0299999,-0.22266076505184174,9.931148529052734,1.623268723487854,5.7220458984375,5.18798828125,4.8828125
3.0499999,-0.2059013396501541,9.99100399017334,1.5610195398330688,5.0048828125,4.5166015625,7.6904296875
3.0699999,-0.17717093229293823,9.976638793945312,1.5083470344543457,8.941650390625,4.9591064453125,6.683349609375
3.0899999,-0.13407529890537262,9.93593692779541,1.4867992401123047,2.9144287109375,5.9967041015625,1.678466796875
3.1099999,-0.0933738648891449,9.852140426635742,1.522712230682373,-3.72314453125,6.2255859375,-0.9765625
3.1299999,-0.07900865375995636,9.799467086791992,1.5107412338256836,9.1705322265625,3.1280517578125,1.5869140625
3.1499999,-0.08379705995321274,9.77791976928711,1.5394717454910278,12.0849609375,3.387451171875,3.0975341796875
3.1699999,-0.08619125932455063,9.75397777557373,1.534683346748352,9.0789794921875,4.7454833984375,3.0059814453125
3.1899999,-0.08140286058187485,9.68694019317627,1.556231141090393,4.852294921875,0.2593994140625,3.4637451171875
3.2099999,-0.035913024097681046,9.612719535827637,1.5969325304031372,5.3558349609375,-6.2408447265625,-1.1749267578125
3.2299999,0.0071826050989329815,9.550470352172852,1.6855180263519287,-1.922607421875,-9.0179443359375,-6.28662109375
3.2499999,0.033518824726343155,9.524134635925293,1.6950948238372803,2.9144287109375,-13.36669921875,-6.7901611328125
3.2699999,0.014365210197865963,9.543288230895996,1.6543933153152466,13.7939453125,-16.6473388671875,-9.27734375
3.2899999,-0.09576806426048279,9.57441234588623,1.4053963422775269,32.3638916015625,-16.4794921875,-17.63916015625
3.3099999,-0.2585737705230713,9.643844604492188,1.0462661981582642,41.8853759765625,-6.988525390625,-21.91162109375
3.3299999000000002,-0.4381389021873474,9.634267807006836,0.6775590777397156,15.5029296875,4.730224609375,-11.6729736328125
3.3499999,-0.5841852426528931,9.593565940856934,0.3495534360408783,8.331298828125,5.645751953125,-5.0811767578125
3.3699999,-0.667982280254364,9.50498104095459,0.17717093229293823,0.335693359375,0.18310546875,-15.93017578125
3.3899999,-0.7374141216278076,9.41639518737793,0.18914192914962769,-14.7705078125,0.396728515625,-27.3590087890625
3.4099999,-0.8068459630012512,9.387664794921875,0.17717093229293823,1.3580322265625,3.0364990234375,-29.0679931640625
3.4299999,-0.9409212470054626,9.488221168518066,0.1628057211637497,7.0648193359375,7.415771484375,-23.8494873046875
3.4499999,-1.0630255937576294,9.622296333312988,0.1388636976480484,-12.237548828125,14.46533203125,-12.7716064453125
3.4699999,-1.1492167711257935,9.799467086791992,0.1867477297782898,-30.364990234375,18.3868408203125,-6.103515625
3.4899999,-1.115697979927063,9.952696800231934,0.40462008118629456,-28.38134765625,18.280029296875,-3.35693359375
3.5099999,-1.0103530883789062,10.06043529510498,0.7805097699165344,-17.3797607421875,15.106201171875,2.2735595703125
3.5299999,-0.8834604024887085,10.122684478759766,1.2090718746185303,-19.7296142578125,9.27734375,6.04248046875
3.5499999,-0.7661445140838623,10.074800491333008,1.4963760375976562,-1.708984375,9.33837890625,11.3677978515625
3.5699999,-0.7206547260284424,9.986215591430664,1.50355863571167,21.05712890625,19.0887451171875,4.669189453125
3.5899999,-0.689530074596405,9.859322547912598,1.5059528350830078,2.8533935546875,39.825439453125,-0.396728515625
3.6099999,-0.6584054827690125,9.768342971801758,1.4508862495422363,5.31005859375,33.4930419921875,4.1046142578125
3.6299999,-0.6320692300796509,9.727641105651855,1.4269442558288574,22.94921875,11.0015869140625,7.0037841796875
3.6499999,-0.6105214357376099,9.706093788146973,1.400607943534851,14.251708984375,10.7574462890625,7.6904296875
3.6699999,-0.6057330369949341,9.701305389404297,1.3120225667953491,-1.5869140625,23.3154296875,5.4473876953125
3.6899999,-0.6153098344802856,9.703699111938477,1.1755530834197998,-1.46484375,24.8565673828125,3.2958984375
3.7099999,-0.6248866319656372,9.72285270690918,1.1276689767837524,4.852294921875,17.6239013671875,6.103515625
3.7299999,-0.6272808313369751,9.75397777557373,1.1659762859344482,4.5166015625,13.153076171875,10.406494140625
3.7499999,-0.6105214357376099,9.744400978088379,1.2497732639312744,13.214111328125,13.9312744140625,11.0626220703125
3.7699999,-0.5889736413955688,9.679757118225098,1.2401964664459229,26.9012451171875,12.3748779296875,7.8887939453125
3.7899999,-0.5722141861915588,9.583989143371582,1.192312479019165,20.2484130859375,12.7105712890625,3.7384033203125
3.8099999,-0.5530605912208557,9.473855972290039,1.070208191871643,15.13671875,15.5181884765625,2.1820068359375
3.8299999000000002,-0.5722141861915588,9.473855972290039,0.912190854549408,21.1944580078125,15.07568359375,-2.8228759765625
3.8499999,-0.5650315880775452,9.466673851013184,0.7613561153411865,29.4342041015625,17.913818359375,0.213623046875
3.8699999,-0.569819986820221,9.516951560974121,0.706289529800415,26.5350341796875,23.040771484375,0.6103515625
3.8899999,-0.5650315880775452,9.557653427124023,0.5889736413955688,30.9906005859375,19.744873046875,-3.0364990234375
3.9099999,-0.5674257874488831,9.612719535827637,0.49559974670410156,31.6619873046875,21.7742919921875,-4.08935546875
3.9299999,-0.5793967843055725,9.660603523254395,0.363918662071228,13.5345458984375,27.0843505859375,-0.8392333984375
3.9499999,-0.5937620401382446,9.732429504394531,0.2825157940387726,-1.861572265625,26.2298583984375,1.495361328125
3.9699999,-0.6033388376235962,9.80904483795166,0.31364041566848755,-8.1787109375,18.6767578125,3.9520263671875
3.9899999,-0.5961562395095825,9.849745750427246,0.4357447028160095,4.7607421875,9.58251953125,9.7503662109375
4.0099999,-0.586579442024231,9.830592155456543,0.4908113479614258,22.5067138671875,6.1798095703125,9.1705322265625
4.029999900000001,-0.5889736413955688,9.782708168029785,0.4668693244457245,17.7154541015625,14.129638671875,1.52587890625
4.0499999,-0.5770025849342346,9.684545516967773,0.33279404044151306,13.5955810546875,20.477294921875,1.739501953125
4.069999900000001,-0.5793967843055725,9.646238327026367,0.14844051003456116,20.3399658203125,18.6767578125,1.983642578125
4.0899999000000005,-0.5722141861915588,9.658209800720215,0.035913024097681046,11.199951171875,14.6026611328125,2.44140625
4.1099999,-0.5602431893348694,9.701305389404297,-0.06464344263076782,12.2528076171875,14.3585205078125,3.753662109375
4.1299999000000005,-0.5554547905921936,9.737217903137207,-0.1867477297782898,20.3857421875,16.9677734375,3.5858154296875
4.1499999,-0.545877993106842,9.732429504394531,-0.26815059781074524,12.4664306640625,23.223876953125,1.6326904296875
4.1699999000000005,-0.5339069962501526,9.720458984375,-0.31124621629714966,4.33349609375,23.0865478515625,0.152587890625
4.1899999,-0.5003881454467773,9.672574996948242,-0.31124621629714966,10.9710693359375,17.669677734375,1.7547607421875
4.209999900000001,-0.48602294921875,9.660603523254395,-0.30885201692581177,10.6658935546875,14.1754150390625,0.1983642578125
4.2299999,-0.47165772318840027,9.660603523254395,-0.3064578175544739,8.6822509765625,20.2789306640625,-1.7242431640625
4.249999900000001,-0.47405192255973816,9.691728591918945,-0.3711012601852417,11.65771484375,23.3917236328125,0.3662109375
4.2699999,-0.4908113479614258,9.746794700622559,-0.4405331015586853,16.9525146484375,23.193359375,1.922607421875
4.289999900000001,-0.49559974670410156,9.801861763000488,-0.524330198764801,31.1126708984375,27.9693603515625,3.3721923828125
4.3099999,-0.48602294921875,9.840168952941895,-0.5722141861915588,23.3154296875,30.82275390625,3.8299560546875
4.329999900000001,-0.4668693244457245,9.86650562286377,-0.6177040338516235,33.1268310546875,35.6597900390625,6.591796875
4.3499999,-0.42856210470199585,9.861717224121094,-0.6775590777397156,43.1365966796875,31.55517578125,8.9569091796875
4.369999900000001,-0.40462008118629456,9.813833236694336,-0.7733271718025208,36.224365234375,29.60205078125,6.1798095703125
4.3899999,-0.37828385829925537,9.718064308166504,-1.0678139925003052,41.93115234375,42.48046875,-0.9613037109375
4.409999900000001,-0.3687070608139038,9.641449928283691,-1.3024457693099976,33.5235595703125,67.3980712890625,-10.0860595703125
4.4299999,-0.3687070608139038,9.605537414550781,-1.5155296325683594,14.617919921875,65.4296875,-11.53564453125
4.449999900000001,-0.36152446269989014,9.59596061706543,-1.53707754611969,14.2822265625,47.1649169921875,-5.1422119140625
4.4699999,-0.35673606395721436,9.619902610778809,-1.4532804489135742,6.9427490234375,33.3251953125,-3.47900390625
4.489999900000001,-0.3423708379268646,9.648633003234863,-1.3024457693099976,-13.12255859375,25.3143310546875,-3.753662109375
4.5099999,-0.3256114423274994,9.667786598205566,-1.2401964664459229,-15.3656005859375,16.204833984375,0.213623046875
4.529999900000001,-0.31364041566848755,9.706093788146973,-1.213860273361206,-9.1094970703125,8.4381103515625,3.8299560546875
4.5499999,-0.3064578175544739,9.718064308166504,-1.2258312702178955,-11.962890625,6.53076171875,4.2572021484375
4.569999900000001,-0.3064578175544739,9.6989107131958,-1.278503656387329,-8.23974609375,8.3770751953125,4.058837890625
4.5899999000000005,-0.3016694188117981,9.646238327026367,-1.357512354850769,-0.7171630859375,10.9710693359375,3.173828125
4.609999900000001,-0.2968810200691223,9.62947940826416,-1.3910311460494995,0.213623046875,14.9688720703125,1.068115234375
4.6299999000000005,-0.2849099934101105,9.63187313079834,-1.4293384552001953,10.31494140625,16.5557861328125,0.152587890625
4.6499999,-0.27054479718208313,9.66299819946289,-1.414973258972168,7.5531005859375,14.5416259765625,1.129150390625
4.6699999000000005,-0.26336219906806946,9.670180320739746,-1.436521053314209,7.8887939453125,13.85498046875,0.6103515625
4.6899999,-0.26815059781074524,9.66539192199707,-1.4700398445129395,6.591796875,16.021728515625,0
4.709999900000001,-0.2777273952960968,9.643844604492188,-1.5705963373184204,3.41796875,16.143798828125,-1.373291015625
4.7299999,-0.29209262132644653,9.648633003234863,-1.6663644313812256,-5.828857421875,17.8375244140625,-2.9754638671875
4.749999900000001,-0.3016694188117981,9.667786598205566,-1.742978811264038,-12.02392578125,19.683837890625,-1.983642578125
4.7699999,-0.3208230137825012,9.708487510681152,-1.824381709098816,-13.458251953125,20.904541015625,-1.312255859375
4.789999900000001,-0.33039984107017517,9.744400978088379,-1.8363527059555054,-16.8609619140625,26.42822265625,-2.777099609375
4.8099999,-0.33758243918418884,9.773131370544434,-1.800439715385437,-19.4091796875,33.1573486328125,-3.4637451171875
4.829999900000001,-0.3208230137825012,9.78989028930664,-1.6903064250946045,-19.8822021484375,30.8990478515625,-1.9989013671875
4.8499999,-0.2944868206977844,9.799467086791992,-1.5155296325683594,-19.9432373046875,27.4200439453125,-3.326416015625
4.869999900000001,-0.26096799969673157,9.797073364257812,-1.3096283674240112,-17.5628662109375,26.5655517578125,-3.84521484375
4.8899999,-0.22744916379451752,9.799467086791992,-1.1013327836990356,-13.97705078125,26.2603759765625,-2.044677734375
4.909999900000001,-0.2059013396501541,9.816226959228516,-0.9672574996948242,-8.3160400390625,22.674560546875,-1.1138916015625
4.9299999,-0.1843535304069519,9.84256362915039,-0.8140285611152649,-7.568359375,22.552490234375,-1.64794921875
4.949999900000001,-0.16998831927776337,9.840168952941895,-0.7326257228851318,-5.55419921875,20.7672119140625,0.823974609375
4.9699999,-0.1604115068912506,9.837775230407715,-0.7015010714530945,0.152587890625,17.9901123046875,1.0833740234375
4.989999900000001,-0.1604115068912506,9.818621635437012,-0.6751648783683777,7.2174072265625,22.5067138671875,-0.1220703125
5.0099999,-0.16998831927776337,9.768342971801758,-0.7374141216278076,16.9830322265625,22.03369140625,1.3885498046875
5.029999900000001,-0.18914192914962769,9.725247383117676,-0.7996633648872375,19.6685791015625,21.1181640625,-0.6866455078125
5.0499999,-0.2106897532939911,9.660603523254395,-0.950498104095459,22.76611328125,20.355224609375,-2.6397705078125
5.069999900000001,-0.24660277366638184,9.603142738342285,-1.1683704853057861,25.543212890625,27.2064208984375,-5.92041015625
5.0899999000000005,-0.2825157940387726,9.57441234588623,-1.3910311460494995,21.087646484375,41.0614013671875,-8.85009765625
5.109999900000001,-0.3280056416988373,9.57201862335205,-1.5849615335464478,17.578125,43.5791015625,-8.0108642578125
5.1299999000000005,-0.35673606395721436,9.586383819580078,-1.7070658206939697,17.51708984375,38.4674072265625,-6.8511962890625
5.1499999,-0.3734954595565796,9.588777542114258,-1.7310078144073486,18.98193359375,37.4603271484375,-6.744384765625
5.1699999000000005,-0.3734954595565796,9.586383819580078,-1.764526605606079,14.251708984375,35.7818603515625,-8.331298828125
5.1899999,-0.35673606395721436,9.588777542114258,-1.7549498081207275,6.0577392578125,36.0260009765625,-9.033203125
5.209999900000001,-0.33997663855552673,9.605537414550781,-1.721431016921997,-0.274658203125,36.376953125,-7.5836181640625
5.2299999,-0.30885201692581177,9.63187313079834,-1.6615760326385498,0.1373291015625,29.571533203125,-4.119873046875
5.249999900000001,-0.3016694188117981,9.679757118225098,-1.556231141090393,5.6610107421875,27.4810791015625,-4.8065185546875
5.2699999,-0.27054479718208313,9.684545516967773,-1.4724340438842773,13.458251953125,26.0467529296875,-2.899169921875
5.289999900000001,-0.26815059781074524,9.713275909423828,-1.414973258972168,16.357421875,22.4151611328125,-2.0599365234375
5.3099999,-0.2585737705230713,9.703699111938477,-1.400607943534851,14.3890380859375,22.705078125,-1.2359619140625
5.329999900000001,-0.26575639843940735,9.694122314453125,-1.4628572463989258,16.998291015625,21.209716796875,-1.1749267578125
5.3499999,-0.27054479718208313,9.646238327026367,-1.5705963373184204,15.0299072265625,21.42333984375,-1.678466796875
5.369999900000001,-0.28969839215278625,9.624691009521484,-1.6903064250946045,6.6375732421875,25.7568359375,-3.570556640625
5.3899999,-0.304063618183136,9.610325813293457,-1.889025092124939,0.5340576171875,22.1710205078125,-1.5716552734375
5.409999900000001,-0.29209262132644653,9.615114212036133,-1.900996208190918,-5.3253173828125,23.4222412109375,-2.593994140625
5.4299999,-0.2825157940387726,9.634267807006836,-1.8794482946395874,0.9307861328125,25.1922607421875,-4.1351318359375
5.449999900000001,-0.2561795711517334,9.619902610778809,-1.8076223134994507,10.0555419921875,23.6663818359375,-3.326416015625
5.4699999,-0.23702596127986908,9.62947940826416,-1.7525556087493896,12.9241943359375,21.1944580078125,-2.349853515625
5.489999900000001,-0.2059013396501541,9.607931137084961,-1.699883222579956,8.697509765625,20.0958251953125,-2.197265625
5.5099999,-0.1867477297782898,9.605537414550781,-1.7525556087493896,15.594482421875,20.32470703125,-4.57763671875
5.529999900000001,-0.17238251864910126,9.591172218322754,-1.8531121015548706,20.9503173828125,21.636962890625,-5.523681640625
5.5499999,-0.16759411990642548,9.588777542114258,-1.9752163887023926,11.993408203125,22.88818359375,-3.9215087890625
5.569999900000001,-0.17477671802043915,9.610325813293457,-2.070984363555908,8.819580078125,21.17919921875,-3.84521484375
5.5899999000000005,-0.181959331035614,9.579200744628906,-2.1547815799713135,11.322021484375,17.059326171875,-2.62451171875
5.609999900000001,-0.19393034279346466,9.550470352172852,-2.183511972427368,9.46044921875,16.937255859375,-5.6610107421875
5.6299999000000005,-0.2082955539226532,9.521739959716797,-2.248155355453491,2.50244140625,13.7939453125,-7.720947265625
5.6499999,-0.22026655077934265,9.50498104095459,-2.2577321529388428,1.6326904296875,19.0582275390625,-3.41796875
5.6699999000000005,-0.22026655077934265,9.516951560974121,-2.279279947280884,10.4522705078125,19.9127197265625,-4.1046142578125
5.6899999,-0.181959331035614,9.452308654785156,-2.188300371170044,6.8817138671875,12.7410888671875,-9.2926025390625
5.709999900000001,-0.20350714027881622,9.569623947143555,-2.2170307636260986,-1.312255859375,-5.0048828125,-20.6756591796875
5.7299999,-0.15322890877723694,9.459490776062012,-2.229001760482788,12.8631591796875,9.8114013671875,-5.8441162109375
5.749999900000001,-0.1843535304069519,9.519346237182617,-2.2601263523101807,-7.8277587890625,19.3023681640625,-16.2506103515625
5.7699999,-0.2346317619085312,9.557653427124023,-2.3487119674682617,-17.730712890625,-1.0833740234375,-31.524658203125
5.789999900000001,-0.30885201692581177,9.619902610778809,-2.3558945655822754,-18.096923828125,-1.5106201171875,-17.02880859375
5.8099999,-0.40462008118629456,9.715670585632324,-2.3367409706115723,-17.791748046875,14.984130859375,-0.30517578125
5.829999900000001,-0.49559974670410156,9.797073364257812,-2.298433542251587,-16.1590576171875,19.1650390625,-4.39453125
5.8499999,-0.5626373887062073,9.80904483795166,-2.293645143508911,-4.3487548828125,12.664794921875,-12.5579833984375
5.869999900000001,-0.6033388376235962,9.75397777557373,-2.255337953567505,-9.2926025390625,16.29638671875,-6.4849853515625
5.8899999,-0.646434485912323,9.710882186889648,-2.2577321529388428,-13.7939453125,21.209716796875,-1.434326171875
5.909999900000001,-0.6655880808830261,9.658209800720215,-2.231395959854126,-8.392333984375,21.240234375,0.1678466796875
5.9299999,-0.6631938815116882,9.576807022094727,-2.1499931812286377,-3.4637451171875,21.484375,0.7781982421875
5.949999900000001,-0.6344634294509888,9.469067573547363,-2.073378562927246,-3.7994384765625,19.7296142578125,-0.9765625
5.9699999,-0.6033388376235962,9.375694274902344,-2.0254945755004883,-9.4451904296875,19.04296875,-5.7373046875
5.989999900000001,-0.5793967843055725,9.334992408752441,-2.0039467811584473,-5.6610107421875,23.8189697265625,-8.1634521484375
6.0099999,-0.5770025849342346,9.363722801208496,-2.0446481704711914,7.476806640625,26.763916015625,-6.4544677734375
6.029999900000001,-0.5913678407669067,9.41639518737793,-2.118868589401245,1.861572265625,24.0936279296875,-3.936767578125
6.0499999,-0.6153098344802856,9.490615844726562,-2.2026655673980713,-9.735107421875,23.5748291015625,-4.913330078125
6.069999900000001,-0.6320692300796509,9.526528358459473,-2.2433669567108154,-10.7269287109375,28.411865234375,-6.8817138671875
6.0899999000000005,-0.6512228846549988,9.533711433410645,-2.2361843585968018,-7.9345703125,27.587890625,-5.4168701171875
6.109999900000001,-0.6607996821403503,9.521739959716797,-2.1930887699127197,-7.01904296875,22.7508544921875,-4.180908203125
6.1299999000000005,-0.6631938815116882,9.493009567260742,-2.1332337856292725,-6.2713623046875,22.1710205078125,-5.8746337890625
6.149999900000001,-0.6607996821403503,9.466673851013184,-2.1332337856292725,-3.7994384765625,24.200439453125,-7.3394775390625
6.1699999000000005,-0.6584054827690125,9.48343276977539,-2.1284453868865967,-1.1138916015625,28.0303955078125,-6.3629150390625
6.1899999,-0.6512228846549988,9.509769439697266,-2.1140801906585693,0.8087158203125,28.5491943359375,-4.913330078125
6.209999900000001,-0.6392518281936646,9.533711433410645,-2.0901381969451904,1.7547607421875,26.611328125,-4.7454833984375
6.2299999,-0.6272808313369751,9.533711433410645,-2.0470423698425293,-1.9378662109375,26.8402099609375,-6.4849853515625
6.249999900000001,-0.6224924325942993,9.519346237182617,-2.006340980529785,-10.4217529296875,26.30615234375,-7.2174072265625
6.2699999,-0.6153098344802856,9.50737476348877,-1.9823989868164062,-8.9263916015625,26.3214111328125,-5.8746337890625
6.289999900000001,-0.6129156351089478,9.531316757202148,-1.886630892753601,-7.6751708984375,28.9459228515625,-5.2490234375
6.3099999,-0.6009446382522583,9.550470352172852,-1.7980455160140991,-6.988525390625,28.045654296875,-4.0740966796875
6.329999900000001,-0.5817909836769104,9.569623947143555,-1.6615760326385498,-2.5634765625,27.374267578125,-4.0283203125
6.3499999,-0.5602431893348694,9.57201862335205,-1.5490485429763794,-1.9989013671875,24.8260498046875,-4.9591064453125
6.369999900000001,-0.5530605912208557,9.579200744628906,-1.4772224426269531,-4.364013671875,23.01025390625,-6.683349609375
6.3899999,-0.5482721924781799,9.569623947143555,-1.50355863571167,-2.0294189453125,24.3377685546875,-7.7056884765625
6.409999900000001,-0.5841852426528931,9.627084732055664,-1.5634137392044067,-1.8463134765625,27.9541015625,-11.3525390625
6.4299999,-0.6177040338516235,9.672574996948242,-1.6687586307525635,-5.2947998046875,26.702880859375,-4.852294921875
6.449999900000001,-0.6536170840263367,9.737217903137207,-1.7118542194366455,-7.5531005859375,27.679443359375,0.18310546875
6.4699999,-0.6847416758537292,9.797073364257812,-1.7334020137786865,-8.0718994140625,25.32958984375,-1.7547607421875
6.489999900000001,-0.6871358752250671,9.821015357971191,-1.659181833267212,-8.7127685546875,22.6898193359375,0.3814697265625
6.5099999,-0.6823474764823914,9.804255485534668,-1.6328455209732056,-4.8828125,20.20263671875,3.9520263671875
6.529999900000001,-0.6655880808830261,9.765948295593262,-1.6160861253738403,-2.3193359375,19.71435546875,4.486083984375
6.5499999,-0.6512228846549988,9.708487510681152,-1.6759412288665771,-0.54931640625,24.0631103515625,2.4566650390625
6.569999900000001,-0.629675030708313,9.655815124511719,-1.7980455160140991,-1.312255859375,22.9949951171875,2.4566650390625
6.5899999000000005,-0.5913678407669067,9.63187313079834,-1.9033904075622559,-1.495361328125,25.482177734375,2.50244140625
6.609999900000001,-0.5363011956214905,9.636661529541016,-1.98958158493042,2.0294189453125,29.3121337890625,1.2664794921875
6.6299999000000005,-0.45250412821769714,9.679757118225098,-1.9847931861877441,-4.0740966796875,28.594970703125,0.3509521484375
6.649999900000001,-0.3734954595565796,9.758766174316406,-1.922544002532959,-12.4664306640625,26.702880859375,-0.0457763671875
6.6699999000000005,-0.31603461503982544,9.854534149169922,-1.8076223134994507,-16.2506103515625,25.2532958984375,2.01416015625
6.6899999,-0.2968810200691223,9.955090522766113,-1.7405846118927002,-13.580322265625,23.101806640625,4.638671875
6.709999900000001,-0.31364041566848755,10.02452278137207,-1.678335428237915,-16.357421875,26.1383056640625,6.6375732421875
6.7299999,-0.33997663855552673,10.029311180114746,-1.656787633895874,-16.2200927734375,28.6865234375,8.2855224609375
6.749999900000001,-0.363918662071228,9.99100399017334,-1.6352397203445435,-17.913818359375,25.8941650390625,9.7503662109375
6.7699999,-0.35913026332855225,9.86650562286377,-1.5682021379470825,-19.04296875,26.4129638671875,11.1083984375
6.789999900000001,-0.33279404044151306,9.732429504394531,-1.4867992401123047,-16.082763671875,28.1982421875,9.3841552734375
6.8099999,-0.29209262132644653,9.59835433959961,-1.4724340438842773,-14.22119140625,30.9295654296875,8.2550048828125
6.829999900000001,-0.22744916379451752,9.454702377319336,-1.3287819623947144,-19.6380615234375,42.7093505859375,10.528564453125
6.8499999,-0.19632454216480255,9.406818389892578,-1.314416766166687,-16.326904296875,30.3192138671875,2.5787353515625
6.869999900000001,-0.14844051003456116,9.351752281188965,-1.2545616626739502,-12.6953125,23.223876953125,4.6234130859375
6.8899999,-0.10295066982507706,9.342175483703613,-1.2114660739898682,-23.8037109375,26.79443359375,8.453369140625
6.909999900000001,-0.05746084079146385,9.375694274902344,-1.1827356815338135,-30.5938720703125,28.3203125,3.7384033203125
6.9299999,-0.002394201699644327,9.428366661071777,-1.1037269830703735,-25.5889892578125,29.6173095703125,1.7547607421875
6.949999900000001,0.043095629662275314,9.509769439697266,-0.9241618514060974,-26.519775390625,29.4647216796875,3.8909912109375
6.9699999,0.07661445438861847,9.57441234588623,-0.6967126727104187,-15.7318115234375,29.47998046875,5.7373046875
6.989999900000001,0.09816227108240128,9.612719535827637,-0.4836287498474121,1.2664794921875,25.4974365234375,3.6773681640625
7.0099999,0.11013327538967133,9.627084732055664,-0.3734954595565796,11.383056640625,23.9105224609375,-0.0457763671875
7.029999900000001,0.11252748221158981,9.622296333312988,-0.3998316824436188,8.2550048828125,26.336669921875,0.2288818359375
7.0499999,0.11252748221158981,9.66299819946289,-0.5195417404174805,-8.6517333984375,28.3660888671875,0.8697509765625
7.069999900000001,0.11252748221158981,9.727641105651855,-0.6823474764823914,-6.77490234375,30.2886962890625,0.06103515625
7.0899999000000005,0.11971008777618408,9.80904483795166,-0.7589619159698486,-8.7738037109375,30.82275390625,0.885009765625
7.109999900000001,0.1364694982767105,9.880870819091797,-0.7565677165985107,-15.777587890625,30.70068359375,1.7547607421875
7.1299999000000005,0.15322890877723694,9.931148529052734,-0.6703764796257019,-16.265869140625,28.7933349609375,2.5482177734375
7.149999900000001,0.16998831927776337,9.931148529052734,-0.5386953949928284,-13.458251953125,28.167724609375,4.1351318359375
7.1699999000000005,0.18914192914962769,9.897629737854004,-0.4118026793003082,-5.4473876953125,29.449462890625,3.021240234375
7.1899999,0.2059013396501541,9.854534149169922,-0.33039984107017517,-1.129150390625,29.9835205078125,-0.0152587890625
7.209999900000001,0.2298433631658554,9.849745750427246,-0.26815059781074524,-2.6092529296875,32.7301025390625,-1.861572265625
7.2299999,0.24899697303771973,9.880870819091797,-0.22026655077934265,3.4332275390625,36.07177734375,-2.227783203125
7.249999900000001,0.26336219906806946,9.928754806518555,-0.1604115068912506,4.1351318359375,34.6527099609375,-1.739501953125
7.2699999,0.26575639843940735,9.950302124023438,-0.0694318488240242,3.1280517578125,32.2723388671875,-1.739501953125
7.289999900000001,0.26096799969673157,9.938331604003906,-0.031124621629714966,8.1634521484375,27.069091796875,-1.5716552734375
7.3099999,0.2513911724090576,9.888052940368652,-0.021547814831137657,7.781982421875,27.496337890625,0.152587890625
7.329999900000001,0.24660277366638184,9.830592155456543,-0.07661445438861847,1.28173828125,26.7791748046875,-0.0457763671875
7.3499999,0.23942017555236816,9.751583099365234,-0.13168109953403473,-10.2691650390625,25.6805419921875,-1.46484375
7.369999900000001,0.2298433631658554,9.68933391571045,-0.15322890877723694,-7.0343017578125,26.91650390625,-3.265380859375
7.3899999,0.22505496442317963,9.639056205749512,-0.11971008777618408,11.5966796875,25.1312255859375,-4.94384765625
7.409999900000001,0.2106897532939911,9.636661529541016,-0.09816227108240128,33.966064453125,22.1405029296875,-6.40869140625
7.4299999,0.2059013396501541,9.615114212036133,-0.15322890877723694,30.3497314453125,19.9432373046875,-2.25830078125
7.449999900000001,0.19871874153614044,9.600749015808105,-0.3064578175544739,12.4969482421875,19.34814453125,-1.007080078125
7.4699999,0.19871874153614044,9.531316757202148,-0.5123591423034668,3.2501220703125,21.3623046875,-3.0670166015625
7.489999900000001,0.19632454216480255,9.461885452270508,-0.6919242739677429,-5.67626953125,19.7296142578125,-3.936767578125
7.5099999,0.19632454216480255,9.437943458557129,-0.7757213711738586,-12.2528076171875,16.7083740234375,-5.43212890625
7.529999900000001,0.19153612852096558,9.461885452270508,-0.8212111592292786,-5.1116943359375,16.693115234375,-5.1116943359375
7.5499999,0.18914192914962769,9.516951560974121,-0.7781155705451965,-7.354736328125,18.00537109375,-2.3651123046875
7.569999900000001,0.1867477297782898,9.579200744628906,-0.7422025203704834,-6.2713623046875,17.3797607421875,-4.7454833984375
7.5899999000000005,0.17717093229293823,9.643844604492188,-0.6967126727104187,-3.4942626953125,16.876220703125,-9.0789794921875
7.609999900000001,0.15562310814857483,9.703699111938477,-0.6560112833976746,-5.6915283203125,18.280029296875,-9.3536376953125
7.6299999000000005,0.11971008777618408,9.78989028930664,-0.6560112833976746,-11.53564453125,17.364501953125,-7.5531005859375
7.649999900000001,0.07900865375995636,9.888052940368652,-0.6488286852836609,-13.6566162109375,18.798828125,-5.18798828125
7.6699999000000005,0.047884032130241394,9.986215591430664,-0.6248866319656372,-13.9617919921875,19.500732421875,-3.936767578125
7.6899999,0.033518824726343155,10.055646896362305,-0.5722141861915588,-10.80322265625,18.9971923828125,-3.35693359375
7.709999900000001,0.038307227194309235,10.110713958740234,-0.4908113479614258,-10.162353515625,19.4854736328125,-2.288818359375
7.7299999,0.043095629662275314,10.120290756225586,-0.40701428055763245,-9.3841552734375,20.172119140625,-0.2899169921875
7.749999900000001,0.06224924325942993,10.074800491333008,-0.31364041566848755,-7.87353515625,20.1873779296875,1.068115234375
7.7699999,0.07661445438861847,10.005369186401367,-0.26096799969673157,-0.396728515625,19.2718505859375,-1.6021728515625
7.789999900000001,0.08619125932455063,9.950302124023438,-0.2346317619085312,5.7373046875,17.7154541015625,-4.8980712890625
7.8099999,0.090979665517807,9.931148529052734,-0.22505496442317963,10.5743408203125,22.0184326171875,-3.8299560546875
7.829999900000001,0.08379705995321274,9.952696800231934,-0.272938996553421,16.754150390625,17.822265625,-0.42724609375
7.8499999,0.07182604819536209,9.945513725280762,-0.31364041566848755,10.4827880859375,11.871337890625,2.74658203125
7.869999900000001,0.05027823522686958,9.909601211547852,-0.304063618183136,4.21142578125,17.0745849609375,0.579833984375
7.8899999,0.031124621629714966,9.830592155456543,-0.31603461503982544,8.270263671875,12.2833251953125,-0.6256103515625
7.909999900000001,0.0071826050989329815,9.725247383117676,-0.3208230137825012,12.6800537109375,8.2550048828125,0.2899169921875
7.9299999,-0.016759412363171577,9.641449928283691,-0.40940847992897034,8.9263916015625,9.7198486328125,0.3814697265625
7.949999900000001,-0.040701430290937424,9.586383819580078,-0.4572925269603729,-0.8087158203125,16.11328125,-2.74658203125
7.9699999,-0.05985504388809204,9.591172218322754,-0.5339069962501526,-2.4261474609375,14.495849609375,-3.0364990234375
7.989999900000001,-0.06703764945268631,9.59835433959961,-0.49320554733276367,-0.1373291015625,10.19287109375,1.03759765625
8.0099999,-0.06703764945268631,9.646238327026367,-0.42377370595932007,-5.1116943359375,8.7432861328125,0.3662109375
8.0299999,-0.040701430290937424,9.651026725769043,-0.38067805767059326,-3.021240234375,7.232666015625,-1.708984375
8.049999900000001,-0.009576806798577309,9.646238327026367,-0.3878606855869293,-0.0457763671875,8.1787109375,-1.1138916015625
8.069999900000001,0.026336219161748886,9.648633003234863,-0.42856210470199585,-4.8065185546875,8.3160400390625,-0.9307861328125
8.0899999,0.05506663769483566,9.655815124511719,-0.4884171485900879,-4.4708251953125,9.2620849609375,-0.4425048828125
8.1099999,0.07422025501728058,9.639056205749512,-0.5339069962501526,-7.080078125,7.26318359375,0.5645751953125
8.129999900000001,0.07182604819536209,9.636661529541016,-0.5578489899635315,-13.3056640625,6.8817138671875,-1.5716552734375
8.149999900000001,0.06703764945268631,9.600749015808105,-0.5937620401382446,-12.725830078125,4.45556640625,-1.46484375
8.1699999,0.033518824726343155,9.57201862335205,-0.6200982332229614,-7.4920654296875,7.4920654296875,-1.708984375
8.1899999,-0.0071826050989329815,9.57201862335205,-0.6224924325942993,-11.6729736328125,8.209228515625,-2.8076171875
8.2099999,-0.06464344263076782,9.591172218322754,-0.5961562395095825,-11.0015869140625,4.7149658203125,-3.11279296875
8.229999900000001,-0.1173158809542656,9.615114212036133,-0.545877993106842,-3.5858154296875,2.7008056640625,-1.7852783203125
8.2499999,-0.15562310814857483,9.646238327026367,-0.5123591423034668,-0.9765625,2.899169921875,-1.800537109375
8.2699999,-0.17238251864910126,9.667786598205566,-0.49559974670410156,-4.852294921875,4.974365234375,-3.23486328125
8.2899999,-0.16759411990642548,9.684545516967773,-0.47644615173339844,-12.7410888671875,6.988525390625,-3.0975341796875
8.309999900000001,-0.1412578970193863,9.703699111938477,-0.4141969084739685,-20.782470703125,6.9732666015625,-0.91552734375
8.3299999,-0.10534487664699554,9.770736694335938,-0.26096799969673157,-24.3377685546875,9.3536376953125,-2.2735595703125
8.3499999,-0.05027823522686958,9.86889934539795,-0.047884032130241394,-22.8271484375,8.36181640625,-3.448486328125
8.3699999,0.0071826050989329815,10.002974510192871,0.23702596127986908,-19.6075439453125,8.270263671875,-1.89208984375
8.389999900000001,0.06703764945268631,10.134655952453613,0.5530605912208557,-12.14599609375,6.3323974609375,0.030517578125
8.4099999,0.10295066982507706,10.235212326049805,0.7661445140838623,-0.7781982421875,-0.1068115234375,0
8.4299999,0.12689268589019775,10.223240852355957,0.8882488012313843,-4.0283203125,-0.8544921875,2.5482177734375
8.4499999,0.11971008777618408,10.144232749938965,0.8403648138046265,-9.27734375,0.4119873046875,2.5787353515625
8.469999900000001,0.08858546614646912,10.029311180114746,0.6775590777397156,-12.4359130859375,-0.4730224609375,1.64794921875
8.4899999,0.05027823522686958,9.880870819091797,0.45250412821769714,-9.09423828125,-1.3580322265625,2.0904541015625
8.5099999,0.002394201699644327,9.832986831665039,0.2106897532939911,-7.2021484375,0.3814697265625,0.518798828125
8.5299999,-0.038307227194309235,9.818621635437012,0.043095629662275314,-8.5296630859375,5.0811767578125,0.9613037109375
8.549999900000001,-0.06703764945268631,9.84495735168457,-0.0694318488240242,-8.1329345703125,3.84521484375,4.5623779296875
8.569999900000001,-0.07661445438861847,9.852140426635742,-0.08619125932455063,1.15966796875,4.180908203125,4.3182373046875
8.5899999,-0.06464344263076782,9.821015357971191,-0.023942016065120697,2.3345947265625,6.2408447265625,1.8157958984375
8.6099999,-0.035913024097681046,9.763554573059082,0.05027823522686958,-2.3956298828125,7.14111328125,0.701904296875
8.629999900000001,0,9.708487510681152,0.16519992053508759,-9.82666015625,8.5906982421875,2.5482177734375
8.649999900000001,0.038307227194309235,9.648633003234863,0.29209262132644653,-15.899658203125,8.36181640625,3.9825439453125
8.6699999,0.06703764945268631,9.622296333312988,0.4596867263317108,-18.00537109375,8.9874267578125,2.01416015625
8.6899999,0.090979665517807,9.59596061706543,0.6440402865409851,-9.27734375,8.880615234375,0.030517578125
8.709999900000001,0.10295066982507706,9.634267807006836,0.8044517636299133,2.0904541015625,6.9732666015625,-1.0986328125
8.729999900000001,0.11013327538967133,9.6989107131958,0.9145850539207458,7.598876953125,3.5552978515625,0.1068115234375
8.7499999,0.10534487664699554,9.758766174316406,0.9241618514060974,4.9591064453125,3.11279296875,1.2054443359375
8.7699999,0.09816227108240128,9.782708168029785,0.8475474119186401,3.6468505859375,3.448486328125,-0.0457763671875
8.7899999,0.08619125932455063,9.780313491821289,0.730231523513794,0.518798828125,4.5166015625,-1.9073486328125
8.809999900000001,0.07422025501728058,9.75637149810791,0.5937620401382446,-3.9825439453125,3.1890869140625,-1.220703125
8.8299999,0.0454898327589035,9.785101890563965,0.48602294921875,-7.1868896484375,2.3345947265625,-0.9765625
8.8499999,0.040701430290937424,9.765948295593262,0.4213795065879822,-3.692626953125,4.364013671875,0.9613037109375
8.8699999,0.016759412363171577,9.804255485534668,0.3687070608139038,3.3111572265625,4.608154296875,-1.0833740234375
8.889999900000001,0.011971008032560349,9.794678688049316,0.3687070608139038,-1.0986328125,4.1351318359375,-0.885009765625
8.9099999,0.004788403399288654,9.787496566772461,0.3663128614425659,-2.0751953125,4.150390625,0.9613037109375
8.9299999,-0.0071826050989329815,9.801861763000488,0.35913026332855225,-2.5634765625,4.425048828125,0.152587890625
8.9499999,-0.011971008032560349,9.816226959228516,0.3663128614425659,-6.3018798828125,5.31005859375,-0.30517578125
8.969999900000001,-0.004788403399288654,9.84495735168457,0.3687070608139038,-6.622314453125,4.57763671875,0.9002685546875
8.9899999,0.011971008032560349,9.871294021606445,0.3878606855869293,-4.7149658203125,2.2735595703125,1.373291015625
9.0099999,0.033518824726343155,9.892841339111328,0.40222588181495667,-5.4168701171875,0.885009765625,0.91552734375
9.0299999,0.05746084079146385,9.876082420349121,0.4357447028160095,-7.5225830078125,3.3721923828125,1.3427734375
9.049999900000001,0.07422025501728058,9.849745750427246,0.43335050344467163,-6.1492919921875,2.3193359375,1.9989013671875
9.069999900000001,0.09576806426048279,9.799467086791992,0.4644751250743866,-7.7667236328125,3.6773681640625,2.1514892578125
9.0899999,0.11252748221158981,9.75397777557373,0.5219359993934631,-10.5438232421875,3.9825439453125,1.4190673828125
9.1099999,0.12928688526153564,9.713275909423828,0.5937620401382446,-12.298583984375,2.01416015625,1.3275146484375
9.129999900000001,0.1388636976480484,9.68933391571045,0.689530074596405,-9.0179443359375,1.40380859375,1.5411376953125
9.149999900000001,0.1364694982767105,9.648633003234863,0.751779317855835,-6.866455078125,0.6256103515625,2.349853515625
9.1699999,0.12689268589019775,9.581595420837402,0.7829039692878723,-11.810302734375,1.1138916015625,1.0833740234375
9.1899999,0.10773907601833344,9.528923034667969,0.8259995579719543,-14.617919921875,2.8839111328125,-2.410888671875
9.209999900000001,0.08140286058187485,9.524134635925293,0.8427590131759644,-10.4827880859375,1.251220703125,-3.936767578125
9.229999900000001,0.05027823522686958,9.591172218322754,0.9050082564353943,-12.847900390625,1.0833740234375,-0.4730224609375
9.2499999,0.028730420395731926,9.660603523254395,0.9241618514060974,-12.9852294921875,0.0457763671875,2.899169921875
9.2699999,0.002394201699644327,9.749189376831055,0.9457096457481384,-16.6015625,0.9613037109375,0.213623046875
9.2899999,0,9.768342971801758,0.9816226959228516,-13.7176513671875,3.8604736328125,-1.7852783203125
9.309999900000001,0.004788403399288654,9.785101890563965,1.0797849893569946,-12.1002197265625,3.60107421875,-0.152587890625
9.3299999,0.016759412363171577,9.785101890563965,1.2042834758758545,-12.14599609375,-0.6256103515625,1.7242431640625
9.3499999,0.043095629662275314,9.761159896850586,1.3239935636520386,-13.427734375,-3.35693359375,2.38037109375
9.3699999,0.07422025501728058,9.694122314453125,1.4413094520568848,-20.233154296875,-3.0059814453125,-1.2359619140625
9.389999900000001,0.0694318488240242,9.734824180603027,1.3742717504501343,-23.01025390625,-9.3994140625,-7.0648193359375
9.4099999,0.09816227108240128,9.679757118225098,1.4724340438842773,-34.9884033203125,-2.99072265625,4.5318603515625
9.4299999,0.08858546614646912,9.763554573059082,1.41257905960083,-4.669189453125,0.3814697265625,-0.06103515625
9.4499999,0.10295066982507706,9.75397777557373,1.5059528350830078,1.0528564453125,-1.0528564453125,-0.0457763671875
9.469999900000001,0.10773907601833344,9.739612579345703,1.5394717454910278,-13.336181640625,-3.72314453125,0.0152587890625
9.4899999,0.11013327538967133,9.713275909423828,1.5538369417190552,-12.2833251953125,-4.57763671875,0.67138671875
9.5099999,0.11013327538967133,9.696516990661621,1.534683346748352,-8.5296630859375,-1.6937255859375,-0.6256103515625
9.5299999,0.10295066982507706,9.66539192199707,1.5203180313110352,-2.01416015625,1.251220703125,0.823974609375
9.549999900000001,0.10534487664699554,9.62947940826416,1.4700398445129395,1.64794921875,-1.251220703125,0.640869140625
9.569999900000001,0.10295066982507706,9.591172218322754,1.414973258972168,3.0517578125,-1.1138916015625,-1.373291015625
9.5899999,0.09816227108240128,9.588777542114258,1.3311761617660522,5.79833984375,2.6092529296875,-3.1890869140625
9.6099999,0.09576806426048279,9.622296333312988,1.2401964664459229,8.8958740234375,4.913330078125,-2.4871826171875
9.629999900000001,0.10295066982507706,9.660603523254395,1.170764684677124,11.3372802734375,4.180908203125,-0.30517578125
9.649999900000001,0.11013327538967133,9.703699111938477,1.1516109704971313,15.594482421875,6.256103515625,-1.2359619140625
9.6699999,0.12928688526153564,9.694122314453125,1.170764684677124,12.908935546875,5.6304931640625,-2.4566650390625
9.6899999,0.13407529890537262,9.682151794433594,1.2042834758758545,12.7410888671875,4.94384765625,-2.8076171875
9.709999900000001,0.12928688526153564,9.667786598205566,1.237802267074585,16.41845703125,5.096435546875,-2.3193359375
9.729999900000001,0.10773907601833344,9.68694019317627,1.256955862045288,19.1192626953125,6.927490234375,-3.0364990234375
9.7499999,0.08140286058187485,9.715670585632324,1.280897855758667,20.2178955078125,8.1634521484375,-3.4942626953125
9.7699999,0.038307227194309235,9.782708168029785,1.292868971824646,22.1099853515625,6.4849853515625,-3.8299560546875
9.7899999,0.0071826050989329815,9.835380554199219,1.3287819623947144,20.965576171875,4.669189453125,-0.6866455078125
9.809999900000001,-0.023942016065120697,9.895236015319824,1.2952631711959839,31.7535400390625,4.302978515625,-0.518798828125
9.8299999,-0.0454898327589035,9.909601211547852,1.2306196689605713,31.3873291015625,4.791259765625,-1.3275146484375
9.8499999,-0.05267243832349777,9.890447616577148,1.070208191871643,25.2227783203125,5.9356689453125,-0.6103515625
9.8699999,-0.06703764945268631,9.873687744140625,0.9313444495201111,25.9552001953125,6.40869140625,-1.5411376953125
9.889999900000001,-0.06464344263076782,9.835380554199219,0.7589619159698486,29.78515625,5.7830810546875,-0.9765625
9.9099999,-0.05027823522686958,9.813833236694336,0.5913678407669067,26.580810546875,1.5869140625,-1.556396484375
9.9299999,-0.014365210197865963,9.770736694335938,0.49559974670410156,10.7421875,3.875732421875,-2.62451171875
9.9499999,0.06464344263076782,9.581595420837402,0.49799394607543945,2.5634765625,-5.9814453125,-8.0413818359375
9.969999900000001,0,9.68694019317627,0.3232172429561615,18.9666748046875,-25.1922607421875,-30.45654296875
9.9899999,0.043095629662275314,9.485827445983887,0.42377370595932007,30.4107666015625,0.9002685546875,-8.5296630859375
10.0099999,-0.1149216815829277,9.68694019317627,0.24181437492370605,13.5498046875,-12.3138427734375,-15.777587890625
10.0299999,-0.17238251864910126,9.715670585632324,0.304063618183136,25.543212890625,-7.2174072265625,-16.0064697265625
10.049999900000001,-0.26575639843940735,9.792284965515137,0.23942017555236816,26.9775390625,-8.392333984375,-0.91552734375
10.069999900000001,-0.33997663855552673,9.849745750427246,0.272938996553421,16.0369873046875,-17.4560546875,-9.0484619140625
10.0899999,-0.3902548849582672,9.84495735168457,0.14844051003456116,5.767822265625,-14.5416259765625,-5.2490234375
10.1099999,-0.42856210470199585,9.816226959228516,-0.035913024097681046,0.4119873046875,-12.1002197265625,-0.18310546875
10.129999900000001,-0.45489832758903503,9.80904483795166,-0.17477671802043915,-10.07080078125,-5.1116943359375,-3.3111572265625
10.149999900000001,-0.4620809257030487,9.782708168029785,-0.272938996553421,-10.2996826171875,-4.4097900390625,-0.8087158203125
10.1699999,-0.4596867263317108,9.787496566772461,-0.2777273952960968,-3.7078857421875,-8.48388671875,-0.5035400390625
10.1899999,-0.4357447028160095,9.746794700622559,-0.17717093229293823,-2.3651123046875,-5.6304931640625,-0.244140625
10.209999900000001,-0.4165911078453064,9.75637149810791,-0.07182604819536209,-3.5400390625,-4.4708251953125,-3.2196044921875
10.229999900000001,-0.3926490843296051,9.734824180603027,0.014365210197865963,-7.781982421875,-8.9263916015625,-2.0294189453125
10.2499999,-0.37828385829925537,9.734824180603027,0.06224924325942993,-7.9193115234375,-8.2550048828125,1.0833740234375
10.2699999,-0.38546648621559143,9.780313491821289,0.0454898327589035,-2.9144287109375,-3.631591796875,-0.8392333984375
10.2899999,-0.3974374830722809,9.80904483795166,-0.004788403399288654,2.4566650390625,1.739501953125,-0.67138671875
10.309999900000001,-0.4141969084739685,9.84256362915039,-0.09576806426048279,2.3040771484375,1.678466796875,0.946044921875
10.3299999,-0.42377370595932007,9.861717224121094,-0.14365209639072418,0.6866455078125,4.730224609375,1.220703125
10.3499999,-0.42616790533065796,9.840168952941895,-0.16998831927776337,1.861572265625,7.2479248046875,0.244140625
10.3699999,-0.4141969084739685,9.773131370544434,-0.12689268589019775,1.068115234375,8.056640625,0.9765625
10.389999900000001,-0.40940847992897034,9.742006301879883,-0.08619125932455063,-3.5247802734375,3.23486328125,-0.7781982421875
10.4099999,-0.3902548849582672,9.68694019317627,0.004788403399288654,0.1678466796875,4.4403076171875,0.6866455078125
10.4299999,-0.3902548849582672,9.713275909423828,0.004788403399288654,4.6844482421875,3.8604736328125,-1.0223388671875
10.4499999,-0.3878606855869293,9.718064308166504,-0.009576806798577309,5.279541015625,5.9814453125,0.152587890625
10.469999900000001,-0.3926490843296051,9.744400978088379,-0.07661445438861847,0.8544921875,6.7596435546875,0.0762939453125
10.4899999,-0.3974374830722809,9.732429504394531,-0.09576806426048279,-1.068115234375,8.48388671875,0.5950927734375
10.5099999,-0.40222588181495667,9.718064308166504,-0.1149216815829277,2.99072265625,7.1258544921875,-0.9613037109375
10.5299999,-0.3974374830722809,9.694122314453125,-0.0454898327589035,0.18310546875,7.5836181640625,-0.335693359375
10.549999900000001,-0.3902548849582672,9.66299819946289,0.014365210197865963,-0.6866455078125,6.256103515625,0.3204345703125
10.569999900000001,-0.38546648621559143,9.691728591918945,0.07422025501728058,4.1351318359375,6.500244140625,-0.5035400390625
10.5899999,-0.3758896589279175,9.670180320739746,0.08140286058187485,5.3863525390625,6.6070556640625,0.8392333984375
10.6099999,-0.3687070608139038,9.6989107131958,0.0933738648891449,-4.5013427734375,10.3912353515625,1.6326904296875
10.629999900000001,-0.3447650372982025,9.684545516967773,0.12928688526153564,-7.904052734375,11.4593505859375,1.9989013671875
10.649999900000001,-0.3256114423274994,9.655815124511719,0.1412578970193863,-0.42724609375,9.8876953125,2.044677734375
10.6699999,-0.304063618183136,9.670180320739746,0.2968810200691223,-6.927490234375,13.73291015625,-3.021240234375
10.6899999,-0.28969839215278625,9.725247383117676,0.4668693244457245,-13.2598876953125,17.4407958984375,-2.3651123046875
10.709999900000001,-0.2801215946674347,9.837775230407715,0.7445967197418213,-15.228271484375,13.73291015625,3.265380859375
10.729999900000001,-0.26336219906806946,10.043676376342773,1.2090718746185303,-16.448974609375,18.5089111328125,2.13623046875
10.7499999,-0.22266076505184174,10.20887565612793,1.8363527059555054,-14.190673828125,18.7530517578125,3.11279296875
10.7699999,-0.19632454216480255,10.347740173339844,2.715024709701538,-17.059326171875,14.8162841796875,4.0740966796875
10.7899999,-0.16998831927776337,10.362105369567871,3.801992416381836,-24.3377685546875,5.18798828125,5.0201416015625
10.809999900000001,-0.19871874153614044,10.27591323852539,5.054159641265869,-26.55029296875,-6.500244140625,5.1727294921875
10.8299999,-0.31364041566848755,10.144232749938965,6.248866558074951,-29.84619140625,-29.0374755859375,0.030517578125
10.8499999,-0.5195417404174805,9.998186111450195,7.2113356590271,-21.1334228515625,-52.4139404296875,-0.4425048828125
10.8699999,-0.8667010068893433,9.964667320251465,7.960720539093018,-8.636474609375,-59.3719482421875,-3.72314453125
10.889999900000001,-1.3192051649093628,9.974244117736816,8.300697326660156,17.8680419921875,-78.338623046875,-3.9520263671875
10.9099999,-1.8626888990402222,10.031704902648926,8.236053466796875,32.9742431640625,-107.1929931640625,-0.42724609375
10.9299999,-2.4444799423217773,10.067618370056152,8.008605003356934,18.157958984375,-110.3363037109375,3.7841796875
10.9499999,-3.0526070594787598,10.086771965026855,7.467514991760254,10.8795166015625,-123.687744140625,3.509521484375
10.969999900000001,-3.60566782951355,9.995792388916016,6.761225700378418,16.5863037109375,-148.62060546875,8.3770751953125
10.9899999,-4.146757125854492,9.895236015319824,6.069301128387451,4.608154296875,-154.7088623046875,8.056640625
11.0099999,-4.606443881988525,9.68933391571045,5.214571475982666,-8.148193359375,-165.374755859375,5.7373046875
11.0299999,-5.0014872550964355,9.526528358459473,4.37420654296875,-17.3492431640625,-172.5921630859375,1.5411376953125
11.049999900000001,-5.322310447692871,9.461885452270508,3.60566782951355,-24.810791015625,-175.2166748046875,-1.2664794921875
11.069999900000001,-5.600037574768066,9.516951560974121,2.9879636764526367,-26.4129638671875,-175.8270263671875,-0.244140625
11.0899999,-5.801150798797607,9.497797966003418,2.33913516998291,-6.256103515625,-192.535400390625,10.25390625
11.1099999,-5.96874475479126,9.509769439697266,1.6663644313812256,5.615234375,-198.4710693359375,4.0435791015625
11.129999900000001,-6.045359134674072,9.404424667358398,0.7422025203704834,15.0909423828125,-198.577880859375,-3.2501220703125
11.149999900000001,-5.980715751647949,9.287108421325684,-0.5171475410461426,27.34375,-196.77734375,-1.1749267578125
11.1699999,-5.817910194396973,9.344569206237793,-1.8602946996688843,25.054931640625,-180.938720703125,-4.2724609375
11.1899999,-5.43723201751709,9.35654067993164,-3.5218706130981445,28.0303955078125,-177.06298828125,0.79345703125
11.209999900000001,-4.932055473327637,9.44991397857666,-4.8722004890441895,9.33837890625,-147.613525390625,2.4566650390625
11.229999900000001,-4.309563159942627,9.466673851013184,-5.882553577423096,3.90625,-123.3673095703125,-0.0152587890625
11.2499999,-3.6559460163116455,9.476250648498535,-6.291962146759033,29.1900634765625,-124.8626708984375,-0.1068115234375
11.2699999,-3.043030261993408,9.244012832641602,-6.3302693367004395,42.144775390625,-128.4942626953125,7.7972412109375
11.2899999,-2.5043349266052246,8.911218643188477,-6.303933143615723,35.430908203125,-119.781494140625,5.8746337890625
11.309999900000001,-2.008735179901123,8.434772491455078,-6.588842868804932,2.1514892578125,-95.4742431640625,-6.622314453125
11.3299999,-1.5705963373184204,8.08043098449707,-6.979097843170166,-29.9530029296875,-64.544677734375,-12.1002197265625
11.3499999,-1.137245774269104,8.058882713317871,-7.436390399932861,-22.7508544921875,-50.5828857421875,-11.7340087890625
11.3699999,-0.751779317855835,8.449137687683105,-7.357381820678711,1.4190673828125,-32.928466796875,-6.40869140625
11.389999900000001,-0.395043283700943,8.999804496765137,-7.046135425567627,39.2303466796875,-35.7818603515625,0.48828125
11.4099999,-0.10773907601833344,9.502586364746094,-6.45476770401001,58.59375,-43.701171875,4.0283203125
11.4299999,0.12689268589019775,9.679757118225098,-5.8203043937683105,28.656005859375,-30.6396484375,-0.1220703125
11.4499999,0.3232172429561615,9.66299819946289,-5.185841083526611,3.387451171875,-15.2130126953125,-11.444091796875
11.469999900000001,0.45010992884635925,9.701305389404297,-4.197035789489746,-15.9454345703125,-1.312255859375,-23.0560302734375
11.4899999,0.5267243981361389,9.821015357971191,-3.136404275894165,-12.8326416015625,-12.237548828125,-11.1846923828125
11.5099999,0.5674257874488831,10.103530883789062,-1.9728221893310547,8.2855224609375,-27.52685546875,5.035400390625
11.5299999,0.5578489899635315,10.345345497131348,-1.1228805780410767,11.0626220703125,-20.5230712890625,0.8697509765625
11.549999900000001,0.47884035110473633,10.457873344421387,-0.5817909836769104,5.7373046875,-12.054443359375,-5.950927734375
11.569999900000001,0.3926490843296051,10.42195987701416,-0.45489832758903503,10.6048583984375,-23.101806640625,-1.953125
11.5899999,0.26336219906806946,10.326191902160645,-0.4884171485900879,15.5029296875,-27.7252197265625,-0.7781982421875
11.6099999,0.15322890877723694,10.201693534851074,-0.706289529800415,3.7994384765625,-19.2718505859375,-4.974365234375
11.629999900000001,0.08140286058187485,10.141838073730469,-0.8906430602073669,-13.5345458984375,-3.6468505859375,-6.16455078125
11.649999900000001,0.047884032130241394,10.122684478759766,-1.0414776802062988,-2.777099609375,-6.1798095703125,1.7547607421875
11.6699999,0.028730420395731926,10.187328338623047,-1.0319008827209473,14.9078369140625,-11.65771484375,7.4462890625
11.6899999,0.028730420395731926,10.168174743652344,-1.0127472877502441,18.9666748046875,-10.3759765625,7.5225830078125
11.709999900000001,0.021547814831137657,10.02691650390625,-1.0127472877502441,12.75634765625,-3.9520263671875,5.4168701171875
11.729999900000001,0.035913024097681046,9.751583099365234,-1.070208191871643,10.4827880859375,-4.45556640625,2.288818359375
11.7499999,0.06703764945268631,9.47146224975586,-1.091755986213684,5.828857421875,-2.9449462890625,-2.5634765625
11.7699999,0.10534487664699554,9.308655738830566,-1.039083480834961,-4.8675537109375,-1.40380859375,-7.62939453125
11.7899999,0.1388636976480484,9.35654067993164,-0.9792284965515137,-10.1318359375,-0.67138671875,-5.0201416015625
11.809999900000001,0.15322890877723694,9.543288230895996,-0.9457096457481384,-0.9765625,-3.11279296875,1.6937255859375
11.8299999,0.1412578970193863,9.77791976928711,-0.933738648891449,8.60595703125,0.823974609375,3.7078857421875
11.8499999,0.12449848651885986,9.9000244140625,-0.993593692779541,6.65283203125,3.84521484375,2.349853515625
11.8699999,0.10534487664699554,9.916783332824707,-0.9864110946655273,-2.86865234375,6.9580078125,0.06103515625
11.889999900000001,0.09816227108240128,9.86889934539795,-0.9361328482627869,-7.659912109375,4.9591064453125,-1.5106201171875
11.9099999,0.08858546614646912,9.832986831665039,-0.7422025203704834,-1.4801025390625,0.4119873046875,-1.495361328125
11.9299999,0.07661445438861847,9.797073364257812,-0.6560112833976746,6.65283203125,-3.9825439453125,0.9307861328125
11.9499999,0.06224924325942993,9.782708168029785,-0.6057330369949341,3.692626953125,-1.9683837890625,0.1678466796875
11.969999900000001,0.043095629662275314,9.799467086791992,-0.6344634294509888,-3.173828125,4.7760009765625,-1.708984375
11.9899999,0.033518824726343155,9.80904483795166,-0.706289529800415,-4.0283203125,4.2877197265625,1.3275146484375
12.0099999,0.031124621629714966,9.813833236694336,-0.7086837291717529,-4.913330078125,0,4.4708251953125
12.0299999,0.040701430290937424,9.813833236694336,-0.6631938815116882,-4.669189453125,0.0152587890625,1.6326904296875
12.049999900000001,0.05746084079146385,9.78989028930664,-0.6057330369949341,2.838134765625,-1.1138916015625,-0.274658203125
12.069999900000001,0.0694318488240242,9.765948295593262,-0.5817909836769104,6.591796875,-2.5177001953125,0.6561279296875
12.0899999,0.0694318488240242,9.75637149810791,-0.6200982332229614,6.6680908203125,-4.4403076171875,1.46484375
12.1099999,0.06224924325942993,9.751583099365234,-0.7086837291717529,3.9215087890625,-2.349853515625,0.701904296875
12.129999900000001,0.0454898327589035,9.734824180603027,-0.8619126081466675,3.2501220703125,0.48828125,0.42724609375
12.149999900000001,0.040701430290937424,9.708487510681152,-0.9552865028381348,3.84521484375,1.7242431640625,1.03759765625
12.1699999,0.040701430290937424,9.694122314453125,-0.9840168952941895,1.495361328125,0.54931640625,0.5950927734375
12.1899999,0.05267243832349777,9.622296333312988,-0.9600749015808105,3.72314453125,-4.0435791015625,1.7852783203125
12.209999900000001,0.0694318488240242,9.59835433959961,-0.9457096457481384,1.7852783203125,-4.730224609375,-0.030517578125
12.229999900000001,0.07900865375995636,9.579200744628906,-0.9433154463768005,1.0833740234375,-0.518798828125,-2.1514892578125
12.2499999,0.08140286058187485,9.581595420837402,-0.9840168952941895,4.9591064453125,0.396728515625,-0.640869140625
12.2699999,0.07422025501728058,9.62947940826416,-1.0055646896362305,2.38037109375,-0.48828125,-0.79345703125
12.289999900000002,0.0694318488240242,9.651026725769043,-0.993593692779541,0.244140625,0.1220703125,-1.617431640625
12.309999900000001,0.05267243832349777,9.701305389404297,-0.9911994934082031,1.6632080078125,-0.6561279296875,-2.8228759765625
12.3299999,0.043095629662275314,9.715670585632324,-0.993593692779541,4.39453125,-0.1678466796875,-1.8157958984375
12.3499999,0.023942016065120697,9.763554573059082,-1.039083480834961,3.6773681640625,-0.7476806640625,-1.9073486328125
12.3699999,0.014365210197865963,9.797073364257812,-1.05105459690094,-1.922607421875,1.9073486328125,-1.678466796875
12.389999900000001,0.011971008032560349,9.816226959228516,-1.0678139925003052,-1.5716552734375,0.8392333984375,-0.3662109375
12.4099999,0.021547814831137657,9.825803756713867,-1.0295066833496094,-0.244140625,0.06103515625,-0.18310546875
12.4299999,0.031124621629714966,9.852140426635742,-0.9576807022094727,-1.4495849609375,0.1220703125,-2.2430419921875
12.4499999,0.035913024097681046,9.849745750427246,-0.9361328482627869,2.74658203125,-1.52587890625,-0.8544921875
12.469999900000001,0.035913024097681046,9.86650562286377,-0.8523358106613159,4.21142578125,1.46484375,0.030517578125
12.4899999,0.026336219161748886,9.859322547912598,-0.8571242094039917,5.5999755859375,-0.6256103515625,0.30517578125
12.5099999,0.021547814831137657,9.821015357971191,-0.8667010068893433,6.0272216796875,-4.1961669921875,0.5340576171875
12.5299999,0.014365210197865963,9.782708168029785,-0.9241618514060974,2.4566650390625,-2.5177001953125,-0.2593994140625
12.549999900000001,0.0071826050989329815,9.751583099365234,-1.048660397529602,1.007080078125,-0.79345703125,-0.213623046875
12.569999900000001,0.004788403399288654,9.734824180603027,-1.1109095811843872,-0.1678466796875,0.5035400390625,0.8087158203125
12.5899999,0.002394201699644327,9.75637149810791,-1.1659762859344482,-0.1678466796875,-1.8463134765625,0.885009765625
12.6099999,0.002394201699644327,9.75637149810791,-1.1444283723831177,0.2899169921875,-2.9296875,1.739501953125
12.629999900000001,0.0071826050989329815,9.75397777557373,-1.1324573755264282,5.645751953125,-4.0283203125,2.4871826171875
12.649999900000001,0.019153613597154617,9.734824180603027,-1.0558429956436157,2.349853515625,0.5035400390625,0.732421875
12.6699999,0.026336219161748886,9.720458984375,-1.05105459690094,0.7781982421875,-7.2174072265625,-1.1749267578125
12.6899999,0.038307227194309235,9.710882186889648,-1.0462661981582642,4.180908203125,-10.2081298828125,-0.396728515625
12.709999900000001,0.0454898327589035,9.674968719482422,-1.113303780555725,1.1138916015625,-4.6844482421875,-0.3662109375
12.729999900000001,0.043095629662275314,9.655815124511719,-1.2018892765045166,2.1820068359375,-1.77001953125,-3.692626953125
12.7499999,0.038307227194309235,9.66539192199707,-1.2713210582733154,0.732421875,-1.0986328125,-7.0037841796875
12.7699999,0.028730420395731926,9.696516990661621,-1.2713210582733154,1.46484375,-3.143310546875,-4.791259765625
12.789999900000002,0.019153613597154617,9.742006301879883,-1.2713210582733154,6.195068359375,-3.753662109375,-4.0130615234375
12.809999900000001,-0.004788403399288654,9.799467086791992,-1.2545616626739502,3.753662109375,0.3662109375,-9.674072265625
12.8299999,-0.028730420395731926,9.792284965515137,-1.2737152576446533,3.7841796875,2.01416015625,-10.8642578125
12.8499999,-0.07422025501728058,9.823410034179688,-1.2737152576446533,-0.9765625,1.8310546875,-9.7198486328125
12.8699999,-0.1173158809542656,9.813833236694336,-1.2617442607879639,-1.77001953125,2.410888671875,-5.2947998046875
12.889999900000001,-0.1628057211637497,9.80904483795166,-1.2425906658172607,0.9613037109375,2.349853515625,-5.035400390625
12.9099999,-0.19393034279346466,9.763554573059082,-1.1803414821624756,1.5869140625,3.1585693359375,-6.2408447265625
12.9299999,-0.21787235140800476,9.739612579345703,-1.161187767982483,0.8697509765625,0.8392333984375,-6.378173828125
12.9499999,-0.2346317619085312,9.75397777557373,-1.094150185585022,1.1444091796875,0.640869140625,-3.662109375
12.969999900000001,-0.24660277366638184,9.801861763000488,-1.05105459690094,2.9296875,0.8697509765625,-0.7171630859375
12.9899999,-0.2513911724090576,9.813833236694336,-1.05105459690094,5.0811767578125,-1.953125,2.0599365234375
13.0099999,-0.2537853717803955,9.801861763000488,-1.05105459690094,4.69970703125,-0.274658203125,-0.640869140625
13.0299999,-0.2537853717803955,9.734824180603027,-1.0821791887283325,2.5634765625,0.701904296875,-1.4190673828125
13.049999900000001,-0.2537853717803955,9.658209800720215,-1.1444283723831177,1.7547607421875,-1.6021728515625,0.3814697265625
13.069999900000001,-0.2561795711517334,9.648633003234863,-1.1300631761550903,-0.823974609375,-0.06103515625,-0.732421875
13.0899999,-0.2537853717803955,9.62947940826416,-1.1755530834197998,2.197265625,-3.814697265625,1.190185546875
13.1099999,-0.2513911724090576,9.636661529541016,-1.194706678390503,1.4190673828125,-4.21142578125,1.068115234375
13.129999900000001,-0.24420857429504395,9.655815124511719,-1.2737152576446533,-1.0223388671875,-3.143310546875,-0.885009765625
13.149999900000001,-0.24660277366638184,9.68933391571045,-1.3407529592514038,-2.2125244140625,0.0457763671875,-1.6632080078125
13.1699999,-0.2513911724090576,9.72285270690918,-1.3862427473068237,1.3275146484375,-1.0833740234375,0.9918212890625
13.1899999,-0.26336219906806946,9.742006301879883,-1.4221558570861816,3.6773681640625,-3.326416015625,2.38037109375
13.209999900000001,-0.27054479718208313,9.710882186889648,-1.436521053314209,2.471923828125,-2.105712890625,1.7242431640625
13.229999900000001,-0.26815059781074524,9.634267807006836,-1.4844050407409668,0.18310546875,0.8697509765625,-0.213623046875
13.2499999,-0.26096799969673157,9.583989143371582,-1.501164436340332,-2.0294189453125,2.593994140625,-2.0294189453125
13.2699999,-0.2513911724090576,9.57441234588623,-1.5179238319396973,-3.1280517578125,1.0528564453125,-2.105712890625
13.289999900000002,-0.23702596127986908,9.615114212036133,-1.4700398445129395,-0.4425048828125,1.9989013671875,-1.1749267578125
13.309999900000001,-0.2322375625371933,9.701305389404297,-1.4317326545715332,-1.4190673828125,2.25830078125,-1.4801025390625
13.3299999,-0.2298433631658554,9.773131370544434,-1.3527239561080933,-2.4871826171875,3.3111572265625,-0.6256103515625
13.3499999,-0.23702596127986908,9.81143856048584,-1.2713210582733154,-2.74658203125,1.6937255859375,0.6256103515625
13.3699999,-0.23942017555236816,9.813833236694336,-1.2042834758758545,-1.1444091796875,-0.732421875,0.640869140625
13.389999900000001,-0.24420857429504395,9.832986831665039,-1.1037269830703735,-0.762939453125,0.79345703125,-1.5869140625
13.4099999,-0.24420857429504395,9.837775230407715,-1.0223240852355957,1.40380859375,-1.068115234375,-0.2593994140625
13.4299999,-0.24181437492370605,9.837775230407715,-0.9720458984375,3.4332275390625,-5.06591796875,3.387451171875
13.4499999,-0.24660277366638184,9.847352027893066,-0.9169792532920837,0.3204345703125,-4.180908203125,2.716064453125
13.469999900000001,-0.2513911724090576,9.816226959228516,-0.9313444495201111,0.9307861328125,-5.3558349609375,2.410888671875
13.4899999,-0.26336219906806946,9.75637149810791,-0.9648633003234863,4.21142578125,-5.279541015625,4.1046142578125
13.5099999,-0.26815059781074524,9.737217903137207,-0.9433154463768005,8.7890625,-9.0179443359375,2.62451171875
13.5299999,-0.26096799969673157,9.6989107131958,-1.0797849893569946,15.2435302734375,-15.869140625,2.5177001953125
13.549999900000001,-0.24899697303771973,9.643844604492188,-1.158793568611145,9.0484619140625,-4.9896240234375,4.1961669921875
13.569999900000001,-0.22266076505184174,9.576807022094727,-1.3934253454208374,1.373291015625,1.9989013671875,1.007080078125
13.5899999,-0.21547815203666687,9.5408935546875,-1.556231141090393,-3.8604736328125,4.058837890625,-2.44140625
13.6099999,-0.20350714027881622,9.516951560974121,-1.6112977266311646,-1.6326904296875,4.33349609375,-1.1138916015625
13.629999900000001,-0.2082955539226532,9.53849983215332,-1.6711528301239014,4.241943359375,0.2899169921875,0.79345703125
13.649999900000001,-0.21308395266532898,9.5624418258667,-1.5969325304031372,-0.8544921875,4.547119140625,0.244140625
13.6699999,-0.2298433631658554,9.569623947143555,-1.6160861253738403,-5.279541015625,3.23486328125,-1.922607421875
13.6899999,-0.24899697303771973,9.543288230895996,-1.6065093278884888,-5.157470703125,3.1585693359375,-0.8392333984375
13.709999900000001,-0.26815059781074524,9.5408935546875,-1.580173134803772,-6.8359375,3.753662109375,-1.617431640625
13.729999900000001,-0.28969839215278625,9.557653427124023,-1.599326729774475,-5.828857421875,1.556396484375,-2.410888671875
13.7499999,-0.2992752194404602,9.579200744628906,-1.5873557329177856,-4.6539306640625,4.1961669921875,-2.532958984375
13.7699999,-0.31603461503982544,9.610325813293457,-1.6041151285171509,-3.997802734375,4.94384765625,-3.5552978515625
13.789999900000002,-0.33758243918418884,9.636661529541016,-1.5921441316604614,-4.119873046875,5.6304931640625,-5.2642822265625
13.809999900000001,-0.363918662071228,9.679757118225098,-1.5538369417190552,-3.082275390625,6.103515625,-5.9661865234375
13.8299999,-0.3902548849582672,9.773131370544434,-1.4987702369689941,-1.2054443359375,5.523681640625,-3.7841796875
13.8499999,-0.40222588181495667,9.880870819091797,-1.4077905416488647,-1.0223388671875,5.7830810546875,0.2593994140625
13.8699999,-0.40462008118629456,9.952696800231934,-1.3838485479354858,1.3427734375,2.8533935546875,2.5634765625
13.889999900000001,-0.38067805767059326,9.952696800231934,-1.357512354850769,-1.2054443359375,4.8370361328125,0.335693359375
13.9099999,-0.3447650372982025,9.911994934082031,-1.3934253454208374,-3.2196044921875,6.4849853515625,-2.3956298828125
13.9299999,-0.2968810200691223,9.840168952941895,-1.4245500564575195,-3.265380859375,6.1187744140625,-0.7171630859375
13.9499999,-0.2537853717803955,9.787496566772461,-1.4197616577148438,-1.9683837890625,5.5389404296875,0.2288818359375
13.969999900000001,-0.2346317619085312,9.72285270690918,-1.4269442558288574,3.11279296875,2.6092529296875,0.091552734375
13.9899999,-0.2298433631658554,9.624691009521484,-1.4508862495422363,8.1634521484375,0.8697509765625,-0.7781982421875
14.0099999,-0.24660277366638184,9.521739959716797,-1.5705963373184204,7.659912109375,1.7242431640625,-2.9754638671875
14.0299999,-0.26815059781074524,9.425971984863281,-1.7310078144073486,5.4168701171875,7.4005126953125,-2.74658203125
14.049999900000001,-0.2992752194404602,9.39245319366455,-1.9321208000183105,1.1444091796875,11.16943359375,-4.058837890625
14.069999900000001,-0.33279404044151306,9.354146003723145,-2.056619167327881,2.3345947265625,14.2974853515625,-3.204345703125
14.0899999,-0.3687070608139038,9.38048267364502,-2.1284453868865967,1.4801025390625,14.9688720703125,-5.8135986328125
14.1099999,-0.40940847992897034,9.430760383605957,-2.056619167327881,-6.2103271484375,16.29638671875,-8.9263916015625
14.129999900000001,-0.4572925269603729,9.500192642211914,-1.9560627937316895,-4.5928955078125,13.8092041015625,-7.049560546875
14.149999900000001,-0.5099649429321289,9.524134635925293,-1.8315643072128296,4.3182373046875,14.9078369140625,-4.669189453125
14.1699999,-0.5578489899635315,9.50737476348877,-1.678335428237915,1.434326171875,20.721435546875,-5.31005859375
14.1899999,-0.5985504388809204,9.452308654785156,-1.580173134803772,-8.026123046875,20.111083984375,-9.735107421875
14.209999900000001,-0.6129156351089478,9.47146224975586,-1.45806884765625,-12.2528076171875,18.3258056640625,-11.2152099609375
14.229999900000001,-0.6177040338516235,9.641449928283691,-1.357512354850769,-11.962890625,17.5628662109375,-10.3912353515625
14.2499999,-0.6224924325942993,9.909601211547852,-1.2880805730819702,-12.115478515625,16.9219970703125,-3.96728515625
14.2699999,-0.6368576288223267,10.1753568649292,-1.2473790645599365,-16.2200927734375,16.1285400390625,0.457763671875
14.289999900000002,-0.6512228846549988,10.273519515991211,-1.235408067703247,-18.341064453125,12.8173828125,2.74658203125
14.309999900000001,-0.6631938815116882,10.249577522277832,-1.2425906658172607,-14.83154296875,13.092041015625,0.0152587890625
14.3299999,-0.6607996821403503,10.14902114868164,-1.2018892765045166,-16.326904296875,15.5181884765625,-0.91552734375
14.3499999,-0.6344634294509888,10.050858497619629,-1.1300631761550903,-15.13671875,15.899658203125,1.922607421875
14.3699999,-0.5961562395095825,9.971850395202637,-1.0342950820922852,-7.843017578125,11.8255615234375,7.4615478515625
14.389999900000001,-0.5602431893348694,9.909601211547852,-0.933738648891449,-3.5858154296875,14.4195556640625,6.16455078125
14.4099999,-0.5171475410461426,9.804255485534668,-0.8595184087753296,-1.5716552734375,16.11328125,4.4403076171875
14.4299999,-0.47644615173339844,9.713275909423828,-0.8020575642585754,-7.5531005859375,13.214111328125,4.4097900390625
14.4499999,-0.42377370595932007,9.627084732055664,-0.7445967197418213,-9.8724365234375,10.6048583984375,4.364013671875
14.469999900000001,-0.3734954595565796,9.567230224609375,-0.6584054827690125,-6.011962890625,11.2762451171875,3.1280517578125
14.4899999,-0.3423708379268646,9.548076629638672,-0.6105214357376099,-8.209228515625,7.8277587890625,0.7476806640625
14.5099999,-0.31603461503982544,9.53849983215332,-0.6248866319656372,-13.0157470703125,5.2642822265625,1.739501953125
14.5299999,-0.31124621629714966,9.576807022094727,-0.6368576288223267,-33.8592529296875,6.6986083984375,2.7618408203125
14.549999900000001,-0.304063618183136,9.643844604492188,-0.6584054827690125,-37.689208984375,8.1024169921875,1.739501953125
14.569999900000001,-0.29209262132644653,9.742006301879883,-0.608127236366272,-35.33935546875,5.67626953125,1.4801025390625
14.5899999,-0.272938996553421,9.801861763000488,-0.4596867263317108,-33.4625244140625,3.143310546875,2.197265625
14.6099999,-0.26575639843940735,9.849745750427246,-0.2992752194404602,-25.2532958984375,2.9144287109375,-0.30517578125
14.629999900000001,-0.28969839215278625,9.864110946655273,-0.16519992053508759,-6.195068359375,12.8936767578125,-0.2288818359375
14.649999900000001,-0.29209262132644653,9.835380554199219,-0.06703764945268631,5.9051513671875,21.3165283203125,5.7373046875
14.6699999,-0.31364041566848755,9.84256362915039,0.004788403399288654,7.14111328125,17.6849365234375,8.7738037109375
14.6899999,-0.2825157940387726,9.801861763000488,0.026336219161748886,15.7928466796875,19.1802978515625,6.6680908203125
14.709999900000001,-0.24181437492370605,9.768342971801758,0.06224924325942993,22.5372314453125,19.683837890625,3.753662109375
14.729999900000001,-0.1843535304069519,9.727641105651855,0.05267243832349777,28.62548828125,25.08544921875,0.4730224609375
14.7499999,-0.1388636976480484,9.703699111938477,0.002394201699644327,28.289794921875,22.247314453125,0.18310546875
14.7699999,-0.12449848651885986,9.708487510681152,-0.10773907601833344,29.4647216796875,21.6827392578125,-0.762939453125
14.789999900000002,-0.14604631066322327,9.713275909423828,-0.2753331959247589,31.494140625,21.270751953125,-2.838134765625
14.809999900000001,-0.18914192914962769,9.706093788146973,-0.5363011956214905,34.423828125,23.101806640625,-4.302978515625
14.8299999,-0.2537853717803955,9.68933391571045,-0.7948749661445618,22.857666015625,25.6500244140625,-4.5166015625
14.8499999,-0.304063618183136,9.646238327026367,-1.070208191871643,27.28271484375,29.84619140625,-2.5482177734375
14.8699999,-0.3471592366695404,9.646238327026367,-1.292868971824646,31.158447265625,30.914306640625,-4.5623779296875
14.889999900000001,-0.37828385829925537,9.63187313079834,-1.4484920501708984,33.0657958984375,32.3944091796875,-5.9661865234375
14.9099999,-0.40462008118629456,9.615114212036133,-1.6208745241165161,37.750244140625,29.8919677734375,-7.232666015625
14.9299999,-0.42616790533065796,9.605537414550781,-1.7549498081207275,37.933349609375,31.829833984375,-8.8348388671875
14.9499999,-0.4189853072166443,9.524134635925293,-1.8698714971542358,35.1715087890625,35.3240966796875,-7.171630859375
14.969999900000001,-0.40940847992897034,9.48343276977539,-1.968033790588379,31.5704345703125,34.759521484375,-7.26318359375
14.9899999,-0.37828385829925537,9.440337181091309,-2.054224967956543,24.3988037109375,32.5775146484375,-7.26318359375
15.0099999,-0.35673606395721436,9.481039047241211,-2.1116859912872314,16.693115234375,34.5916748046875,-6.7138671875
15.0299999,-0.31603461503982544,9.50737476348877,-2.1954829692840576,18.85986328125,36.8804931640625,-3.1890869140625
15.049999900000001,-0.29209262132644653,9.593565940856934,-2.231395959854126,18.5394287109375,37.353515625,-6.1492919921875
15.069999900000001,-0.2585737705230713,9.62947940826416,-2.2385785579681396,10.955810546875,36.1175537109375,-7.0343017578125
15.0899999,-0.24660277366638184,9.682151794433594,-2.183511972427368,11.8255615234375,36.31591796875,-5.7220458984375
15.1099999,-0.24181437492370605,9.672574996948242,-2.142810583114624,17.0745849609375,35.8123779296875,-2.3193359375
15.129999900000001,-0.24420857429504395,9.646238327026367,-2.075772762298584,15.7470703125,36.6058349609375,-3.6163330078125
15.149999900000001,-0.23702596127986908,9.536105155944824,-1.98958158493042,7.6751708984375,36.9415283203125,-4.6234130859375
15.1699999,-0.2298433631658554,9.442731857299805,-1.9177556037902832,9.5367431640625,32.2723388671875,-5.92041015625
15.1899999,-0.21787235140800476,9.344569206237793,-1.8148049116134644,8.575439453125,28.80859375,-5.3863525390625
15.209999900000001,-0.21787235140800476,9.282320022583008,-1.7908629179000854,8.5296630859375,25.909423828125,-5.43212890625
15.229999900000001,-0.21787235140800476,9.251194953918457,-1.8171991109848022,9.8419189453125,24.2462158203125,-6.866455078125
15.2499999,-0.2298433631658554,9.263166427612305,-1.941697597503662,10.4522705078125,23.8494873046875,-8.8653564453125
15.2699999,-0.24660277366638184,9.330204010009766,-2.0853497982025146,8.72802734375,23.1170654296875,-8.8348388671875
15.289999900000002,-0.2777273952960968,9.435548782348633,-2.248155355453491,6.011962890625,23.590087890625,-6.4239501953125
15.309999900000001,-0.304063618183136,9.531316757202148,-2.3942017555236816,8.0413818359375,23.4375,-4.8980712890625
15.3299999,-0.3280056416988373,9.576807022094727,-2.492363929748535,7.75146484375,25.93994140625,-5.18798828125
15.3499999,-0.3447650372982025,9.567230224609375,-2.557007312774658,9.82666015625,26.91650390625,-6.9427490234375
15.3699999,-0.3495534360408783,9.531316757202148,-2.5905263423919678,12.7716064453125,25.4058837890625,-7.32421875
15.389999900000001,-0.36152446269989014,9.512163162231445,-2.6240451335906982,14.434814453125,25.4058837890625,-7.2784423828125
15.4099999,-0.38067805767059326,9.50737476348877,-2.762908697128296,15.899658203125,23.4832763671875,-6.2713623046875
15.4299999,-0.38067805767059326,9.485827445983887,-2.920926094055176,9.21630859375,30.8990478515625,-4.0740966796875
15.4499999,-0.3902548849582672,9.545681953430176,-3.0526070594787598,1.03759765625,36.9415283203125,-8.3465576171875
15.469999900000001,-0.35673606395721436,9.581595420837402,-3.095702886581421,0.7171630859375,35.2630615234375,-5.37109375
15.4899999,-0.31364041566848755,9.643844604492188,-2.9735984802246094,3.2196044921875,32.440185546875,-2.50244140625
15.5099999,-0.27054479718208313,9.696516990661621,-2.8179752826690674,4.486083984375,29.266357421875,-4.302978515625
15.5299999,-0.2322375625371933,9.691728591918945,-2.6623523235321045,5.767822265625,30.6396484375,-4.39453125
15.549999900000001,-0.21547815203666687,9.694122314453125,-2.607285737991333,2.0751953125,30.3192138671875,-2.99072265625
15.569999900000001,-0.2059013396501541,9.66539192199707,-2.5905263423919678,-3.6163330078125,30.5633544921875,1.03759765625
15.5899999,-0.20111294090747833,9.627084732055664,-2.5977089405059814,-11.2762451171875,31.829833984375,3.936767578125
15.6099999,-0.17238251864910126,9.509769439697266,-2.58813214302063,-11.9476318359375,29.876708984375,2.655029296875
15.629999900000001,-0.14365209639072418,9.406818389892578,-2.535459518432617,-8.30078125,28.533935546875,-2.9144287109375
15.649999900000001,-0.09816227108240128,9.306262016296387,-2.47560453414917,-3.1890869140625,25.08544921875,-4.1961669921875
15.6699999,-0.07182604819536209,9.279925346374512,-2.425326347351074,-2.5787353515625,23.3917236328125,-3.3416748046875
15.6899999,-0.05027823522686958,9.294290542602539,-2.432508945465088,-2.13623046875,21.0113525390625,-2.9144287109375
15.709999900000001,-0.047884032130241394,9.366117477416992,-2.4803929328918457,-2.655029296875,20.8282470703125,-4.9896240234375
15.729999900000001,-0.05267243832349777,9.428366661071777,-2.5737667083740234,-6.65283203125,20.721435546875,-4.241943359375
15.7499999,-0.06224924325942993,9.485827445983887,-2.6862943172454834,-7.080078125,20.782470703125,-1.9378662109375
15.7699999,-0.07422025501728058,9.536105155944824,-2.7964274883270264,-6.9427490234375,20.782470703125,-3.8604736328125
15.789999900000002,-0.08140286058187485,9.564835548400879,-2.8874073028564453,-9.9945068359375,21.54541015625,-4.8065185546875
15.809999900000001,-0.08858546614646912,9.557653427124023,-2.9879636764526367,-8.3770751953125,22.491455078125,-2.044677734375
15.8299999,-0.09576806426048279,9.53849983215332,-3.0621838569641113,-9.33837890625,24.8870849609375,-0.7781982421875
15.8499999,-0.10295066982507706,9.497797966003418,-3.1076738834381104,-15.6707763671875,27.099609375,-2.13623046875
15.869999900000002,-0.11013327538967133,9.464279174804688,-3.093308687210083,-16.7694091796875,30.4107666015625,-3.2806396484375
15.889999900000001,-0.11013327538967133,9.433155059814453,-3.050212860107422,-11.5814208984375,29.327392578125,-2.2125244140625
15.9099999,-0.09816227108240128,9.44752025604248,-2.96162748336792,-11.688232421875,30.2276611328125,-2.8839111328125
15.9299999,-0.08140286058187485,9.500192642211914,-2.9233202934265137,-8.2244873046875,31.0211181640625,-3.0670166015625
15.9499999,-0.05027823522686958,9.581595420837402,-2.8586769104003906,-12.39013671875,35.3546142578125,-0.152587890625
15.969999900000001,-0.009576806798577309,9.643844604492188,-2.8203697204589844,-14.9688720703125,35.9954833984375,2.777099609375
15.9899999,0.031124621629714966,9.734824180603027,-2.7533318996429443,-12.603759765625,35.1409912109375,0.4425048828125
16.0099999,0.08858546614646912,9.773131370544434,-2.6671407222747803,-10.0250244140625,36.9110107421875,0.9765625
16.0299999,0.14604631066322327,9.785101890563965,-2.5522189140319824,-11.871337890625,38.9404296875,3.0517578125
16.0499999,0.19871874153614044,9.773131370544434,-2.4229321479797363,-13.427734375,37.04833984375,4.119873046875
16.0699999,0.2537853717803955,9.710882186889648,-2.233790159225464,-15.80810546875,36.407470703125,2.8228759765625
16.089999900000002,0.2992752194404602,9.624691009521484,-2.0231003761291504,-13.7786865234375,34.9884033203125,2.197265625
16.109999900000002,0.33279404044151306,9.53849983215332,-1.7980455160140991,-8.6669921875,32.3486328125,1.1138916015625
16.1299999,0.3687070608139038,9.435548782348633,-1.6280571222305298,-7.75146484375,27.6031494140625,1.1138916015625
16.1499999,0.395043283700943,9.334992408752441,-1.4844050407409668,-9.979248046875,28.045654296875,-0.0762939453125
16.1699999,0.4141969084739685,9.26795482635498,-1.4484920501708984,-8.9263916015625,24.8565673828125,-4.0435791015625
16.1899999,0.42616790533065796,9.224859237670898,-1.4652514457702637,-9.3994140625,23.590087890625,-5.6915283203125
16.2099999,0.4118026793003082,9.26795482635498,-1.5442601442337036,-10.25390625,24.2462158203125,-5.7525634765625
16.2299999,0.3687070608139038,9.402029991149902,-1.6687586307525635,-11.322021484375,25.360107421875,-5.859375
16.249999900000002,0.3232172429561615,9.528923034667969,-1.7812861204147339,-7.537841796875,27.435302734375,-1.983642578125
16.269999900000002,0.2801215946674347,9.655815124511719,-1.8387469053268433,-7.5531005859375,29.3426513671875,-0.6256103515625
16.2899999,0.26336219906806946,9.718064308166504,-1.8339585065841675,-6.8817138671875,27.740478515625,-2.105712890625
16.3099999,0.2753331959247589,9.703699111938477,-1.7310078144073486,-7.38525390625,28.5491943359375,-2.0904541015625
16.3299999,0.2944868206977844,9.672574996948242,-1.5921441316604614,-7.049560546875,27.008056640625,-2.532958984375
16.3499999,0.3232172429561615,9.581595420837402,-1.4532804489135742,-8.0108642578125,24.3682861328125,-1.129150390625
16.3699999,0.3519476354122162,9.50498104095459,-1.3192051649093628,-9.3536376953125,24.7344970703125,-2.9296875
16.3899999,0.38067805767059326,9.428366661071777,-1.2617442607879639,-7.9803466796875,22.8729248046875,-5.7525634765625
16.4099999,0.4118026793003082,9.41639518737793,-1.194706678390503,-8.48388671875,23.37646484375,-6.34765625
16.429999900000002,0.43335050344467163,9.493009567260742,-1.1659762859344482,-6.7901611328125,22.003173828125,-5.8135986328125
16.4499999,0.4429273009300232,9.583989143371582,-1.1492167711257935,-2.7008056640625,20.050048828125,-3.082275390625
16.4699999,0.45010992884635925,9.674968719482422,-1.1516109704971313,-2.0751953125,20.2484130859375,-2.288818359375
16.4899999,0.45010992884635925,9.742006301879883,-1.161187767982483,-6.2713623046875,21.78955078125,-5.5389404296875
16.5099999,0.45489832758903503,9.758766174316406,-1.1755530834197998,-8.60595703125,19.53125,-3.8604736328125
16.5299999,0.45489832758903503,9.763554573059082,-1.1348515748977661,-7.6446533203125,20.4925537109375,-2.3956298828125
16.5499999,0.45250412821769714,9.739612579345703,-1.1061211824417114,-5.157470703125,17.8375244140625,-2.86865234375
16.5699999,0.44771572947502136,9.725247383117676,-0.993593692779541,-6.8359375,19.5159912109375,-4.9591064453125
16.589999900000002,0.4405331015586853,9.694122314453125,-0.9552865028381348,-4.57763671875,16.4642333984375,-4.5928955078125
16.609999900000002,0.43095630407333374,9.691728591918945,-0.8762778043746948,-9.033203125,14.9383544921875,-2.288818359375
16.6299999,0.4141969084739685,9.658209800720215,-0.8619126081466675,-3.448486328125,16.357421875,-2.86865234375
16.6499999,0.395043283700943,9.646238327026367,-0.8547300100326538,-4.791259765625,17.2882080078125,-6.2408447265625
16.6699999,0.3734954595565796,9.610325813293457,-0.8858546018600464,-4.302978515625,13.458251953125,-4.5013427734375
16.6899999,0.3447650372982025,9.607931137084961,-0.9600749015808105,-1.495361328125,13.885498046875,-5.157470703125
16.7099999,0.33039984107017517,9.63187313079834,-1.01753568649292,-9.4146728515625,16.3726806640625,-6.317138671875
16.7299999,0.3016694188117981,9.727641105651855,-1.070208191871643,-11.53564453125,15.7470703125,-8.7127685546875
16.749999900000002,0.2944868206977844,9.775525093078613,-1.1037269830703735,-4.0130615234375,13.8092041015625,-3.3721923828125
16.769999900000002,0.2801215946674347,9.840168952941895,-1.1324573755264282,-2.7008056640625,14.4805908203125,-3.6468505859375
16.7899999,0.2801215946674347,9.797073364257812,-1.1683704853057861,-8.36181640625,17.2271728515625,-4.5166015625
16.8099999,0.2801215946674347,9.72285270690918,-1.1994950771331787,-13.24462890625,18.0816650390625,-6.34765625
16.8299999,0.2825157940387726,9.636661529541016,-1.2018892765045166,-12.3748779296875,17.2882080078125,-6.195068359375
16.8499999,0.2825157940387726,9.600749015808105,-1.1324573755264282,-8.1939697265625,17.9443359375,-5.7525634765625
16.8699999,0.26575639843940735,9.607931137084961,-1.094150185585022,-5.0048828125,15.7012939453125,-6.011962890625
16.8899999,0.26336219906806946,9.622296333312988,-1.05105459690094,-3.997802734375,16.9677734375,-5.950927734375
16.9099999,0.24420857429504395,9.684545516967773,-1.0869675874710083,-2.044677734375,18.4478759765625,-9.1705322265625
16.929999900000002,0.2322375625371933,9.718064308166504,-1.1252747774124146,-1.0223388671875,20.0958251953125,-7.720947265625
16.9499999,0.1843535304069519,9.821015357971191,-1.213860273361206,-1.739501953125,19.927978515625,-8.3770751953125
16.9699999,0.12689268589019775,9.871294021606445,-1.290474772453308,-0.9765625,20.8892822265625,-5.889892578125
16.9899999,0.0454898327589035,9.945513725280762,-1.3742717504501343,-3.1585693359375,25.421142578125,-4.7760009765625
17.0099999,-0.035913024097681046,10.000580787658691,-1.3742717504501343,-8.7738037109375,30.5633544921875,-5.9814453125
17.0299999,-0.1173158809542656,10.101137161254883,-1.2880805730819702,-10.7269287109375,30.4412841796875,-4.45556640625
17.0499999,-0.181959331035614,10.223240852355957,-1.1420341730117798,-4.241943359375,25.69580078125,-0.946044921875
17.0699999,-0.22744916379451752,10.302249908447266,-0.9911994934082031,-2.7008056640625,25.3753662109375,4.7607421875
17.089999900000002,-0.23702596127986908,10.302249908447266,-0.8930372595787048,-5.9356689453125,29.3731689453125,6.2408447265625
17.109999900000002,-0.20111294090747833,10.189722061157227,-0.8930372595787048,-6.34765625,31.1431884765625,5.2337646484375
17.1299999,-0.12689268589019775,9.995792388916016,-0.8643068075180054,-9.6435546875,33.50830078125,6.28662109375
17.1499999,-0.06224924325942993,9.84495735168457,-0.8451532125473022,-10.4217529296875,32.623291015625,4.3487548828125
17.1699999,-0.016759412363171577,9.701305389404297,-0.768538773059845,-7.32421875,30.7464599609375,6.378173828125
17.1899999,-0.002394201699644327,9.564835548400879,-0.6847416758537292,-7.26318359375,31.06689453125,8.6517333984375
17.2099999,-0.033518824726343155,9.466673851013184,-0.629675030708313,-5.8746337890625,28.717041015625,3.6163330078125
17.2299999,-0.06703764945268631,9.35654067993164,-0.5674257874488831,-6.9122314453125,29.5257568359375,-0.1068115234375
17.249999900000002,-0.10295066982507706,9.361329078674316,-0.5841852426528931,-4.5166015625,27.862548828125,-3.387451171875
17.269999900000002,-0.10773907601833344,9.433155059814453,-0.5722141861915588,-5.218505859375,29.9224853515625,-1.9073486328125
17.2899999,-0.06224924325942993,9.603142738342285,-0.569819986820221,-13.0462646484375,32.318115234375,0.823974609375
17.3099999,0.021547814831137657,9.792284965515137,-0.4812345504760742,-22.796630859375,32.806396484375,2.2125244140625
17.3299999,0.1364694982767105,9.95748519897461,-0.3423708379268646,-23.4527587890625,30.3497314453125,5.43212890625
17.3499999,0.2322375625371933,10.050858497619629,-0.13168109953403473,-21.0723876953125,28.4881591796875,8.1939697265625
17.3699999,0.31364041566848755,10.038887977600098,0.10773907601833344,-20.8892822265625,27.587890625,9.0179443359375
17.3899999,0.3711012601852417,9.995792388916016,0.38307225704193115,-17.0440673828125,26.42822265625,4.7760009765625
17.409999900000003,0.42856210470199585,9.90241813659668,0.6440402865409851,-7.99560546875,20.56884765625,3.90625
17.429999900000002,0.4836287498474121,9.885659217834473,0.8451532125473022,3.9825439453125,14.8773193359375,3.082275390625
17.4499999,0.545877993106842,9.883264541625977,0.9744400978088379,3.84521484375,15.716552734375,3.936767578125
17.4699999,0.6057330369949341,9.9000244140625,0.9840168952941895,5.2947998046875,13.7786865234375,5.18798828125
17.4899999,0.6488286852836609,9.90241813659668,0.9050082564353943,3.753662109375,12.2222900390625,2.86865234375
17.5099999,0.6871358752250671,9.859322547912598,0.7996633648872375,8.7127685546875,10.986328125,2.62451171875
17.5299999,0.6991068720817566,9.828198432922363,0.6703764796257019,13.48876953125,9.09423828125,0.946044921875
17.5499999,0.7182605266571045,9.715670585632324,0.4884171485900879,16.387939453125,5.279541015625,3.204345703125
17.5699999,0.727837324142456,9.641449928283691,0.24420857429504395,14.8468017578125,3.2806396484375,1.3275146484375
17.589999900000002,0.7398083209991455,9.524134635925293,0.047884032130241394,1.0986328125,10.8795166015625,1.6632080078125
17.609999900000002,0.7445967197418213,9.44752025604248,-0.12689268589019775,-5.79833984375,11.1846923828125,3.11279296875
17.6299999,0.7661445140838623,9.368511199951172,-0.10773907601833344,-0.2288818359375,7.781982421875,3.5552978515625
17.6499999,0.7805097699165344,9.30386734008789,-0.05027823522686958,0.8087158203125,2.349853515625,1.8157958984375
17.6699999,0.8020575642585754,9.23443603515625,0.12689268589019775,-6.7596435546875,4.150390625,-0.6103515625
17.6899999,0.8212111592292786,9.169792175292969,0.22026655077934265,-8.7890625,4.8065185546875,-2.532958984375
17.7099999,0.8236053586006165,9.126696586608887,0.3280056416988373,-8.6669921875,3.1585693359375,-3.7994384765625
17.7299999,0.8259995579719543,9.169792175292969,0.44532153010368347,-11.71875,4.7607421875,-6.6680908203125
17.749999900000002,0.8307880163192749,9.284713745117188,0.5722141861915588,-9.3841552734375,3.265380859375,-8.3160400390625
17.769999900000002,0.8331822156906128,9.476250648498535,0.7110779285430908,0.0762939453125,2.288818359375,-6.2255859375
17.7899999,0.8331822156906128,9.605537414550781,0.6991068720817566,8.60595703125,-2.349853515625,-1.6937255859375
17.8099999,0.8164227604866028,9.674968719482422,0.7422025203704834,0.5340576171875,4.2572021484375,-3.7841796875
17.8299999,0.7445967197418213,9.703699111938477,0.629675030708313,-7.171630859375,0.8697509765625,-10.2996826171875
17.8499999,0.6153098344802856,9.725247383117676,0.5123591423034668,-1.861572265625,-6.439208984375,-7.26318359375
17.8699999,0.40462008118629456,9.823410034179688,0.3064578175544739,4.608154296875,-6.683349609375,-3.7384033203125
17.8899999,0.14365209639072418,9.955090522766113,-0.07422025501728058,5.859375,-4.119873046875,-3.936767578125
17.909999900000003,-0.08379705995321274,10.065223693847656,-0.4165911078453064,-0.152587890625,6.04248046875,-4.0283203125
17.929999900000002,-0.22266076505184174,10.192116737365723,-0.6703764796257019,-1.8463134765625,9.6893310546875,-4.180908203125
17.9499999,-0.2298433631658554,10.33098030090332,-0.6392518281936646,-1.4801025390625,8.9569091796875,-0.6866455078125
17.9699999,-0.09576806426048279,10.441113471984863,-0.42377370595932007,-0.8087158203125,4.3487548828125,4.5928955078125
17.9899999,0.1173158809542656,10.524910926818848,-0.18914192914962769,-0.8087158203125,1.861572265625,6.6375732421875
18.0099999,0.33997663855552673,10.460267066955566,0.016759412363171577,-5.6915283203125,4.4708251953125,8.087158203125
18.0299999,0.5099649429321289,10.271124839782715,0.043095629662275314,-5.9814453125,5.615234375,10.6201171875
18.0499999,0.586579442024231,9.959878921508789,0.08379705995321274,-8.4686279296875,5.43212890625,9.185791015625
18.0699999,0.5793967843055725,9.567230224609375,0.06224924325942993,-6.6070556640625,2.0294189453125,6.9732666015625
18.089999900000002,0.5123591423034668,9.282320022583008,0.1173158809542656,-2.74658203125,1.190185546875,0.1220703125
18.109999900000002,0.42616790533065796,9.107542991638184,0.10295066982507706,1.9073486328125,-3.082275390625,-2.9296875
18.1299999,0.3519476354122162,9.150638580322266,0.08379705995321274,1.4801025390625,-1.495361328125,-2.0904541015625
18.1499999,0.2944868206977844,9.344569206237793,0.011971008032560349,-1.3275146484375,-1.129150390625,-2.960205078125
18.1699999,0.26815059781074524,9.586383819580078,-0.0071826050989329815,-4.7760009765625,1.6021728515625,-0.732421875
18.1899999,0.27054479718208313,9.801861763000488,0.004788403399288654,-1.068115234375,-2.4566650390625,0.4730224609375
18.2099999,0.29209262132644653,9.9000244140625,0.0694318488240242,2.4261474609375,-4.69970703125,2.1820068359375
18.2299999,0.33758243918418884,9.895236015319824,0.1388636976480484,0.8392333984375,-5.6304931640625,-0.762939453125
18.249999900000002,0.38067805767059326,9.84495735168457,0.14365209639072418,1.9989013671875,-6.4544677734375,-4.5166015625
18.269999900000002,0.40940847992897034,9.78989028930664,0.10295066982507706,3.3721923828125,-6.683349609375,-3.509521484375
18.2899999,0.4189853072166443,9.773131370544434,0.033518824726343155,2.3651123046875,-6.1798095703125,-0.7476806640625
18.3099999,0.40222588181495667,9.775525093078613,-0.06224924325942993,3.2806396484375,-6.4239501953125,-0.823974609375
18.3299999,0.38067805767059326,9.765948295593262,-0.12689268589019775,1.9378662109375,-5.6304931640625,-2.7923583984375
18.3499999,0.3711012601852417,9.761159896850586,-0.17956513166427612,0.42724609375,-5.0811767578125,-3.0517578125
18.3699999,0.3663128614425659,9.816226959228516,-0.22505496442317963,1.46484375,-5.4931640625,-3.7689208984375
18.3899999,0.38546648621559143,9.904812812805176,-0.2777273952960968,2.8076171875,-4.730224609375,-0.640869140625
18.409999900000003,0.4141969084739685,10.031704902648926,-0.33518823981285095,1.861572265625,-0.1068115234375,3.11279296875
18.429999900000002,0.44532153010368347,10.086771965026855,-0.3663128614425659,0.8087158203125,0.518798828125,4.82177734375
18.4499999,0.4812345504760742,10.067618370056152,-0.36152446269989014,-1.983642578125,0.762939453125,3.692626953125
18.4699999,0.507570743560791,9.964667320251465,-0.33279404044151306,-1.5411376953125,-1.28173828125,0.1983642578125
18.4899999,0.5315127968788147,9.835380554199219,-0.27054479718208313,-2.13623046875,1.9683837890625,0.213623046875
18.5099999,0.5339069962501526,9.765948295593262,-0.22744916379451752,-3.6773681640625,1.8310546875,-1.0528564453125
18.5299999,0.524330198764801,9.703699111938477,-0.17717093229293823,-3.7689208984375,0.762939453125,-0.030517578125
18.5499999,0.5027823448181152,9.684545516967773,-0.14604631066322327,-4.058837890625,1.7547607421875,-0.3662109375
18.5699999,0.47405192255973816,9.694122314453125,-0.08140286058187485,-5.645751953125,3.0670166015625,-2.6397705078125
18.589999900000002,0.4572925269603729,9.713275909423828,-0.05746084079146385,-3.6773681640625,2.4261474609375,-0.91552734375
18.609999900000002,0.4668693244457245,9.749189376831055,0.019153613597154617,-1.4495849609375,1.6937255859375,1.190185546875
18.6299999,0.4884171485900879,9.80904483795166,0.06224924325942993,-2.349853515625,1.129150390625,-0.1983642578125
18.6499999,0.5003881454467773,9.8784761428833,0.12210428714752197,-2.777099609375,1.129150390625,-2.1514892578125
18.6699999,0.49799394607543945,9.947908401489258,0.12689268589019775,-2.6702880859375,-0.8392333984375,-0.4425048828125
18.6899999,0.47884035110473633,9.976638793945312,0.08619125932455063,-2.50244140625,0.5340576171875,3.692626953125
18.7099999,0.45010992884635925,10.000580787658691,0.07661445438861847,-6.6375732421875,4.8675537109375,0.1678466796875
18.7299999,0.4381389021873474,9.95748519897461,0.07182604819536209,-7.8887939453125,2.50244140625,-1.556396484375
18.749999900000002,0.43335050344467163,9.852140426635742,0.14365209639072418,-3.47900390625,-1.3427734375,1.6937255859375
18.769999900000002,0.4213795065879822,9.720458984375,0.16759411990642548,-1.2664794921875,-3.8299560546875,-0.1220703125
18.7899999,0.40222588181495667,9.624691009521484,0.21308395266532898,-3.570556640625,0.5645751953125,-5.6304931640625
18.8099999,0.35673606395721436,9.627084732055664,0.1843535304069519,-3.23486328125,1.8157958984375,-6.7596435546875
18.8299999,0.2992752194404602,9.674968719482422,0.14365209639072418,0.30517578125,-1.495361328125,1.4190673828125
18.8499999,0.24899697303771973,9.696516990661621,0.08379705995321274,2.410888671875,-0.0762939453125,7.5531005859375
18.8699999,0.22266076505184174,9.607931137084961,0.0933738648891449,-0.67138671875,4.8065185546875,1.312255859375
18.8899999,0.22744916379451752,9.442731857299805,0.05746084079146385,-1.3885498046875,1.9683837890625,-5.584716796875
18.909999900000003,0.2801215946674347,9.287108421325684,0.12210428714752197,1.495361328125,0.6103515625,-4.8675537109375
18.929999900000002,0.3208230137825012,9.32541561126709,0.13168109953403473,3.753662109375,-1.46484375,-5.584716796875
18.9499999,0.3663128614425659,9.452308654785156,0.11971008777618408,4.7607421875,0.2899169921875,-3.60107421875
18.9699999,0.3878606855869293,9.677363395690918,0.038307227194309235,1.5716552734375,0.335693359375,-2.5634765625
18.9899999,0.3926490843296051,9.909601211547852,-0.047884032130241394,-1.129150390625,0.9613037109375,-2.960205078125
19.0099999,0.395043283700943,10.077195167541504,-0.10773907601833344,-0.1678466796875,2.3956298828125,-0.5950927734375
19.0299999,0.3926490843296051,10.18493366241455,-0.09816227108240128,2.3345947265625,1.9683837890625,0.2288818359375
19.0499999,0.40940847992897034,10.196905136108398,-0.06224924325942993,4.0435791015625,1.220703125,0.2899169921875
19.0699999,0.4429273009300232,10.156203269958496,0.014365210197865963,2.2735595703125,0.9307861328125,0.67138671875
19.089999900000002,0.4644751250743866,10.127472877502441,0.08619125932455063,-1.983642578125,1.9989013671875,-0.7476806640625
19.109999900000002,0.4908113479614258,10.065223693847656,0.14365209639072418,0.335693359375,0.7476806640625,2.7313232421875
19.1299999,0.4884171485900879,10.02452278137207,0.181959331035614,0.5950927734375,-0.06103515625,4.0435791015625
19.1499999,0.4812345504760742,9.928754806518555,0.20350714027881622,-2.6702880859375,1.129150390625,3.47900390625
19.1699999,0.4620809257030487,9.818621635437012,0.22266076505184174,-4.5166015625,1.983642578125,2.685546875
19.1899999,0.4381389021873474,9.703699111938477,0.22505496442317963,-4.21142578125,0.1983642578125,1.4495849609375
19.2099999,0.40940847992897034,9.603142738342285,0.22744916379451752,-2.74658203125,-1.190185546875,1.708984375
19.2299999,0.38307225704193115,9.552865028381348,0.2059013396501541,-3.3416748046875,-1.0223388671875,0.274658203125
19.249999900000002,0.3663128614425659,9.560047149658203,0.17477671802043915,-2.13623046875,-0.7171630859375,-1.1444091796875
19.269999900000002,0.35434186458587646,9.581595420837402,0.08140286058187485,1.617431640625,-3.3111572265625,0.1220703125
19.2899999,0.33997663855552673,9.646238327026367,-0.002394201699644327,1.434326171875,-0.9765625,0.54931640625
19.3099999,0.33039984107017517,9.710882186889648,-0.10534487664699554,0.823974609375,0.5035400390625,-0.640869140625
19.3299999,0.33518823981285095,9.734824180603027,-0.16519992053508759,0.6866455078125,1.4190673828125,1.1444091796875
19.3499999,0.35434186458587646,9.737217903137207,-0.19393034279346466,0.518798828125,1.46484375,1.800537109375
19.3699999,0.3878606855869293,9.708487510681152,-0.1604115068912506,-0.91552734375,2.166748046875,-0.213623046875
19.3899999,0.42377370595932007,9.677363395690918,-0.090979665517807,-1.0528564453125,3.143310546875,-1.3427734375
19.409999900000003,0.44771572947502136,9.667786598205566,-0.026336219161748886,-1.3885498046875,1.2359619140625,-0.8544921875
19.429999900000002,0.4668693244457245,9.68694019317627,0.05985504388809204,-1.708984375,1.983642578125,0.2288818359375
19.4499999,0.47644615173339844,9.725247383117676,0.1173158809542656,-1.6326904296875,2.197265625,-0.091552734375
19.4699999,0.47884035110473633,9.75397777557373,0.1628057211637497,-1.068115234375,2.1209716796875,-0.4425048828125
19.4899999,0.47884035110473633,9.75637149810791,0.16759411990642548,-0.91552734375,0.54931640625,-0.5340576171875
19.5099999,0.4692635238170624,9.780313491821289,0.14844051003456116,-3.631591796875,1.953125,-1.8310546875
19.5299999,0.45010992884635925,9.816226959228516,0.1149216815829277,-4.1046142578125,3.4637451171875,-1.77001953125
19.5499999,0.42616790533065796,9.840168952941895,0.0454898327589035,-2.8228759765625,2.7313232421875,1.3427734375
19.5699999,0.3998316824436188,9.847352027893066,0.033518824726343155,-4.425048828125,5.0048828125,2.166748046875
19.589999900000002,0.38307225704193115,9.830592155456543,0.06224924325942993,-4.82177734375,5.1422119140625,-0.5950927734375
19.609999900000002,0.3734954595565796,9.785101890563965,0.10295066982507706,-2.0599365234375,1.8310546875,-1.64794921875
19.6299999,0.38307225704193115,9.725247383117676,0.15801730751991272,-3.0364990234375,2.2430419921875,-1.3580322265625
19.6499999,0.3902548849582672,9.72285270690918,0.14844051003456116,-3.4332275390625,4.5928955078125,-1.6021728515625
19.6699999,0.3902548849582672,9.749189376831055,0.09576806426048279,-3.1890869140625,2.9296875,-0.4730224609375
19.6899999,0.3926490843296051,9.773131370544434,0.09576806426048279,-3.5552978515625,3.41796875,0.79345703125
19.7099999,0.3926490843296051,9.787496566772461,0.08858546614646912,-2.38037109375,3.41796875,0.06103515625
19.7299999,0.3974374830722809,9.785101890563965,0.10055647045373917,-3.41796875,3.997802734375,-1.2969970703125
19.749999900000002,0.40462008118629456,9.775525093078613,0.11252748221158981,-3.60107421875,4.7149658203125,-1.2969970703125
19.769999900000002,0.40940847992897034,9.780313491821289,0.14844051003456116,-6.3323974609375,5.340576171875,-1.3885498046875
19.7899999,0.4141969084739685,9.806650161743164,0.21547815203666687,-8.544921875,5.706787109375,-0.7476806640625
19.8099999,0.4189853072166443,9.816226959228516,0.3208230137825012,-5.4473876953125,4.9285888671875,0.579833984375
19.8299999,0.4213795065879822,9.813833236694336,0.4118026793003082,-1.2969970703125,3.4637451171875,1.03759765625
19.8499999,0.4189853072166443,9.794678688049316,0.5123591423034668,-3.7078857421875,4.3487548828125,-0.48828125
19.8699999,0.4141969084739685,9.75397777557373,0.5554547905921936,-4.8065185546875,3.814697265625,-0.213623046875
19.8899999,0.3998316824436188,9.727641105651855,0.6033388376235962,-4.791259765625,3.60107421875,-0.18310546875
19.909999900000003,0.3758896589279175,9.710882186889648,0.6512228846549988,-5.55419921875,3.265380859375,-0.91552734375
19.929999900000002,0.35434186458587646,9.682151794433594,0.7015010714530945,-2.8533935546875,2.685546875,0.030517578125
19.9499999,0.3471592366695404,9.648633003234863,0.7469909191131592,-0.823974609375,2.349853515625,-0.5035400390625
19.9699999,0.35913026332855225,9.622296333312988,0.8547300100326538,-3.509521484375,5.950927734375,-1.861572265625
19.9899999,0.3878606855869293,9.63187313079834,1.0462661981582642,-4.0283203125,5.4779052734375,-2.25830078125
20.0099999,0.42856210470199585,9.677363395690918,1.3239935636520386,0.9765625,0.2593994140625,-0.3509521484375
20.0299999,0.4692635238170624,9.768342971801758,1.6831238269805908,4.2724609375,-2.3040771484375,0.4730224609375
20.0499999,0.49799394607543945,9.873687744140625,2.056619167327881,6.53076171875,-2.25830078125,1.5869140625
20.0699999,0.5171475410461426,9.931148529052734,2.4396915435791016,9.002685546875,-2.532958984375,5.889892578125
20.089999900000002,0.5123591423034668,9.952696800231934,2.849100112915039,6.2255859375,-5.7373046875,9.0179443359375
20.109999900000002,0.49320554733276367,9.871294021606445,3.315969467163086,2.4566650390625,-9.5367431640625,11.1846923828125
20.1299999,0.44771572947502136,9.718064308166504,3.845088005065918,-0.9002685546875,-15.625,10.1318359375
20.1499999,0.38546648621559143,9.550470352172852,4.417302131652832,-1.190185546875,-24.8260498046875,5.9051513671875
20.1699999,0.2944868206977844,9.425971984863281,4.994304656982422,3.90625,-37.2467041015625,3.3416748046875
20.1899999,0.17238251864910126,9.421183586120605,5.489904403686523,4.4403076171875,-54.0771484375,1.8157958984375
20.2099999,0.014365210197865963,9.533711433410645,5.810727596282959,5.9661865234375,-69.244384765625,2.105712890625
20.2299999,-0.19393034279346466,9.720458984375,5.870582580566406,10.5743408203125,-81.72607421875,1.64794921875
20.249999900000002,-0.45489832758903503,10.000580787658691,5.698200225830078,8.5906982421875,-92.437744140625,-0.579833984375
20.269999900000002,-0.7637503147125244,10.223240852355957,5.305551052093506,5.2337646484375,-102.7069091796875,4.6234130859375
20.2899999,-1.0869675874710083,10.383652687072754,4.73573112487793,2.5482177734375,-112.945556640625,8.7127685546875
20.3099999,-1.41257905960083,10.498574256896973,4.113238334655762,-9.21630859375,-117.2637939453125,5.7830810546875
