# Time (seconds),Accel_X,Accel_Y,Accel_Z,Gyro_X,Gyro_Y,Gyro_Z
0.0099999,0.09576806426048279,-4.194641590118408,8.834604263305664,-39.3829345703125,101.07421875,29.4342041015625
0.029999900000000003,-0.3734954595565796,-4.381389141082764,9.251194953918457,17.3797607421875,66.253662109375,22.5677490234375
0.0499999,-0.7637503147125244,-4.51067590713501,9.557653427124023,-12.02392578125,67.1844482421875,-24.3377685546875
0.0699999,-0.7805097699165344,-4.7836151123046875,9.385271072387695,-36.4837646484375,84.686279296875,-20.965576171875
0.08999990000000001,-0.768538773059845,-4.800374507904053,9.519346237182617,-21.514892578125,97.9461669921875,1.2054443359375
0.10999990000000001,-0.6847416758537292,-4.721365928649902,10.02452278137207,-22.39990234375,62.347412109375,-13.3056640625
0.1299999,-0.7230489253997803,-4.6255974769592285,10.529699325561523,53.2684326171875,-17.5628662109375,-33.7371826171875
0.14999990000000002,-1.2234370708465576,-4.352658748626709,11.085153579711914,62.469482421875,-13.3056640625,-53.6346435546875
0.1699999,-2.070984363555908,-4.182670593261719,11.171344757080078,23.956298828125,27.984619140625,-17.5933837890625
0.1899999,-2.892195701599121,-3.9001545906066895,11.176133155822754,-21.42333984375,41.2445068359375,8.36181640625
0.20999990000000002,-3.4332852363586426,-3.976768970489502,11.025299072265625,-7.1868896484375,23.9105224609375,5.523681640625
0.2299999,-3.5194764137268066,-4.077325344085693,11.02051067352295,9.6435546875,18.0511474609375,-14.617919921875
0.2499999,-3.265691041946411,-4.185064792633057,11.109095573425293,-2.5482177734375,69.7784423828125,-29.1748046875
0.2699999,-2.964021682739258,-4.120420932769775,11.17852783203125,-4.3487548828125,90.9271240234375,-15.6402587890625
0.28999990000000003,-2.935291290283203,-3.794809579849243,11.35809326171875,39.581298828125,86.2884521484375,-10.2386474609375
0.3099999,-3.028665065765381,-3.555389642715454,11.475408554077148,20.355224609375,54.38232421875,4.6844482421875
0.3299999,-3.423708438873291,-3.2848446369171143,11.379640579223633,-2.5177001953125,35.491943359375,-1.9073486328125
0.34999990000000003,-3.780444383621216,-3.1244332790374756,11.0300874710083,4.5013427734375,12.542724609375,-10.3302001953125
0.3699999,-3.706224203109741,-3.050212860107422,10.450690269470215,-22.5067138671875,-34.24072265625,6.40869140625
0.3899999,-3.3063924312591553,-3.0813376903533936,9.646238327026367,-29.6783447265625,-62.68310546875,9.5672607421875
0.40999990000000003,-2.52109432220459,-3.179499864578247,8.588001251220703,-38.2080078125,-68.756103515625,-8.48388671875
0.4299999,-1.5705963373184204,-3.4165258407592773,7.462726593017578,-65.36865234375,-42.633056640625,-19.5770263671875
0.4499999,-0.912190854549408,-3.687070608139038,6.71334171295166,-54.656982421875,6.3018798828125,-15.228271484375
0.4699999,-0.6584054827690125,-3.993528366088867,6.40927791595459,-7.965087890625,2.349853515625,-27.34375
0.4899999,-0.8379706144332886,-4.357447147369385,6.627150535583496,-16.387939453125,-49.9420166015625,-61.126708984375
0.5099999,-1.37906014919281,-4.632780075073242,6.97430944442749,-37.9638671875,-50.1251220703125,-98.480224609375
0.5299999,-1.9105730056762695,-4.757278919219971,7.151480674743652,-37.384033203125,-31.951904296875,-111.480712890625
0.5499999,-2.3774423599243164,-4.69024133682251,7.029376029968262,-24.2767333984375,-33.8897705078125,-87.6007080078125
0.5699999,-2.5234885215759277,-4.49870491027832,6.746860504150391,-8.7738037109375,-6.6070556640625,-57.80029296875
0.5899998999999999,-2.346317768096924,-4.400542736053467,6.564900875091553,-26.06201171875,34.5458984375,-35.15625
0.6099998999999999,-1.9177556037902832,-4.469974517822266,6.406883716583252,-26.55029296875,25.69580078125,-36.224365234375
0.6299999,-1.335964560508728,-4.680664539337158,6.411672115325928,-20.93505859375,1.1138916015625,-63.720703125
0.6499999,-1.113303780555725,-4.8482584953308105,6.610390663146973,-24.10888671875,5.7373046875,-85.0677490234375
0.6699999,-0.8044517636299133,-4.817133903503418,7.144298076629639,24.6429443359375,18.5699462890625,-56.243896484375
0.6899999,-0.8786720037460327,-4.704606533050537,7.704541206359863,86.944580078125,-39.4744873046875,-12.420654296875
0.7099999,-0.871489405632019,-4.5154643058776855,8.35336971282959,87.7685546875,-97.1527099609375,9.368896484375
0.7299998999999999,-0.8307880163192749,-4.441244125366211,8.767566680908203,90.14892578125,-102.020263671875,32.7301025390625
0.7499998999999999,-1.0462661981582642,-4.5154643058776855,8.513781547546387,38.8641357421875,-104.278564453125,66.10107421875
0.7699999,-0.8355764150619507,-4.522646903991699,9.059659004211426,-68.7255859375,-74.5697021484375,101.6693115234375
0.7899999,-0.8834604024887085,-4.972756862640381,9.679757118225098,52.3681640625,-52.337646484375,122.74169921875
0.8099999,-0.38546648621559143,-5.408501625061035,9.825803756713867,62.5457763671875,-249.7406005859375,74.127197265625
0.8299999,0.043095629662275314,-5.851428985595703,9.806650161743164,-12.786865234375,-137.8326416015625,9.27734375
0.8499998999999999,0.28969839215278625,-6.167463779449463,8.561665534973145,-42.877197265625,-1.8310546875,16.8304443359375
0.8699998999999999,0.395043283700943,-6.215347766876221,6.926425457000732,-72.32666015625,-47.332763671875,30.94482421875
0.8899999,0.4668693244457245,-6.212953567504883,5.896918773651123,-105.987548828125,-69.0765380859375,1.251220703125
0.9099999,0.569819986820221,-6.303933143615723,5.190629482269287,-93.170166015625,-64.208984375,-52.2613525390625
0.9299999,0.8930372595787048,-6.349422931671143,4.639962673187256,-64.2852783203125,-38.360595703125,-89.447021484375
0.9499999,1.359906554222107,-6.042964935302734,4.331110954284668,-67.5048828125,45.0286865234375,-77.8045654296875
0.9699998999999999,1.5682021379470825,-5.513846397399902,4.1874589920043945,-65.521240234375,121.88720703125,-6.3629150390625
0.9899998999999999,1.4867992401123047,-4.944026470184326,4.307168960571289,-83.9385986328125,86.2884521484375,58.990478515625
1.0099999,1.1061211824417114,-4.460397720336914,4.6040496826171875,-71.0906982421875,38.299560546875,82.1685791015625
1.0299999,0.569819986820221,-4.37420654296875,4.8267107009887695,-82.94677734375,46.234130859375,120.8648681640625
1.0499999,0.021547814831137657,-4.680664539337158,4.778826713562012,-92.315673828125,65.9027099609375,158.2489013671875
1.0699999,-0.5099649429321289,-5.4875102043151855,4.903325080871582,-76.446533203125,105.7281494140625,158.7066650390625
1.0899999,-1.1420341730117798,-6.512228488922119,5.348646640777588,6.591796875,124.45068359375,85.2508544921875
1.1099999,-1.8986018896102905,-7.3885064125061035,6.160281181335449,33.1268310546875,105.52978515625,3.509521484375
1.1299999,-2.8371291160583496,-7.702147006988525,6.995857238769531,12.3138427734375,113.46435546875,-10.009765625
1.1499999,-3.8498764038085938,-7.285555839538574,7.850587368011475,-0.457763671875,160.980224609375,14.0838623046875
1.1699998999999999,-4.8722004890441895,-6.354211330413818,8.44434928894043,-17.08984375,148.101806640625,31.18896484375
1.1899998999999999,-5.760449409484863,-5.355829238891602,8.81784439086914,-52.520751953125,60.943603515625,54.0008544921875
1.2099999,-6.36378812789917,-4.558559894561768,9.071630477905273,-70.4803466796875,20.721435546875,81.1004638671875
1.2299999,-6.598419666290283,-4.122815132141113,8.927978515625,-57.4951171875,14.2974853515625,118.5760498046875
1.2499999,-6.524199485778809,-4.2090067863464355,8.4108304977417,-36.56005859375,-8.026123046875,138.1378173828125
1.2699999,-6.258443355560303,-4.654327869415283,7.668628215789795,-28.7322998046875,2.13623046875,101.1199951171875
1.2899999,-5.937620162963867,-5.240907669067383,6.967126846313477,-15.289306640625,61.8896484375,48.2635498046875
1.3099999,-5.7125654220581055,-5.928043365478516,6.852205276489258,-5.096435546875,106.231689453125,40.22216796875
1.3299999,-5.717353820800781,-6.3973069190979,7.383718013763428,-4.5166015625,75.775146484375,52.703857421875
1.3499999,-5.825092792510986,-6.643909931182861,8.358158111572266,5.462646484375,13.702392578125,66.22314453125
1.3699999,-5.858611583709717,-6.914454460144043,8.96149730682373,12.63427734375,-40.4815673828125,79.7576904296875
1.3899999,-5.7125654220581055,-7.2113356590271,8.578424453735352,13.48876953125,-78.094482421875,82.6873779296875
1.4099999,-5.303156852722168,-7.73087739944458,7.331045627593994,8.48388671875,-36.102294921875,68.0694580078125
1.4299998999999999,-4.948814868927002,-8.092401504516602,5.7125654220581055,-3.570556640625,28.656005859375,20.050048828125
1.4499999,-4.6734819412231445,-8.322244644165039,4.256890773773193,-12.9241943359375,36.62109375,5.157470703125
1.4699999,-4.671087741851807,-8.305485725402832,3.6774938106536865,-17.4407958984375,47.210693359375,18.4783935546875
1.4899999,-4.819528102874756,-8.101978302001953,3.600879430770874,-6.866455078125,36.3311767578125,3.8909912109375
1.5099999,-5.109226226806641,-7.893682956695557,3.976768970489502,-17.242431640625,21.392822265625,-14.7857666015625
1.5299999,-5.497087001800537,-7.817068576812744,4.594472885131836,-62.3016357421875,27.069091796875,-16.448974609375
1.5499999,-5.872976779937744,-7.850587368011475,5.1116204261779785,-93.2159423828125,14.2974853515625,-21.3623046875
1.5699999,-6.050147533416748,-8.224082946777344,5.243301868438721,-112.7777099609375,-3.96728515625,-33.3099365234375
1.5899999,-5.978321552276611,-8.808267593383789,4.809951305389404,-154.9224853515625,10.2996826171875,-67.44384765625
1.6099999,-5.767632007598877,-9.452308654785156,4.0533833503723145,-183.04443359375,86.761474609375,-113.9373779296875
1.6299999,-5.480327606201172,-10.043676376342773,3.246537446975708,-129.669189453125,146.97265625,-129.119873046875
1.6499999,-5.027823448181152,-10.412383079528809,2.535459518432617,-65.185546875,127.3956298828125,-134.063720703125
1.6699999,-4.6950297355651855,-10.51054573059082,1.8818424940109253,-29.144287109375,107.269287109375,-153.961181640625
1.6899998999999999,-4.390965938568115,-10.323798179626465,1.314416766166687,-35.2325439453125,160.400390625,-164.9017333984375
1.7099999,-4.180276393890381,-10.065223693847656,0.6560112833976746,-30.4718017578125,211.1968994140625,-136.3525390625
1.7299999,-4.20421838760376,-9.849745750427246,0.16759411990642548,-67.9473876953125,188.7054443359375,-96.5728759765625
1.7499999,-4.359841346740723,-9.801861763000488,-0.14604631066322327,-150.146484375,178.16162109375,-95.428466796875
1.7699999,-4.6040496826171875,-9.995792388916016,-0.2992752194404602,-252.7923583984375,184.7076416015625,-72.8607177734375
1.7899999,-4.7836151123046875,-10.0580415725708,-0.14844051003456116,-274.2919921875,179.8095703125,-17.669677734375
1.8099999,-4.90571928024292,-9.952696800231934,-0.21547815203666687,-108.062744140625,117.0196533203125,35.9649658203125
1.8299999,-4.8602294921875,-9.708487510681152,-0.17956513166427612,-66.9097900390625,44.0216064453125,79.437255859375
1.8499999,-4.697423934936523,-9.478644371032715,-0.45489832758903503,-33.9508056640625,53.9093017578125,80.780029296875
1.8699999,-4.661510944366455,-9.232041358947754,-0.9193734526634216,44.9066162109375,78.460693359375,55.6182861328125
1.8899999,-4.76924991607666,-8.908824920654297,-1.2425906658172607,51.3916015625,56.610107421875,38.2537841796875
1.9099999,-4.941632270812988,-8.53532886505127,-1.3072341680526733,54.595947265625,24.078369140625,52.1087646484375
1.9299998999999999,-5.099649429321289,-8.085219383239746,-1.216254472732544,80.780029296875,1.28173828125,76.141357421875
1.9499999,-5.082890033721924,-7.757213592529297,-1.0438719987869263,101.6387939453125,-6.9732666015625,83.648681640625
1.9699999,-4.975151062011719,-7.709329605102539,-0.9265560507774353,125.732421875,-10.5438232421875,90.8660888671875
1.9899999,-4.754884719848633,-7.948749542236328,-0.9169792532920837,101.74560546875,-27.7099609375,94.1314697265625
2.0099999,-4.525041103363037,-8.274360656738281,-0.9145850539207458,71.77734375,-32.623291015625,68.2220458984375
2.0299999,-4.398148536682129,-8.604761123657227,-1.036689281463623,194.76318359375,-13.458251953125,41.68701171875
2.0499999,-4.479551315307617,-8.920795440673828,-0.9552865028381348,320.6329345703125,11.8408203125,44.2962646484375
2.0699999,-4.90571928024292,-9.29189682006836,-0.8690952062606812,383.2244873046875,37.3077392578125,63.3697509765625
2.0899999,-5.434837818145752,-9.856928825378418,-0.3519476354122162,241.1041259765625,32.8521728515625,25.45166015625
2.1099999,-6.0621185302734375,-10.381258964538574,0.4884171485900879,83.55712890625,10.9710693359375,-72.601318359375
2.1299999,-6.471527099609375,-10.60391902923584,1.6280571222305298,148.01025390625,38.4979248046875,-113.83056640625
2.1499999,-6.507440090179443,-10.369287490844727,3.0334534645080566,229.79736328125,66.558837890625,-76.263427734375
2.1699999,-6.342240333557129,-9.859322547912598,4.414907932281494,280.1513671875,52.9632568359375,-35.064697265625
2.1899999,-5.963956356048584,-9.191340446472168,5.851428985595703,355.865478515625,2.38037109375,-53.863525390625
2.2099999,-5.5976433753967285,-8.588001251220703,7.079654216766357,499.9847412109375,-32.53173828125,-71.6552734375
2.2299999,-5.264849662780762,-7.884106159210205,7.920019149780273,499.9847412109375,-38.63525390625,-45.013427734375
2.2499999,-5.011064052581787,-6.979097843170166,8.44195556640625,453.79638671875,-95.4132080078125,-29.754638671875
2.2699999,-4.821922302246094,-5.92325496673584,8.453926086425781,215.9423828125,-134.063720703125,-34.454345703125
2.2899999,-4.649539470672607,-4.776432514190674,8.29830265045166,231.99462890625,-112.0147705078125,-40.0848388671875
2.3099999,-4.525041103363037,-3.737348794937134,8.190564155578613,185.2569580078125,-94.3756103515625,-37.17041015625
2.3299999,-4.520252704620361,-2.801215887069702,8.305485725402832,166.7938232421875,-71.685791015625,-39.215087890625
2.3499999,-4.623203277587891,-1.900996208190918,8.583212852478027,243.3013916015625,-34.4696044921875,-54.473876953125
2.3699999,-4.922478675842285,-0.8930372595787048,8.98543930053711,237.884521484375,-38.2843017578125,-81.9854736328125
2.3899999,-5.4444146156311035,0.3208230137825012,9.155426979064941,223.7091064453125,-75.98876953125,-70.1141357421875
2.4099999,-6.016628742218018,1.7118542194366455,8.844181060791016,248.138427734375,-101.4556884765625,-35.736083984375
2.4299999,-6.452373504638672,2.937685489654541,7.972691535949707,199.8748779296875,-102.874755859375,7.6904296875
2.4499999,-6.5912370681762695,3.8163576126098633,6.648698329925537,134.0179443359375,-60.72998046875,31.5093994140625
2.4699999,-6.313509941101074,4.182670593261719,5.128379821777344,157.53173828125,17.3797607421875,34.36279296875
2.4899999,-5.779603004455566,4.146757125854492,4.182670593261719,59.3109130859375,49.25537109375,44.43359375
2.5099999,-5.0876784324646,3.9217023849487305,3.9240965843200684,12.725830078125,36.80419921875,80.718994140625
2.5299999,-4.304774761199951,3.691859006881714,4.663905143737793,13.9923095703125,10.8795166015625,107.0556640625
2.5499999,-3.5936968326568604,3.450044631958008,5.983109951019287,8.9111328125,-24.1851806640625,109.4970703125
2.5699999,-3.2106244564056396,3.421314239501953,6.909666061401367,139.5416259765625,-44.8455810546875,67.0623779296875
2.5899999,-2.956839084625244,3.7612907886505127,6.861782073974609,129.4708251953125,-49.7894287109375,40.7562255859375
2.6099999,-3.004723072052002,4.223371982574463,6.50025749206543,-122.6348876953125,15.8843994140625,102.5848388671875
2.6299999,-3.043030261993408,4.733336925506592,5.863399982452393,-130.6915283203125,124.4964599609375,178.0548095703125
2.6499999,-2.8419175148010254,5.027823448181152,5.932831764221191,-83.1756591796875,92.620849609375,143.5394287109375
2.6699999,-2.583343744277954,4.8602294921875,6.7277069091796875,-211.212158203125,18.4783935546875,84.625244140625
2.6899999,-2.2409727573394775,4.467580318450928,7.51779317855835,-168.2281494140625,18.6767578125,63.9495849609375
2.7099999,-2.0159177780151367,3.847482204437256,8.10437297821045,-142.63916015625,41.9921875,40.9393310546875
2.7299999,-2.1475989818573,2.96162748336792,8.398859977722168,-202.8045654296875,71.3653564453125,38.360595703125
2.7499999,-2.346317768096924,1.9345149993896484,8.355764389038086,-226.8218994140625,84.7320556640625,75.6988525390625
2.7699999,-2.736572504043579,0.6033388376235962,8.42040729522705,-329.345703125,110.9466552734375,105.16357421875
2.7899999,-3.24414324760437,-0.6057330369949341,8.83939266204834,-500,123.443603515625,63.4307861328125
2.8099999,-3.5625722408294678,-1.987187385559082,9.516951560974121,-463.2720947265625,127.349853515625,74.981689453125
2.8299999,-4.185064792633057,-3.3662476539611816,9.983820915222168,-207.1990966796875,53.3905029296875,86.7156982421875
2.8499999,-4.173093795776367,-4.350264549255371,10.261548042297363,-49.2706298828125,17.822265625,36.5753173828125
2.8699999,-4.400542736053467,-5.1810526847839355,10.101137161254883,-121.4141845703125,47.7294921875,75.836181640625
2.8899999,-4.383783340454102,-5.643133640289307,9.660603523254395,-33.4930419921875,68.7713623046875,131.6375732421875
2.9099999,-4.649539470672607,-5.621585369110107,9.907206535339355,-82.244873046875,57.281494140625,45.2728271484375
2.9299999,-4.824316501617432,-5.2049946784973145,9.75397777557373,90.6219482421875,15.7928466796875,-46.44775390625
2.9499999,-4.975151062011719,-4.534617900848389,9.72285270690918,176.3153076171875,-107.5286865234375,51.3763427734375
2.9699999,-4.8937482833862305,-3.4739866256713867,8.875306129455566,129.791259765625,-156.18896484375,108.734130859375
2.9899999,-4.3191399574279785,-2.5905263423919678,7.65186882019043,107.818603515625,-105.04150390625,95.733642578125
3.0099999,-3.8738183975219727,-2.1045033931732178,6.260837554931641,65.36865234375,-57.2052001953125,82.550048828125
3.0299999,-3.047818660736084,-2.0398597717285156,5.372588634490967,19.6075439453125,45.623779296875,30.1971435546875
3.0499999,-2.6192567348480225,-2.31758713722229,5.106832027435303,25.299072265625,76.2786865234375,-28.3966064453125
3.0699999,-2.207453966140747,-2.5689783096313477,5.348646640777588,118.95751953125,83.953857421875,-95.550537109375
3.0899999,-2.212242364883423,-2.695871114730835,6.04775333404541,27.2216796875,116.7449951171875,-157.2113037109375
3.1099999,-2.540247917175293,-2.3918075561523438,6.63433313369751,22.5067138671875,154.327392578125,-179.0771484375
3.1299999,-3.071760892868042,-1.802833914756775,7.304709434509277,-6.2103271484375,184.4635009765625,-171.3409423828125
3.1499999,-3.7900211811065674,-1.0079588890075684,7.8745293617248535,17.9595947265625,190.36865234375,-130.0506591796875
3.1699999,-4.707000732421875,0.011971008032560349,8.808267593383789,-31.2042236328125,145.2484130859375,-65.887451171875
3.1899999,-5.3342814445495605,0.4429273009300232,9.792284965515137,-84.3353271484375,38.2080078125,25.8636474609375
3.2099999,-5.805939197540283,0.6584054827690125,10.508151054382324,118.3624267578125,-30.8990478515625,65.3533935546875
3.2299999,-5.856217384338379,0.1412578970193863,10.398017883300781,207.4432373046875,-67.2454833984375,77.7740478515625
3.2499999,-5.47075080871582,-0.8403648138046265,8.810662269592285,110.748291015625,-36.4837646484375,24.10888671875
3.2699999,-5.018246650695801,-1.580173134803772,7.307103633880615,-39.5050048828125,91.7510986328125,-48.828125
3.2899999,-4.596867084503174,-2.3319525718688965,5.762843608856201,-27.374267578125,112.2589111328125,-57.8155517578125
3.3099999,-4.273650169372559,-2.6024973392486572,5.449203014373779,25.054931640625,77.8656005859375,-67.7947998046875
3.3299999000000002,-4.503493309020996,-2.5953147411346436,5.932831764221191,48.4161376953125,58.7005615234375,-82.45849609375
3.3499999,-5.023035049438477,-2.209848165512085,6.744466304779053,29.11376953125,73.9593505859375,-90.7745361328125
3.3699999,-5.578489780426025,-1.4987702369689941,7.168240070343018,76.0345458984375,81.8634033203125,-23.193359375
3.3899999,-6.179434776306152,-0.5889736413955688,7.29034423828125,64.2852783203125,61.767578125,30.853271484375
3.4099999,-6.655880928039551,0.2346317619085312,7.340622425079346,-44.73876953125,90.484619140625,24.84130859375
3.4299999,-7.237671852111816,0.6823474764823914,7.1921820640563965,-0.8087158203125,94.696044921875,30.57861328125
3.4499999,-8.015787124633789,0.6847416758537292,7.084442615509033,153.778076171875,57.67822265625,36.62109375
3.4699999,-8.860940933227539,0.38067805767059326,7.285555839538574,98.6785888671875,83.404541015625,31.8756103515625
3.4899999,-9.579200744628906,-0.08858546614646912,7.3023152351379395,90.2557373046875,142.730712890625,-5.950927734375
3.5099999,-9.952696800231934,-0.24420857429504395,7.838616371154785,66.95556640625,160.736083984375,-22.979736328125
3.5299999,-10.067618370056152,-0.13168109953403473,8.825027465820312,-74.371337890625,102.8900146484375,-36.834716796875
3.5499999,-9.787496566772461,0.21547815203666687,9.950302124023438,33.294677734375,55.96923828125,28.6865234375
3.5699999,-9.287108421325684,0.6943184733390808,10.757147789001465,136.0015869140625,31.524658203125,63.78173828125
3.5899999,-8.327033042907715,0.9265560507774353,10.72602367401123,117.0654296875,31.9976806640625,77.2552490234375
3.6099999,-7.3885064125061035,0.8595184087753296,9.864110946655273,55.8319091796875,42.633056640625,87.95166015625
3.6299999,-6.581660270690918,0.43335050344467163,8.647856712341309,-5.3253173828125,58.074951171875,84.8236083984375
3.6499999,-6.217741966247559,-0.1173158809542656,7.7763671875,-49.74365234375,60.60791015625,47.8363037109375
3.6699999,-6.430825710296631,-0.37828385829925537,7.180211067199707,-53.619384765625,35.9344482421875,-8.3160400390625
3.6899999,-6.876147270202637,-0.26096799969673157,6.868964672088623,-3.35693359375,15.655517578125,1.251220703125
3.7099999,-7.50582218170166,0.3495534360408783,6.682217121124268,-45.22705078125,26.1993408203125,26.3824462890625
3.7299999,-8.061277389526367,1.0893617868423462,6.670246124267578,-81.939697265625,31.2042236328125,24.871826171875
3.7499999,-8.346187591552734,1.3982137441635132,6.756437301635742,-26.1077880859375,-5.79833984375,32.9132080078125
3.7699999,-8.449137687683105,1.4772224426269531,6.555324077606201,88.4246826171875,-70.1904296875,25.5279541015625
3.7899999,-8.453926086425781,1.4053963422775269,6.038176536560059,80.62744140625,-53.0548095703125,11.932373046875
3.8099999,-8.322244644165039,1.37906014919281,5.22175407409668,-20.263671875,20.965576171875,16.0064697265625
3.8299999000000002,-8.200140953063965,1.6089035272598267,4.58968448638916,-42.6483154296875,37.689208984375,19.317626953125
3.8499999,-8.190564155578613,1.8962076902389526,4.551377296447754,-2.4261474609375,12.237548828125,-0.518798828125
3.8699999,-8.17380428314209,2.1332337856292725,4.642356872558594,55.328369140625,-7.9498291015625,2.3651123046875
3.8899999,-8.267178535461426,2.2912509441375732,4.654327869415283,-4.8980712890625,29.5562744140625,10.8795166015625
3.9099999,-8.422801971435547,2.31758713722229,4.659116744995117,-124.5269775390625,89.9200439453125,10.772705078125
3.9299999,-8.44195556640625,2.1164743900299072,4.788403511047363,-130.3253173828125,108.0322265625,8.2550048828125
3.9499999,-8.4108304977417,1.9967641830444336,5.343858242034912,-89.0350341796875,74.4781494140625,-24.139404296875
3.9699999,-8.394071578979492,1.659181833267212,6.22731876373291,-34.393310546875,19.3023681640625,-22.1710205078125
3.9899999,-8.372523307800293,1.4173674583435059,7.204153060913086,31.341552734375,-10.467529296875,-11.627197265625
4.0099999,-8.525752067565918,1.3024457693099976,7.8314337730407715,132.049560546875,-65.948486328125,-20.7366943359375
4.029999900000001,-8.738836288452148,1.3934253454208374,8.216899871826172,208.282470703125,-91.9342041015625,-28.2745361328125
4.0499999,-9.014169692993164,1.7956513166427612,8.255207061767578,196.3348388671875,-105.77392578125,-9.3841552734375
4.069999900000001,-9.2033109664917,2.6431987285614014,8.04691219329834,157.257080078125,-117.5079345703125,8.8043212890625
4.0899999000000005,-9.289502143859863,3.557783842086792,7.649474620819092,159.9578857421875,-135.6048583984375,-3.173828125
4.1099999,-9.097966194152832,4.431667327880859,7.467514991760254,190.9637451171875,-231.9183349609375,-31.3720703125
4.1299999000000005,-8.949525833129883,5.092466831207275,7.062894821166992,166.7938232421875,-212.3565673828125,20.111083984375
4.1499999,-8.705317497253418,5.485116004943848,6.89530086517334,92.5445556640625,-187.042236328125,61.82861328125
4.1699999000000005,-8.449137687683105,5.779603004455566,6.801927089691162,46.9970703125,-216.1407470703125,66.558837890625
4.1899999,-7.975085735321045,6.143521785736084,6.782773494720459,46.600341796875,-236.419677734375,89.53857421875
4.209999900000001,-7.180211067199707,6.277596950531006,7.158663272857666,14.9993896484375,-198.089599609375,108.123779296875
4.2299999,-5.925649166107178,6.172252178192139,7.948749542236328,-48.4771728515625,-201.019287109375,107.9559326171875
4.249999900000001,-4.568136692047119,5.92325496673584,8.56645393371582,-61.09619140625,-225.1129150390625,128.4027099609375
4.2699999,-3.2848446369171143,5.386953830718994,9.21288776397705,-102.0355224609375,-203.3538818359375,144.866943359375
4.289999900000001,-2.094926595687866,5.303156852722168,9.418789863586426,-159.9884033203125,-218.07861328125,138.9007568359375
4.3099999,-1.290474772453308,5.322310447692871,9.133879661560059,-117.9046630859375,-263.36669921875,100.7537841796875
4.329999900000001,-0.8212111592292786,5.5760955810546875,8.391676902770996,-8.2855224609375,-328.9794921875,33.5693359375
4.3499999,-0.40701428055763245,5.808333396911621,7.69735860824585,19.2108154296875,-306.6558837890625,11.0626220703125
4.369999900000001,-0.22026655077934265,5.791574001312256,7.082048416137695,78.0029296875,-226.13525390625,1.556396484375
4.3899999,0.021547814831137657,5.7987565994262695,6.665457725524902,99.6246337890625,-185.05859375,43.9300537109375
4.409999900000001,0.395043283700943,5.762843608856201,6.512228488922119,36.712646484375,-175.47607421875,98.663330078125
4.4299999,0.7757213711738586,5.669469833374023,6.44279670715332,21.484375,-145.6451416015625,122.0855712890625
4.449999900000001,1.1276689767837524,5.600037574768066,6.3518171310424805,78.887939453125,-87.5244140625,132.99560546875
4.4699999,1.4508862495422363,5.453991413116455,6.3063273429870605,94.3145751953125,-62.4847412109375,127.8839111328125
4.489999900000001,1.7142484188079834,5.293580055236816,6.382941722869873,69.5648193359375,-75.0885009765625,92.0257568359375
4.5099999,1.821987509727478,5.171475887298584,6.354211330413818,55.8013916015625,-67.6422119140625,80.9478759765625
4.529999900000001,1.9632453918457031,5.149928092956543,6.251260757446289,53.741455078125,-58.3038330078125,71.9451904296875
4.5499999,2.070984363555908,5.0876784324646,6.121973514556885,29.1290283203125,-55.8013916015625,73.05908203125
4.569999900000001,2.2242133617401123,4.920084476470947,6.00226354598999,-22.9949951171875,-55.11474609375,123.2147216796875
4.5899999000000005,2.5785553455352783,4.697423934936523,6.04775333404541,-60.5926513671875,-51.2847900390625,181.8084716796875
4.609999900000001,2.920926094055176,4.448426723480225,6.110002517700195,-29.35791015625,-45.989990234375,182.8765869140625
4.6299999000000005,3.205836057662964,4.230554580688477,6.100425720214844,-1.678466796875,-34.881591796875,94.696044921875
4.6499999,3.648763418197632,4.144362926483154,6.030993938446045,-17.852783203125,-30.609130859375,-13.671875
4.6699999000000005,3.8163576126098633,3.8522706031799316,5.942408561706543,-26.123046875,-16.2811279296875,6.3934326171875
4.6899999,3.952826976776123,3.4548330307006836,5.825092792510986,-12.5885009765625,6.4239501953125,70.4803466796875
4.709999900000001,4.02465295791626,2.7916390895843506,5.892130374908447,-10.345458984375,17.0440673828125,89.7979736328125
4.7299999,3.995922565460205,2.054224967956543,5.990292549133301,-26.031494140625,17.852783203125,107.208251953125
4.749999900000001,4.1611223220825195,1.4221558570861816,6.270414352416992,-11.383056640625,12.298583984375,131.53076171875
4.7699999,4.431667327880859,1.2521674633026123,6.48828649520874,30.0140380859375,-3.3111572265625,77.850341796875
4.789999900000001,4.656722068786621,1.2737152576446533,6.868964672088623,39.3829345703125,25.634765625,-0.091552734375
4.8099999,4.63517427444458,1.7381904125213623,7.141903877258301,43.6553955078125,60.36376953125,-16.7999267578125
4.829999900000001,4.364629745483398,2.188300371170044,7.486668586730957,54.931640625,59.539794921875,-25.9246826171875
4.8499999,3.84269380569458,2.2577321529388428,7.845798969268799,76.019287109375,56.7169189453125,-61.09619140625
4.869999900000001,3.600879430770874,2.5067291259765625,8.307879447937012,136.2152099609375,99.3499755859375,-121.5362548828125
4.8899999,3.313575267791748,2.6001031398773193,8.614337921142578,120.0103759765625,91.033935546875,-106.3232421875
4.909999900000001,3.1459810733795166,3.023876667022705,8.803479194641113,86.4105224609375,56.5185546875,-30.70068359375
4.9299999,2.9712042808532715,3.9169139862060547,8.664615631103516,97.2442626953125,31.2957763671875,-10.284423828125
4.949999900000001,2.920926094055176,4.793191909790039,8.446743965148926,66.0552978515625,27.9693603515625,4.21142578125
4.9699999,3.095702886581421,5.635950565338135,8.26478385925293,55.4962158203125,67.626953125,17.4102783203125
4.989999900000001,3.5865142345428467,6.150704383850098,8.288725852966309,55.2520751953125,71.4111328125,23.5748291015625
5.0099999,4.19224739074707,6.294356346130371,8.506598472595215,51.6204833984375,67.7032470703125,14.0228271484375
5.029999900000001,4.738125324249268,6.13633918762207,8.75080680847168,41.4276123046875,62.4847412109375,1.6937255859375
5.0499999,5.07570743560791,5.980715751647949,8.880094528198242,46.4935302734375,46.2799072265625,13.275146484375
5.069999900000001,5.17626428604126,5.932831764221191,8.884882926940918,60.85205078125,52.1392822265625,35.2630615234375
5.0899999000000005,4.886565685272217,5.966350555419922,8.779537200927734,36.956787109375,64.27001953125,67.352294921875
5.109999900000001,4.616020679473877,5.940014362335205,8.698134422302246,-20.0347900390625,26.336669921875,101.1962890625
5.1299999000000005,4.651933670043945,5.374982833862305,8.803479194641113,-36.407470703125,-75.714111328125,41.229248046875
5.1499999,4.920084476470947,4.764461517333984,8.844181060791016,33.5693359375,-151.4129638671875,-20.5078125
5.1699999000000005,5.590460777282715,4.129997730255127,8.825027465820312,29.96826171875,-211.822509765625,12.0391845703125
5.1899999,6.291962146759033,3.955221176147461,8.432378768920898,15.7470703125,-266.3116455078125,35.400390625
5.209999900000001,6.6391215324401855,4.316745758056641,7.750030994415283,35.64453125,-270.4620361328125,-14.34326171875
5.2299999,6.89530086517334,4.76924991607666,6.888118267059326,34.912109375,-204.9560546875,-42.755126953125
5.249999900000001,7.000645637512207,5.157110691070557,6.110002517700195,34.2559814453125,-146.240234375,-10.8489990234375
5.2699999,7.041347026824951,5.324704647064209,5.468356609344482,24.1546630859375,-166.259765625,41.5496826171875
5.289999900000001,7.146692276000977,5.2480902671813965,4.9368438720703125,17.3187255859375,-232.0404052734375,81.6497802734375
5.3099999,7.242460250854492,5.0876784324646,4.376600742340088,37.872314453125,-219.482421875,75.6683349609375
5.329999900000001,7.532158374786377,4.764461517333984,3.84269380569458,44.9676513671875,-184.2498779296875,61.03515625
5.3499999,8.022970199584961,4.405331134796143,3.227383852005005,50.7049560546875,-156.8450927734375,56.243896484375
5.369999900000001,8.702922821044922,4.185064792633057,2.6192567348480225,28.472900390625,-178.2379150390625,47.332763671875
5.3899999,9.41400146484375,3.8977603912353516,2.0590133666992188,-70.6329345703125,-203.5980224609375,37.78076171875
5.409999900000001,9.907206535339355,3.7229835987091064,1.7621324062347412,-122.2686767578125,-185.2569580078125,31.7535400390625
5.4299999,10.182539939880371,3.383007049560547,1.5418659448623657,-91.339111328125,-165.863037109375,55.877685546875
5.449999900000001,10.141838073730469,3.004723072052002,1.455674648284912,-83.221435546875,-119.0032958984375,37.017822265625
5.4699999,9.923966407775879,2.87064790725708,1.3192051649093628,-97.198486328125,-85.6170654296875,-22.491455078125
5.489999900000001,9.86650562286377,2.9089550971984863,0.5530605912208557,-73.944091796875,-77.6824951171875,-25.6500244140625
5.5099999,9.493009567260742,3.3423056602478027,-0.15801730751991272,-122.9705810546875,-109.6649169921875,-60.1654052734375
5.529999900000001,9.057265281677246,3.8786067962646484,-0.9097966551780701,-170.4254150390625,-121.4447021484375,-94.66552734375
5.5499999,8.628703117370605,4.4508209228515625,-1.3670891523361206,-95.39794921875,-83.3740234375,-51.2237548828125
5.569999900000001,8.180987358093262,4.869806289672852,-1.50355863571167,-19.805908203125,-54.2755126953125,-20.6451416015625
5.5899999000000005,7.881711959838867,5.374982833862305,-1.4053963422775269,-19.5465087890625,-59.9822998046875,-42.022705078125
5.609999900000001,7.709329605102539,5.78678560256958,-1.3623007535934448,-58.7158203125,-71.5179443359375,-48.9501953125
5.6299999000000005,7.493851184844971,6.234501361846924,-1.2737152576446533,-62.6373291015625,-36.9110107421875,-65.5364990234375
5.6499999,7.297526836395264,6.670246124267578,-1.2282254695892334,-42.6788330078125,-29.96826171875,-58.441162109375
5.6699999000000005,6.914454460144043,7.314286231994629,-1.1994950771331787,-17.6239013671875,-48.1109619140625,-47.8515625
5.6899999,6.358999729156494,8.142680168151855,-1.0630255937576294,-5.706787109375,-34.149169921875,-50.47607421875
5.709999900000001,5.616796970367432,9.0859956741333,-0.9361328482627869,42.8314208984375,7.1868896484375,-13.2904052734375
5.7299999,4.797980308532715,9.840168952941895,-0.6153098344802856,75.286865234375,32.3486328125,33.50830078125
5.749999900000001,4.321534156799316,10.120290756225586,-0.42616790533065796,123.9166259765625,38.5284423828125,48.03466796875
5.7699999,4.266467571258545,10.012551307678223,-0.27054479718208313,160.5072021484375,44.1436767578125,27.9388427734375
5.789999900000001,4.668693542480469,9.442731857299805,-0.3280056416988373,149.10888671875,41.0308837890625,27.496337890625
5.8099999,5.240907669067383,8.7268648147583,-0.4812345504760742,133.1939697265625,39.00146484375,22.8424072265625
5.829999900000001,5.789179801940918,7.879317760467529,-0.6967126727104187,128.1890869140625,28.3050537109375,18.3868408203125
5.8499999,6.145915985107422,6.983886241912842,-0.9600749015808105,174.2706298828125,27.8778076171875,18.157958984375
5.869999900000001,6.248866558074951,6.18182897567749,-1.1779472827911377,222.1832275390625,54.13818359375,-7.171630859375
5.8899999,6.208165168762207,5.363011837005615,-1.4221558570861816,230.2398681640625,76.35498046875,-27.4505615234375
5.909999900000001,6.18182897567749,4.537012100219727,-1.6735470294952393,234.9853515625,76.2176513671875,-20.2178955078125
5.9299999,6.303933143615723,3.8283286094665527,-2.0254945755004883,244.5831298828125,69.854736328125,-5.8135986328125
5.949999900000001,6.495469093322754,3.3207578659057617,-2.31758713722229,201.507568359375,59.906005859375,-23.3306884765625
5.9699999,6.842628479003906,3.021482467651367,-2.5067291259765625,153.3660888671875,64.0869140625,-49.9420166015625
5.989999900000001,7.398083209991455,2.8395233154296875,-2.4875755310058594,181.8695068359375,78.1402587890625,-31.707763671875
6.0099999,8.17141056060791,2.671929121017456,-2.250549554824829,209.075927734375,71.6705322265625,13.9617919921875
6.029999900000001,9.167398452758789,2.4875755310058594,-1.9345149993896484,179.2755126953125,74.371337890625,11.3525390625
6.0499999,10.170568466186523,2.5258827209472656,-1.6543933153152466,147.94921875,100.006103515625,-29.96826171875
6.069999900000001,11.015722274780273,2.892195701599121,-1.525106430053711,137.3138427734375,119.2779541015625,-74.8138427734375
6.0899999000000005,11.552022933959961,3.5410242080688477,-1.4628572463989258,110.4278564453125,122.55859375,-118.2861328125
6.109999900000001,11.767500877380371,4.364629745483398,-1.3718775510787964,75.225830078125,101.0589599609375,-129.9591064453125
6.1299999000000005,11.75792407989502,5.116408824920654,-1.2497732639312744,72.235107421875,65.36865234375,-81.35986328125
6.149999900000001,11.4849853515625,5.635950565338135,-0.9959878921508789,92.5140380859375,64.4989013671875,-41.50390625
6.1699999000000005,11.142614364624023,5.805939197540283,-0.811634361743927,64.9871826171875,66.6656494140625,-58.77685546875
6.1899999,10.699687004089355,5.748478412628174,-0.6440402865409851,-5.5999755859375,67.1844482421875,-98.5565185546875
6.209999900000001,10.309432983398438,5.540182590484619,-0.5171475410461426,-27.7862548828125,82.0770263671875,-107.6812744140625
6.2299999,9.962273597717285,5.372588634490967,-0.5578489899635315,11.7645263671875,77.8350830078125,-102.569580078125
6.249999900000001,9.610325813293457,5.279214859008789,-0.5003881454467773,27.801513671875,53.558349609375,-103.8970947265625
6.2699999,9.220070838928223,5.327098846435547,-0.49799394607543945,41.9158935546875,24.444580078125,-71.563720703125
6.289999900000001,8.765172004699707,5.461174011230469,-0.3998316824436188,73.1964111328125,24.4293212890625,-40.2069091796875
6.3099999,8.286332130432129,5.547365188598633,-0.19153612852096558,95.8404541015625,26.123046875,-48.736572265625
6.329999900000001,7.762001991271973,5.580883979797363,0.14844051003456116,87.9364013671875,14.8162841796875,-84.625244140625
6.3499999,7.173028469085693,5.542576789855957,0.5147533416748047,76.35498046875,0.9918212890625,-92.376708984375
6.369999900000001,6.528987884521484,5.276820659637451,1.0414776802062988,54.5196533203125,-4.8675537109375,-60.7757568359375
6.3899999,6.009446144104004,4.934449672698975,1.53707754611969,42.2210693359375,13.763427734375,-15.0909423828125
6.409999900000001,5.781997203826904,4.481945514678955,1.8842366933822632,75.103759765625,38.0706787109375,21.148681640625
6.4299999,5.808333396911621,3.9169139862060547,2.1308395862579346,82.33642578125,54.19921875,30.670166015625
6.449999900000001,6.030993938446045,3.4955344200134277,2.1284453868865967,33.3709716796875,19.6380615234375,4.94384765625
6.4699999,6.232107162475586,3.1531636714935303,2.0446481704711914,19.073486328125,15.7012939453125,-12.3291015625
6.489999900000001,6.519411087036133,2.9448680877685547,1.9057846069335938,10.8642578125,22.2930908203125,-15.6707763671875
6.5099999,6.88332986831665,2.631227731704712,1.9057846069335938,-15.472412109375,14.2822265625,18.951416015625
6.529999900000001,7.364564418792725,2.3918075561523438,1.9512743949890137,-45.0286865234375,4.791259765625,29.1900634765625
6.5499999,7.90086555480957,2.2409727573394775,2.075772762298584,-68.4967041015625,-4.425048828125,18.1121826171875
6.569999900000001,8.461109161376953,2.2002713680267334,2.126051187515259,-99.12109375,-25.5279541015625,8.148193359375
6.5899999000000005,9.07641887664795,2.3319525718688965,2.1930887699127197,-140.5181884765625,-40.252685546875,-20.0653076171875
6.609999900000001,9.636661529541016,2.513911724090576,2.4588451385498047,-153.99169921875,-31.9976806640625,-26.7333984375
6.6299999000000005,10.04846477508545,2.8826189041137695,2.918531894683838,-145.8892822265625,-11.627197265625,-21.66748046875
6.649999900000001,10.290278434753418,3.3710360527038574,3.4548330307006836,-162.200927734375,1.28173828125,-22.0947265625
6.6699999000000005,10.335768699645996,4.094084739685059,3.8307228088378906,-179.3975830078125,-2.197265625,-63.4613037109375
6.6899999,10.278307914733887,4.812345504760742,3.998316764831543,-192.07763671875,-22.5677490234375,-134.3536376953125
6.709999900000001,9.983820915222168,5.521028995513916,4.084507942199707,-215.8050537109375,-56.5185546875,-167.1142578125
6.7299999,9.533711433410645,6.217741966247559,4.206612586975098,-218.780517578125,-76.568603515625,-125.701904296875
6.749999900000001,8.844181060791016,7.015010833740234,4.553771495819092,-224.456787109375,-85.418701171875,-99.8382568359375
6.7699999,8.238448143005371,7.824251174926758,4.927267074584961,-228.8360595703125,-88.409423828125,-123.2147216796875
6.789999900000001,7.666234016418457,8.508993148803711,5.360617637634277,-240.081787109375,-93.1549072265625,-175.5523681640625
6.8099999,7.110779285430908,8.949525833129883,5.726930618286133,-232.5897216796875,-97.71728515625,-186.9659423828125
6.829999900000001,6.426037311553955,9.059659004211426,5.983109951019287,-210.63232421875,-109.86328125,-147.247314453125
6.8499999,5.367800235748291,9.074024200439453,6.052541732788086,-176.0711669921875,-128.1890869140625,-130.6610107421875
6.869999900000001,4.185064792633057,8.884882926940918,5.8657941818237305,-114.5172119140625,-130.9051513671875,-106.99462890625
6.8899999,2.8155810832977295,8.552088737487793,5.609614372253418,-76.5380859375,-121.917724609375,-88.8214111328125
6.909999900000001,1.802833914756775,8.020575523376465,5.324704647064209,-70.80078125,-102.96630859375,-43.39599609375
6.9299999,1.2306196689605713,7.445967197418213,5.04218864440918,-66.58935546875,-75.98876953125,-2.9449462890625
6.949999900000001,1.0606313943862915,6.97430944442749,4.8267107009887695,-74.9359130859375,-126.1444091796875,-61.370849609375
6.9699999,1.015141487121582,6.763619899749756,4.525041103363037,-76.568603515625,-114.501953125,-93.7652587890625
6.989999900000001,0.8212111592292786,6.919242858886719,4.098873138427734,-84.65576171875,-73.73046875,-62.3931884765625
7.0099999,0.28969839215278625,7.668628215789795,3.4548330307006836,-61.3555908203125,-24.4903564453125,60.9893798828125
7.029999900000001,-0.023942016065120697,8.899248123168945,2.4899697303771973,14.95361328125,39.581298828125,237.548828125
7.0499999,0.2346317619085312,10.417171478271484,1.3407529592514038,28.411865234375,104.1717529296875,282.4249267578125
7.069999900000001,1.3287819623947144,11.760318756103516,0.1628057211637497,-17.39501953125,120.1019287109375,203.2623291015625
7.0899999000000005,2.827552318572998,12.588712692260742,-0.7110779285430908,-35.736083984375,88.9892578125,115.0665283203125
7.109999900000001,4.252102375030518,12.854469299316406,-1.139639973640442,-26.8402099609375,74.005126953125,96.4508056640625
7.1299999000000005,5.319916248321533,12.87362289428711,-1.0319008827209473,-4.94384765625,91.9647216796875,163.9404296875
7.149999900000001,5.944802761077881,12.85207462310791,-0.629675030708313,24.0478515625,110.565185546875,188.446044921875
7.1699999000000005,6.332663536071777,12.576741218566895,0.07182604819536209,0.6103515625,138.580322265625,103.118896484375
7.1899999,6.588842868804932,12.107478141784668,0.9313444495201111,0.5645751953125,142.27294921875,63.1866455078125
7.209999900000001,6.619967937469482,11.537657737731934,1.9584569931030273,49.1943359375,135.2691650390625,128.1890869140625
7.2299999,6.751648902893066,10.893617630004883,3.1675288677215576,84.6099853515625,125.732421875,202.94189453125
7.249999900000001,7.2568254470825195,10.261548042297363,4.376600742340088,84.77783203125,86.24267578125,202.2247314453125
7.2699999,8.159439086914062,9.782708168029785,5.386953830718994,82.672119140625,38.3758544921875,146.0723876953125
7.289999900000001,9.272743225097656,9.385271072387695,6.150704383850098,109.161376953125,11.260986328125,81.11572265625
7.3099999,10.005369186401367,9.097966194152832,6.66785192489624,154.60205078125,35.6597900390625,52.9022216796875
7.329999900000001,9.979032516479492,8.987833023071289,7.086836814880371,190.6585693359375,54.9774169921875,97.198486328125
7.3499999,9.311050415039062,8.7484130859375,7.572859764099121,189.483642578125,48.614501953125,167.022705078125
7.369999900000001,8.159439086914062,8.2312650680542,8.092401504516602,183.2122802734375,66.95556640625,184.38720703125
7.3899999,6.979097843170166,7.508216381072998,8.554482460021973,181.640625,58.28857421875,173.2177734375
7.409999900000001,6.01423454284668,6.71334171295166,8.865729331970215,187.0269775390625,39.5050048828125,159.0423583984375
7.4299999,5.374982833862305,5.899312973022461,9.023746490478516,198.18115234375,29.60205078125,137.4359130859375
7.449999900000001,5.044582843780518,5.085284233093262,9.057265281677246,193.695068359375,12.451171875,118.255615234375
7.4699999,4.836287498474121,4.335899353027344,8.951920509338379,178.1158447265625,2.349853515625,118.2403564453125
7.489999900000001,4.60165548324585,3.73016619682312,8.702922821044922,155.4412841796875,6.5765380859375,135.772705078125
7.5099999,4.28322696685791,3.3063924312591553,8.312667846679688,135.4827880859375,14.312744140625,141.5252685546875
7.529999900000001,3.864241600036621,3.0573954582214355,7.82185697555542,135.4827880859375,15.228271484375,119.3695068359375
7.5499999,3.3949780464172363,2.87064790725708,7.292738437652588,141.4947509765625,19.6685791015625,92.5445556640625
7.569999900000001,2.8658595085144043,2.6431987285614014,6.821080684661865,137.3138427734375,51.544189453125,95.7794189453125
7.5899999000000005,2.4229321479797363,2.4205379486083984,6.440402507781982,131.0882568359375,88.165283203125,142.3492431640625
7.609999900000001,2.0805611610412598,2.126051187515259,6.2201361656188965,116.14990234375,108.306884765625,151.458740234375
7.6299999000000005,1.8363527059555054,1.723825216293335,6.169857978820801,89.0045166015625,93.6737060546875,108.1085205078125
7.649999900000001,1.6304513216018677,1.1228805780410767,6.289567947387695,55.419921875,77.4993896484375,97.9461669921875
7.6699999000000005,1.45806884765625,0.43335050344467163,6.53377628326416,34.97314453125,94.3145751953125,126.7852783203125
7.6899999,1.335964560508728,-0.272938996553421,6.94079065322876,12.9241943359375,114.349365234375,111.4349365234375
7.709999900000001,1.3335703611373901,-0.9193734526634216,7.469909191131592,-16.41845703125,124.725341796875,36.5142822265625
7.7299999,1.3862427473068237,-1.4197616577148438,8.094796180725098,-31.3720703125,116.5924072265625,-43.670654296875
7.749999900000001,1.3623007535934448,-1.721431016921997,8.688557624816895,-35.736083984375,91.2628173828125,-96.099853515625
7.7699999,1.3311761617660522,-1.7764976024627686,9.253589630126953,-44.8455810546875,73.1201171875,-106.0028076171875
7.789999900000001,1.5514427423477173,-1.6184803247451782,9.890447616577148,-63.7359619140625,58.3038330078125,-104.217529296875
7.8099999,1.9704279899597168,-1.2617442607879639,10.735600471496582,-68.1915283203125,25.0396728515625,-160.4156494140625
7.829999900000001,2.4612393379211426,-0.667982280254364,11.662156105041504,-66.7266845703125,-4.0435791015625,-271.2554931640625
7.8499999,2.9041666984558105,0.019153613597154617,12.51209831237793,-109.0545654296875,8.6212158203125,-380.31005859375
7.869999900000001,3.0621838569641113,0.9481038451194763,12.988544464111328,-133.4075927734375,23.01025390625,-440.5059814453125
7.8899999,2.964021682739258,1.987187385559082,13.072340965270996,-114.5477294921875,-17.15087890625,-483.5357666015625
7.909999900000001,2.477998733520508,3.138798475265503,12.720393180847168,-79.6356201171875,-84.1827392578125,-500
7.9299999,1.4413094520568848,4.517858505249023,11.930307388305664,-46.2799072265625,-121.03271484375,-500
7.949999900000001,-0.05746084079146385,6.1267619132995605,10.69489860534668,-36.407470703125,-115.631103515625,-473.5260009765625
7.9699999,-1.6759412288665771,7.797914981842041,9.21288776397705,-46.32568359375,-96.4202880859375,-357.2845458984375
7.989999900000001,-2.853888511657715,9.315838813781738,7.778761386871338,-41.19873046875,-84.65576171875,-280.5328369140625
8.0099999,-3.397372245788574,10.311826705932617,6.675034523010254,-31.402587890625,-98.5260009765625,-226.593017578125
8.0299999,-3.205836057662964,10.800244331359863,6.052541732788086,-29.4647216796875,-93.2159423828125,-174.9114990234375
8.049999900000001,-2.6240451335906982,10.884040832519531,5.633556365966797,7.415771484375,-113.433837890625,-179.3212890625
8.069999900000001,-1.8962076902389526,10.771512985229492,5.343858242034912,45.22705078125,-203.2470703125,-185.028076171875
8.0899999,-1.2689268589019775,10.69489860534668,5.008669853210449,61.4776611328125,-185.3485107421875,-182.4798583984375
8.1099999,-0.9888052940368652,10.529699325561523,4.570530891418457,16.7999267578125,-90.7135009765625,-169.1741943359375
8.129999900000001,-1.0127472877502441,10.362105369567871,4.098873138427734,-28.106689453125,-61.4776611328125,-124.6490478515625
8.149999900000001,-1.3000515699386597,10.187328338623047,3.5458126068115234,-24.0631103515625,-81.4666748046875,-100.15869140625
8.1699999,-1.6927006244659424,9.99339771270752,2.9688100814819336,-11.810302734375,-81.1004638671875,-91.7205810546875
8.1899999,-1.9943699836730957,9.890447616577148,2.5234885215759277,-25.3143310546875,-62.6220703125,-65.338134765625
8.2099999,-2.0829553604125977,9.916783332824707,2.2840683460235596,-28.228759765625,-43.9910888671875,-43.3349609375
8.229999900000001,-1.98958158493042,9.96945571899414,2.2840683460235596,-16.1895751953125,-29.11376953125,-32.3028564453125
8.2499999,-1.656787633895874,10.046070098876953,2.5522189140319824,-17.8680419921875,-9.7808837890625,-10.589599609375
8.2699999,-1.235408067703247,10.110713958740234,2.9688100814819336,-12.3443603515625,-9.9639892578125,13.671875
8.2899999,-0.8355764150619507,10.134655952453613,3.4404678344726562,6.4544677734375,-28.4423828125,18.218994140625
8.309999900000001,-0.49559974670410156,10.108319282531738,3.9264907836914062,24.200439453125,-30.731201171875,-2.227783203125
8.3299999,-0.3280056416988373,10.098742485046387,4.302380561828613,42.6177978515625,-30.364990234375,-26.5350341796875
8.3499999,-0.35434186458587646,10.146626472473145,4.513070106506348,48.3551025390625,-2.838134765625,-31.0821533203125
8.3699999,-0.4357447028160095,10.26394271850586,4.63517427444458,41.5191650390625,25.970458984375,-7.232666015625
8.389999900000001,-0.5722141861915588,10.414777755737305,4.881777286529541,39.4439697265625,23.9105224609375,25.0091552734375
8.4099999,-0.6607996821403503,10.596736907958984,5.3127336502075195,56.7169189453125,16.4947509765625,30.853271484375
8.4299999,-0.569819986820221,10.711658477783203,5.937620162963867,49.6826171875,36.5753173828125,31.06689453125
8.4499999,-0.19153612852096558,10.900800704956055,6.54574728012085,23.712158203125,66.7572021484375,36.9873046875
8.469999900000001,0.33518823981285095,11.113883972167969,6.904877662658691,15.838623046875,67.8863525390625,40.8935546875
8.4899999,0.7422025203704834,11.410765647888184,6.885724067687988,47.2869873046875,52.7496337890625,25.7110595703125
8.5099999,0.7733271718025208,11.611878395080566,6.631938934326172,73.028564453125,62.408447265625,33.1878662109375
8.5299999,0.2777273952960968,11.578359603881836,6.3063273429870605,74.0966796875,90.1641845703125,70.0836181640625
8.549999900000001,-0.5051765441894531,11.255142211914062,6.086060523986816,75.1190185546875,108.154296875,99.8077392578125
8.569999900000001,-1.1851298809051514,10.613495826721191,6.09324312210083,78.91845703125,118.560791015625,110.107421875
8.5899999,-1.522712230682373,9.835380554199219,6.210559368133545,85.3729248046875,118.6370849609375,103.3935546875
8.6099999,-1.4700398445129395,9.107542991638184,6.296750545501709,101.74560546875,110.9466552734375,89.4775390625
8.629999900000001,-1.091755986213684,8.643068313598633,6.2416839599609375,126.6326904296875,96.4508056640625,78.0181884765625
8.649999900000001,-0.3711012601852417,8.588001251220703,6.028599739074707,141.815185546875,80.13916015625,70.3277587890625
8.6699999,0.3519476354122162,8.614337921142578,5.861005783081055,124.6490478515625,73.2421875,72.7081298828125
8.6899999,0.9576807022094727,8.710105895996094,5.724536418914795,119.9951171875,63.446044921875,64.5599365234375
8.709999900000001,1.1635819673538208,8.573636054992676,5.671864032745361,115.6463623046875,59.356689453125,50.6439208984375
8.729999900000001,0.9313444495201111,8.094796180725098,5.669469833374023,88.8824462890625,81.817626953125,75.1953125
8.7499999,0.5746083855628967,7.5417351722717285,5.631162166595459,70.404052734375,85.2813720703125,111.8621826171875
8.7699999,0.35913026332855225,6.94079065322876,5.623979568481445,58.9141845703125,64.8040771484375,101.654052734375
8.7899999,0.5363011956214905,6.495469093322754,5.609614372253418,57.4951171875,33.8592529296875,69.061279296875
8.809999900000001,1.0295066833496094,6.294356346130371,5.559336185455322,72.052001953125,3.6468505859375,36.376953125
8.8299999,1.6400281190872192,6.2201361656188965,5.497087001800537,77.6214599609375,-8.23974609375,18.646240234375
8.8499999,2.0829553604125977,6.212953567504883,5.367800235748291,73.4710693359375,-13.7939453125,9.7198486328125
8.8699999,2.231395959854126,6.09324312210083,5.250484466552734,63.4002685546875,-16.082763671875,10.25390625
8.889999900000001,2.070984363555908,5.856217384338379,5.137956619262695,48.4771728515625,-13.24462890625,13.519287109375
8.9099999,1.7477672100067139,5.568912982940674,5.063736438751221,31.2652587890625,-14.7705078125,11.077880859375
8.9299999,1.5634137392044067,5.365406036376953,5.032611846923828,12.5732421875,-30.029296875,4.8675537109375
8.9499999,1.723825216293335,5.25527286529541,5.114014625549316,-11.3067626953125,-45.2728271484375,2.197265625
8.969999900000001,2.248155355453491,5.398924827575684,5.348646640777588,-29.8614501953125,-71.77734375,-14.556884765625
8.9899999,2.7772738933563232,5.700594425201416,5.767632007598877,-37.59765625,-90.4541015625,-38.26904296875
9.0099999,3.050212860107422,6.100425720214844,6.279991149902344,-59.783935546875,-103.3782958984375,-49.8504638671875
9.0299999,3.0406360626220703,6.596025466918945,6.744466304779053,-97.412109375,-105.438232421875,-47.9888916015625
9.049999900000001,2.9041666984558105,7.070077419281006,7.079654216766357,-122.49755859375,-104.156494140625,-40.924072265625
9.069999900000001,2.7700912952423096,7.55131196975708,7.204153060913086,-117.8131103515625,-143.280029296875,-61.0198974609375
9.0899999,2.559401512145996,8.075642585754395,7.117961883544922,-102.783203125,-190.97900390625,-105.0567626953125
9.1099999,2.097320795059204,8.588001251220703,6.950367450714111,-99.273681640625,-194.549560546875,-109.31396484375
9.129999900000001,1.50355863571167,9.097966194152832,6.785167694091797,-110.198974609375,-173.3245849609375,-73.4405517578125
9.149999900000001,1.0247182846069336,9.476250648498535,6.766014099121094,-122.25341796875,-170.3948974609375,-48.3551025390625
9.1699999,0.7374141216278076,9.77791976928711,6.825869083404541,-118.5455322265625,-202.5299072265625,-72.052001953125
9.1899999,0.5889736413955688,9.928754806518555,6.8378400802612305,-114.1510009765625,-226.9287109375,-116.3482666015625
9.209999900000001,0.16759411990642548,9.952696800231934,6.574477672576904,-115.386962890625,-225.311279296875,-136.5203857421875
9.229999900000001,-0.5482721924781799,9.837775230407715,6.004657745361328,-110.41259765625,-220.0775146484375,-127.5482177734375
9.2499999,-1.5298948287963867,9.591172218322754,5.2049946784973145,-92.71240234375,-211.395263671875,-106.3079833984375
9.2699999,-2.2840683460235596,9.2033109664917,4.501099109649658,-88.0584716796875,-173.126220703125,-64.208984375
9.2899999,-2.8419175148010254,8.762778282165527,3.9671921730041504,-94.451904296875,-127.349853515625,-43.304443359375
9.309999900000001,-3.026270866394043,8.379706382751465,3.6343982219696045,-95.611572265625,-113.7542724609375,-24.4903564453125
9.3299999,-2.918531894683838,8.142680168151855,3.4548330307006836,-94.8486328125,-80.108642578125,-6.927490234375
9.3499999,-2.6360161304473877,8.118738174438477,3.3207578659057617,-93.841552734375,-57.9681396484375,-10.7879638671875
9.3699999,-2.205059766769409,8.310274124145508,3.220201253890991,-86.97509765625,-42.4652099609375,-13.85498046875
9.389999900000001,-1.7310078144073486,8.700529098510742,3.1244332790374756,-74.70703125,-21.1181640625,14.4805908203125
9.4099999,-1.278503656387329,9.208099365234375,3.0526070594787598,-67.5811767578125,5.9051513671875,58.5479736328125
9.4299999,-0.8619126081466675,9.768342971801758,3.0310592651367188,-57.342529296875,28.9154052734375,80.963134765625
9.4499999,-0.3926490843296051,10.268731117248535,3.160346269607544,-45.3033447265625,32.77587890625,69.793701171875
9.469999900000001,0.10295066982507706,10.639832496643066,3.397372245788574,-37.384033203125,17.120361328125,30.059814453125
9.4899999,0.5482721924781799,10.848128318786621,3.6846764087677,-28.4881591796875,5.6610107421875,-1.8157958984375
9.5099999,0.8403648138046265,10.951078414916992,3.8810009956359863,-22.2015380859375,6.9732666015625,22.979736328125
9.5299999,0.9600749015808105,11.003750801086426,3.9049429893493652,-10.07080078125,23.37646484375,63.2781982421875
9.549999900000001,0.9672574996948242,11.099518775939941,3.955221176147461,12.786865234375,41.8243408203125,45.6390380859375
9.569999900000001,0.9481038451194763,11.233593940734863,4.156333923339844,31.67724609375,47.271728515625,7.6751708984375
9.5899999,1.280897855758667,11.305420875549316,4.570530891418457,13.8397216796875,52.5665283203125,25.0396728515625
9.6099999,2.027888774871826,11.384428977966309,5.054159641265869,-15.8538818359375,54.01611328125,63.04931640625
9.629999900000001,2.9903578758239746,11.578359603881836,5.260061264038086,-8.30078125,16.90673828125,63.7969970703125
9.649999900000001,3.7229835987091064,11.915942192077637,5.0469770431518555,27.03857421875,-17.8070068359375,30.731201171875
9.6699999,3.751713991165161,12.45463752746582,4.551377296447754,68.084716796875,-8.36181640625,29.9835205078125
9.6899999,3.112462282180786,12.895170211791992,4.1611223220825195,100.6622314453125,42.449951171875,85.7086181640625
9.709999900000001,2.3535003662109375,12.969390869140625,4.225766181945801,128.6163330078125,71.5484619140625,166.656494140625
9.729999900000001,2.032677173614502,12.557587623596191,4.764461517333984,144.1497802734375,78.857421875,225.1739501953125
9.7499999,2.403778553009033,11.774683952331543,5.592854976654053,147.918701171875,62.01171875,217.4072265625
9.7699999,3.1866824626922607,10.946290016174316,6.315904140472412,154.35791015625,27.8778076171875,165.740966796875
9.7899999,4.041412353515625,10.29746150970459,6.782773494720459,167.3126220703125,14.9993896484375,126.800537109375
9.809999900000001,4.764461517333984,9.816226959228516,7.062894821166992,175.384521484375,11.260986328125,116.7755126953125
9.8299999,5.276820659637451,9.469067573547363,7.252037048339844,190.765380859375,10.101318359375,129.9896240234375
9.8499999,5.616796970367432,9.0859956741333,7.465120792388916,210.235595703125,20.0653076171875,174.9114990234375
9.8699999,5.827486991882324,8.592789649963379,7.68538761138916,208.3740234375,27.7252197265625,197.7691650390625
9.889999900000001,5.849034786224365,8.001421928405762,7.812280178070068,191.314697265625,27.313232421875,171.9818115234375
9.9099999,5.621585369110107,7.338228225708008,7.778761386871338,169.4793701171875,22.7508544921875,127.0599365234375
9.9299999,5.264849662780762,6.648698329925537,7.570465564727783,149.4903564453125,19.287109375,98.236083984375
9.9499999,4.927267074584961,5.894524574279785,7.2783732414245605,131.65283203125,12.176513671875,94.7723388671875
9.969999900000001,4.759673118591309,5.114014625549316,6.976703643798828,108.8409423828125,-15.0604248046875,93.0023193359375
9.9899999,4.752490520477295,4.350264549255371,6.7061591148376465,93.3685302734375,-51.0711669921875,46.783447265625
10.0099999,4.778826713562012,3.6152446269989014,6.509834289550781,78.3538818359375,-63.720703125,10.68115234375
10.0299999,4.69024133682251,2.9472622871398926,6.366182327270508,58.53271484375,-52.7191162109375,14.0380859375
10.049999900000001,4.537012100219727,2.363077163696289,6.279991149902344,27.191162109375,-43.9910888671875,26.1077880859375
10.069999900000001,4.438849925994873,1.800439715385437,6.349422931671143,-7.50732421875,-53.4820556640625,25.360107421875
10.0899999,4.383783340454102,1.3048399686813354,6.636727333068848,-24.0325927734375,-73.4405517578125,7.38525390625
10.1099999,4.343081951141357,0.9959878921508789,7.117961883544922,-50.323486328125,-83.1298828125,-22.1710205078125
10.129999900000001,4.441244125366211,0.9720458984375,7.6782050132751465,-102.4017333984375,-71.4569091796875,-37.3077392578125
10.149999900000001,4.587290287017822,1.3192051649093628,8.164227485656738,-146.0723876953125,-71.71630859375,-31.3720703125
10.1699999,4.944026470184326,2.070984363555908,8.415618896484375,-156.8603515625,-89.6453857421875,-42.999267578125
10.1899999,5.353435039520264,3.1076738834381104,8.434772491455078,-158.7677001953125,-105.255126953125,-88.714599609375
10.209999900000001,5.535394191741943,4.345476150512695,8.281543731689453,-160.430908203125,-110.7635498046875,-125.2899169921875
10.229999900000001,5.463568210601807,5.564124584197998,8.032546997070312,-164.4744873046875,-99.79248046875,-114.8529052734375
10.2499999,5.1810526847839355,6.552929878234863,7.778761386871338,-174.4384765625,-81.939697265625,-74.615478515625
10.2699999,4.869806289672852,7.220912456512451,7.55131196975708,-180.4351806640625,-80.2154541015625,-62.8204345703125
10.2899999,4.7405195236206055,7.577648162841797,7.362170219421387,-181.7474365234375,-104.00390625,-86.24267578125
10.309999900000001,4.6734819412231445,7.6782050132751465,7.285555839538574,-183.6700439453125,-141.9219970703125,-125.1373291015625
10.3299999,4.458003520965576,7.785943984985352,7.273584842681885,-180.7403564453125,-180.35888671875,-171.1273193359375
10.3499999,3.823540210723877,8.070854187011719,7.228095054626465,-173.126220703125,-204.16259765625,-192.474365234375
10.3699999,2.7676970958709717,8.525752067565918,7.094019412994385,-180.4351806640625,-202.7587890625,-164.5050048828125
10.389999900000001,1.5203180313110352,9.078812599182129,6.809109687805176,-194.6868896484375,-189.605712890625,-124.4049072265625
10.4099999,0.49799394607543945,9.521739959716797,6.44279670715332,-191.8792724609375,-185.4095458984375,-115.081787109375
10.4299999,-0.08140286058187485,9.768342971801758,6.112396717071533,-190.9027099609375,-202.69775390625,-136.7034912109375
10.4499999,-0.30885201692581177,9.837775230407715,5.880159378051758,-195.953369140625,-223.6328125,-166.19873046875
10.469999900000001,-0.38307225704193115,9.876082420349121,5.688623428344727,-195.9381103515625,-221.6644287109375,-156.707763671875
10.4899999,-0.45250412821769714,9.979032516479492,5.494692802429199,-191.4215087890625,-205.169677734375,-121.76513671875
10.5099999,-0.6224924325942993,10.14902114868164,5.231330871582031,-173.858642578125,-183.89892578125,-107.208251953125
10.5299999,-0.7493851184844971,10.32858657836914,4.9583916664123535,-159.3780517578125,-163.3758544921875,-99.06005859375
10.549999900000001,-0.7445967197418213,10.45547866821289,4.747702121734619,-151.641845703125,-143.06640625,-85.0982666015625
10.569999900000001,-0.6488286852836609,10.505757331848145,4.613626480102539,-143.1732177734375,-125.0152587890625,-84.3353271484375
10.5899999,-0.4405331015586853,10.522516250610352,4.529829502105713,-137.2222900390625,-111.2060546875,-92.0562744140625
10.6099999,-0.19871874153614044,10.47702693939209,4.486733913421631,-137.6190185546875,-99.6246337890625,-91.644287109375
10.629999900000001,-0.021547814831137657,10.350133895874023,4.4723687171936035,-140.594482421875,-91.3238525390625,-80.9478759765625
10.649999900000001,0.040701430290937424,10.165780067443848,4.431667327880859,-133.8653564453125,-82.489013671875,-66.8792724609375
10.6699999,0.019153613597154617,9.928754806518555,4.443638324737549,-127.7313232421875,-66.7877197265625,-59.7076416015625
10.6899999,0.014365210197865963,9.828198432922363,4.577713489532471,-112.3504638671875,-53.4515380859375,-52.7801513671875
10.709999900000001,0.12449848651885986,9.830592155456543,4.8267107009887695,-110.1531982421875,-40.8935546875,-43.8232421875
10.729999900000001,0.4141969084739685,10.005369186401367,5.130774021148682,-119.8577880859375,-18.3563232421875,-39.3829345703125
10.7499999,0.7805097699165344,10.259154319763184,5.317522048950195,-116.9281005859375,-6.9580078125,-37.7960205078125
10.7699999,1.1180921792984009,10.611102104187012,5.193023681640625,-97.0306396484375,-9.4757080078125,-38.970947265625
10.7899999,1.4508862495422363,10.99896240234375,4.790797710418701,-72.1588134765625,-7.476806640625,-39.642333984375
10.809999900000001,1.7812861204147339,11.444284439086914,4.278438568115234,-46.051025390625,-6.34765625,-49.5452880859375
10.8299999,2.2146365642547607,11.889605522155762,3.8810009956359863,-15.6097412109375,-7.843017578125,-57.6019287109375
10.8499999,3.004723072052002,12.536040306091309,3.7684733867645264,38.75732421875,1.4801025390625,-31.9671630859375
10.8699999,3.1699230670928955,12.509703636169434,4.01268196105957,60.24169921875,12.9547119140625,-15.655517578125
10.889999900000001,3.181894063949585,12.097901344299316,4.359841346740723,80.780029296875,19.6685791015625,-13.885498046875
10.9099999,3.2609026432037354,11.322179794311523,4.812345504760742,97.4578857421875,21.7742919921875,-11.688232421875
10.9299999,3.450044631958008,10.323798179626465,5.315127849578857,104.6142578125,14.3890380859375,-0.8392333984375
10.9499999,3.7469255924224854,9.294290542602539,5.827486991882324,102.325439453125,10.5438232421875,16.448974609375
10.969999900000001,4.039018154144287,8.389283180236816,6.299144744873047,100.1434326171875,12.176513671875,30.0750732421875
10.9899999,4.213795185089111,7.728483200073242,6.631938934326172,103.8665771484375,15.716552734375,34.9884033203125
11.0099999,4.383783340454102,7.299921035766602,6.8809356689453125,110.8856201171875,18.6309814453125,32.3486328125
11.0299999,4.788403511047363,6.995857238769531,7.137115478515625,112.518310546875,3.7078857421875,17.5018310546875
11.049999900000001,5.284003257751465,6.734889507293701,7.3693528175354,98.8006591796875,-25.0244140625,-12.4359130859375
11.069999900000001,5.772420406341553,6.560112476348877,7.5201873779296875,81.756591796875,-42.6788330078125,-20.8282470703125
11.0899999,5.961562156677246,6.5050458908081055,7.457938194274902,76.2939453125,-34.6832275390625,16.41845703125
11.1099999,5.781997203826904,6.600813865661621,7.15387487411499,78.8726806640625,-20.08056640625,56.5032958984375
11.129999900000001,5.286397457122803,6.71334171295166,6.754043102264404,82.6873779296875,-21.514892578125,62.8509521484375
11.149999900000001,4.793191909790039,6.775590896606445,6.380547523498535,99.0447998046875,-8.9569091796875,44.86083984375
11.1699999,4.345476150512695,6.660669326782227,6.232107162475586,107.7880859375,14.312744140625,30.5328369140625
11.1899999,4.177882194519043,6.452373504638672,6.186617374420166,47.882080078125,-28.0609130859375,35.4461669921875
11.209999900000001,4.230554580688477,6.205770969390869,6.303933143615723,39.947509765625,-26.4892578125,29.8614501953125
11.229999900000001,4.484339714050293,5.963956356048584,6.435614109039307,25.08544921875,-43.1671142578125,6.134033203125
11.2499999,4.69024133682251,5.837063789367676,6.521805286407471,4.6234130859375,-62.3779296875,-6.195068359375
11.2699999,4.757278919219971,5.880159378051758,6.4380083084106445,-5.2642822265625,-65.0787353515625,9.3994140625
11.2899999,4.709394931793213,6.009446144104004,6.208165168762207,-10.8489990234375,-62.2711181640625,23.529052734375
11.309999900000001,4.620809078216553,6.251260757446289,5.8657941818237305,-9.94873046875,-71.1517333984375,3.570556640625
11.3299999,4.486733913421631,6.411672115325928,5.631162166595459,-7.843017578125,-84.9456787109375,-16.876220703125
11.3499999,4.314351558685303,6.507440090179443,5.609614372253418,-15.1519775390625,-96.5423583984375,-26.214599609375
11.3699999,3.971980571746826,6.588842868804932,5.7556610107421875,-32.4554443359375,-101.9439697265625,-36.712646484375
11.389999900000001,3.5960910320281982,6.72531270980835,5.918466567993164,-49.8199462890625,-97.7630615234375,-38.3148193359375
11.4099999,3.2800562381744385,6.9455790519714355,5.963956356048584,-58.319091796875,-101.5167236328125,-30.0140380859375
11.4299999,3.1052796840667725,7.2568254470825195,5.863399982452393,-60.2569580078125,-119.0948486328125,-43.1671142578125
11.4499999,2.985569477081299,7.625532627105713,5.664681434631348,-56.427001953125,-130.18798828125,-67.19970703125
11.469999900000001,2.801215887069702,7.953537940979004,5.453991413116455,-45.7305908203125,-123.504638671875,-74.5849609375
11.4899999,2.4851813316345215,8.176198959350586,5.25527286529541,-41.015625,-121.826171875,-74.615478515625
11.5099999,2.1092917919158936,8.185775756835938,5.147533416748047,-44.1741943359375,-130.767822265625,-68.0694580078125
11.5299999,1.6903064250946045,7.951143741607666,5.099649429321289,-51.6510009765625,-138.9312744140625,-58.6090087890625
11.549999900000001,1.316810965538025,7.467514991760254,5.142745018005371,-58.4869384765625,-141.8914794921875,-58.4564208984375
11.569999900000001,0.912190854549408,6.9024834632873535,5.169081687927246,-67.1539306640625,-147.0489501953125,-60.211181640625
11.5899999,0.47884035110473633,6.3973069190979,5.094861030578613,-71.3958740234375,-150.3753662109375,-65.85693359375
11.6099999,0.05985504388809204,6.1267619132995605,4.867412090301514,-73.1658935546875,-155.0140380859375,-88.043212890625
11.629999900000001,-0.2777273952960968,6.074089527130127,4.541800498962402,-79.7882080078125,-158.9813232421875,-105.3466796875
11.649999900000001,-0.5434837937355042,6.1985883712768555,4.173093795776367,-94.42138671875,-153.656005859375,-102.9510498046875
11.6699999,-0.849941611289978,6.497863292694092,3.7397429943084717,-104.3853759765625,-141.9830322265625,-91.033935546875
11.6899999,-0.9552865028381348,6.909666061401367,3.335123062133789,-110.9466552734375,-116.7449951171875,-67.352294921875
11.709999900000001,-0.7805097699165344,7.352593421936035,3.0166940689086914,-114.7613525390625,-85.296630859375,-50.59814453125
11.729999900000001,-0.1867477297782898,7.836222171783447,2.808398485183716,-111.81640625,-70.8770751953125,-52.4139404296875
11.7499999,0.8188169598579407,8.216899871826172,2.8227639198303223,-109.161376953125,-67.0928955078125,-46.539306640625
11.7699999,1.867477297782898,8.520963668823242,2.964021682739258,-103.912353515625,-63.78173828125,-42.6483154296875
11.7899999,2.6384103298187256,8.731653213500977,3.1747114658355713,-96.893310546875,-55.389404296875,-47.2564697265625
11.809999900000001,2.9879636764526367,8.81784439086914,3.450044631958008,-92.926025390625,-45.5780029296875,-42.8466796875
11.8299999,2.940079689025879,8.832210540771484,3.7493197917938232,-96.5118408203125,-37.384033203125,-32.3944091796875
11.8499999,2.7126305103302,8.798690795898438,4.1180267333984375,-106.6436767578125,-29.0374755859375,-24.7955322265625
11.8699999,2.432508945465088,8.901641845703125,4.481945514678955,-107.23876953125,-26.91650390625,-34.1796875
11.889999900000001,2.2002713680267334,9.222464561462402,4.7836151123046875,-100.40283203125,-29.1595458984375,-49.4537353515625
11.9099999,2.10210919380188,9.840168952941895,4.982333660125732,-96.5423583984375,-29.876708984375,-53.497314453125
11.9299999,1.9632453918457031,10.72602367401123,5.114014625549316,-76.934814453125,-11.4593505859375,-60.7147216796875
11.9499999,1.8411411046981812,11.662156105041504,5.212177276611328,-60.2874755859375,-14.6026611328125,-33.14208984375
11.969999900000001,1.8483237028121948,12.466608047485352,5.252878665924072,-68.0694580078125,10.2081298828125,6.3323974609375
11.9899999,2.0638017654418945,12.99812126159668,5.231330871582031,-73.7152099609375,26.85546875,10.68115234375
12.0099999,2.4013843536376953,13.235146522521973,5.037400245666504,-55.5419921875,3.0975341796875,-7.6751708984375
12.0299999,2.765302896499634,13.278243064880371,4.663905143737793,-33.5693359375,-4.8980712890625,-16.815185546875
12.049999900000001,2.913743495941162,13.15613842010498,4.230554580688477,-15.8233642578125,13.763427734375,-1.15966796875
12.069999900000001,2.7222073078155518,12.892776489257812,3.8283286094665527,-6.134033203125,28.0914306640625,26.1383056640625
12.0899999,2.4013843536376953,12.430695533752441,3.576937437057495,-0.5035400390625,43.243408203125,65.5975341796875
12.1099999,2.0901381969451904,11.793837547302246,3.5027170181274414,13.6871337890625,59.1278076171875,96.5576171875
12.129999900000001,1.9584569931030273,11.015722274780273,3.5673606395721436,29.0985107421875,61.03515625,108.6578369140625
12.149999900000001,2.0015525817871094,10.196905136108398,3.713406801223755,47.943115234375,49.98779296875,97.991943359375
12.1699999,2.1930887699127197,9.41639518737793,3.9264907836914062,64.1326904296875,39.12353515625,84.259033203125
12.1899999,2.387019157409668,8.71489429473877,4.2090067863464355,61.7828369140625,37.109375,100.0823974609375
12.209999900000001,2.5785553455352783,8.279149055480957,4.517858505249023,65.8721923828125,56.1370849609375,130.0201416015625
12.229999900000001,2.734178304672241,8.075642585754395,4.8482584953308105,80.2001953125,64.7735595703125,146.5606689453125
12.2499999,2.868253707885742,8.042123794555664,5.2049946784973145,85.7696533203125,48.15673828125,144.3939208984375
12.2699999,3.071760892868042,8.092401504516602,5.549759387969971,80.169677734375,22.857666015625,136.6424560546875
12.289999900000002,3.308786630630493,8.13789176940918,5.899312973022461,106.048583984375,23.25439453125,123.6572265625
12.309999900000001,3.464409828186035,8.08282470703125,6.22731876373291,139.22119140625,36.6973876953125,113.2965087890625
12.3299999,3.576937437057495,8.039729118347168,6.45476770401001,140.9149169921875,34.088134765625,111.14501953125
12.3499999,3.643975019454956,8.034940719604492,6.586448669433594,130.0201416015625,32.379150390625,122.4822998046875
12.3699999,3.7660791873931885,7.939172744750977,6.7277069091796875,119.44580078125,29.0985107421875,140.2740478515625
12.389999900000001,3.955221176147461,7.838616371154785,6.856993675231934,111.38916015625,15.93017578125,137.63427734375
12.4099999,4.213795185089111,7.733271598815918,7.015010833740234,108.795166015625,8.2550048828125,132.6751708984375
12.4299999,4.378994941711426,7.666234016418457,7.182605266571045,98.724365234375,7.171630859375,139.4805908203125
12.4499999,4.51067590713501,7.627926826477051,7.33583402633667,75.225830078125,2.5482177734375,141.326904296875
12.469999900000001,4.517858505249023,7.5201873779296875,7.453149795532227,54.01611328125,-9.09423828125,131.622314453125
12.4899999,4.376600742340088,7.151480674743652,7.515398979187012,45.4864501953125,-19.5159912109375,116.9586181640625
12.5099999,4.0964789390563965,6.497863292694092,7.469909191131592,23.040771484375,-15.1214599609375,130.401611328125
12.5299999,3.7900211811065674,5.736507415771484,7.350199222564697,-0.0152587890625,0.9918212890625,151.763916015625
12.549999900000001,3.536235809326172,5.066130638122559,7.2137298583984375,-6.7138671875,1.007080078125,146.7437744140625
12.569999900000001,3.4572272300720215,4.525041103363037,7.0772600173950195,-28.0303955078125,-20.416259765625,108.2000732421875
12.5899999,3.641580820083618,4.144362926483154,6.9024834632873535,-58.441162109375,-32.2265625,54.840087890625
12.6099999,4.015076160430908,3.7684733867645264,6.615179061889648,-80.26123046875,-28.0914306640625,40.2679443359375
12.629999900000001,4.441244125366211,3.485957622528076,6.160281181335449,-85.479736328125,-28.0914306640625,56.9915771484375
12.649999900000001,4.850652694702148,3.265691041946411,5.6191911697387695,-87.5701904296875,-47.1038818359375,46.7529296875
12.6699999,4.987122058868408,3.184288263320923,5.128379821777344,-79.864501953125,-50.0335693359375,10.8489990234375
12.6899999,4.908113479614258,3.1292216777801514,4.790797710418701,-63.812255859375,-25.45166015625,-14.404296875
12.709999900000001,4.776432514190674,3.026270866394043,4.661510944366455,-61.70654296875,-4.3792724609375,-5.6915283203125
12.729999900000001,4.802768707275391,2.892195701599121,4.675876140594482,-70.4498291015625,-7.5225830078125,-7.659912109375
12.7499999,5.080495834350586,2.806004285812378,4.702212333679199,-78.9642333984375,-22.4151611328125,-39.886474609375
12.7699999,5.468356609344482,2.853888511657715,4.627991676330566,-72.8912353515625,-27.557373046875,-74.9359130859375
12.789999900000002,5.805939197540283,3.0095114707946777,4.455609321594238,-63.7054443359375,-26.9775390625,-85.1287841796875
12.809999900000001,6.004657745361328,3.308786630630493,4.206612586975098,-70.0531005859375,-25.1007080078125,-69.5648193359375
12.8299999,5.954379558563232,3.7038300037384033,3.9193081855773926,-74.4476318359375,-24.0478515625,-61.9049072265625
12.8499999,5.815515995025635,4.173093795776367,3.663128614425659,-71.044921875,-21.240234375,-74.03564453125
12.8699999,5.6455278396606445,4.587290287017822,3.442862033843994,-64.39208984375,-7.568359375,-74.1729736328125
12.889999900000001,5.566518783569336,4.8937482833862305,3.3231520652770996,-59.7991943359375,14.678955078125,-54.2755126953125
12.9099999,5.770026206970215,5.006275653839111,3.3231520652770996,-70.0225830078125,23.92578125,-47.149658203125
12.9299999,6.1315507888793945,5.0254292488098145,3.3925838470458984,-71.3653564453125,27.801513671875,-68.511962890625
12.9499999,6.617573261260986,5.070919036865234,3.488351821899414,-63.5223388671875,35.186767578125,-84.41162109375
12.969999900000001,7.134721279144287,5.188235282897949,3.6176388263702393,-46.051025390625,39.0777587890625,-80.0018310546875
12.9899999,7.501033782958984,5.319916248321533,3.8091750144958496,-36.43798828125,32.196044921875,-73.8677978515625
13.0099999,7.7213006019592285,5.427655220031738,4.077325344085693,-36.9415283203125,29.35791015625,-59.5855712890625
13.0299999,7.766790390014648,5.434837818145752,4.41969633102417,-34.9884033203125,36.529541015625,-35.1715087890625
13.049999900000001,7.577648162841797,5.382165431976318,4.7620673179626465,-33.3099365234375,42.17529296875,-25.93994140625
13.069999900000001,7.29034423828125,5.272032260894775,5.07570743560791,-36.8499755859375,41.8243408203125,-16.5557861328125
13.0899999,7.048529624938965,5.157110691070557,5.3342814445495605,-37.0941162109375,42.816162109375,-4.302978515625
13.1099999,6.926425457000732,5.078101634979248,5.544970989227295,-31.43310546875,57.18994140625,-15.13671875
13.129999900000001,6.801927089691162,5.169081687927246,5.784391403198242,-29.2816162109375,35.0494384765625,-37.3687744140625
13.149999900000001,6.696582317352295,5.430049419403076,6.112396717071533,-26.5350341796875,8.85009765625,-40.313720703125
13.1699999,6.593631267547607,5.856217384338379,6.50025749206543,-26.42822265625,39.5660400390625,-48.0804443359375
13.1899999,6.6630635261535645,6.375759124755859,6.854599475860596,-36.407470703125,56.3812255859375,-54.962158203125
13.209999900000001,6.995857238769531,6.993463039398193,7.0126166343688965,-43.8995361328125,46.630859375,-46.6766357421875
13.229999900000001,7.544129371643066,7.6782050132751465,6.885724067687988,-35.675048828125,37.7960205078125,-37.4908447265625
13.2499999,8.006210327148438,8.432378768920898,6.576871871948242,-12.1612548828125,36.9873046875,-14.4500732421875
13.2699999,8.343792915344238,9.114726066589355,6.251260757446289,8.7127685546875,36.62109375,26.55029296875
13.289999900000002,8.310274124145508,9.57441234588623,6.011840343475342,20.1263427734375,39.276123046875,55.11474609375
13.309999900000001,8.04691219329834,9.691728591918945,5.894524574279785,31.8603515625,34.5306396484375,70.4345703125
13.3299999,7.503427982330322,9.452308654785156,5.837063789367676,48.1109619140625,29.876708984375,88.7603759765625
13.3499999,6.852205276489258,8.987833023071289,5.774814605712891,61.8133544921875,29.8309326171875,114.7613525390625
13.3699999,6.2392897605896,8.336610794067383,5.760449409484863,70.1141357421875,27.1453857421875,122.98583984375
13.389999900000001,5.688623428344727,7.692570209503174,5.801150798797607,77.69775390625,17.7764892578125,115.5242919921875
13.4099999,5.286397457122803,7.094019412994385,5.949591159820557,85.0677490234375,13.702392578125,122.955322265625
13.4299999,4.98472785949707,6.605602264404297,6.1985883712768555,95.428466796875,14.70947265625,142.913818359375
13.4499999,4.807557106018066,6.179434776306152,6.540958881378174,102.3712158203125,12.7105712890625,160.491943359375
13.469999900000001,4.790797710418701,5.834669589996338,6.907271862030029,100.921630859375,7.62939453125,158.75244140625
13.4899999,4.9799394607543945,5.521028995513916,7.259219646453857,96.9390869140625,-4.1351318359375,139.09912109375
13.5099999,5.22175407409668,5.214571475982666,7.534552574157715,89.0350341796875,-18.4326171875,117.3858642578125
13.5299999,5.3342814445495605,4.955997467041016,7.647080421447754,76.3702392578125,-31.2957763671875,105.46875
13.549999900000001,5.195417881011963,4.728548526763916,7.572859764099121,64.9871826171875,-29.144287109375,106.50634765625
13.569999900000001,4.8051629066467285,4.517858505249023,7.340622425079346,55.6793212890625,-12.2222900390625,118.7744140625
13.5899999,4.299986362457275,4.314351558685303,7.022193431854248,47.79052734375,-4.3792724609375,130.4168701171875
13.6099999,3.8786067962646484,4.027047157287598,6.742072105407715,41.7022705078125,-8.8348388671875,127.960205078125
13.629999900000001,3.5625722408294678,3.6152446269989014,6.598419666290283,36.80419921875,-12.115478515625,100.921630859375
13.649999900000001,3.4308910369873047,3.095702886581421,6.629544734954834,27.3895263671875,-9.552001953125,80.841064453125
13.6699999,3.442862033843994,2.535459518432617,6.787561893463135,13.9312744140625,-3.265380859375,69.4732666015625
13.6899999,3.620033025741577,1.9632453918457031,6.983886241912842,1.4495849609375,-2.197265625,41.229248046875
13.709999900000001,3.97916316986084,1.4700398445129395,7.220912456512451,-5.2947998046875,-2.471923828125,25.787353515625
13.729999900000001,4.314351558685303,1.1899182796478271,7.489062786102295,-7.1563720703125,-10.5438232421875,28.839111328125
13.7499999,4.546588897705078,1.161187767982483,7.694964408874512,-29.0679931640625,-17.15087890625,18.2952880859375
13.7699999,4.707000732421875,1.4077905416488647,7.805097579956055,-65.3533935546875,-29.84619140625,-12.26806640625
13.789999900000002,4.881777286529541,1.7812861204147339,7.690176010131836,-87.7532958984375,-60.60791015625,-61.58447265625
13.809999900000001,5.082890033721924,2.1475989818573,7.331045627593994,-76.35498046875,-53.4515380859375,-97.076416015625
13.8299999,5.331887245178223,2.43011474609375,6.7923502922058105,-71.746826171875,-27.0538330078125,-94.4976806640625
13.8499999,5.564124584197998,2.691082715988159,6.222530364990234,-70.37353515625,-2.716064453125,-62.5152587890625
13.8699999,5.767632007598877,2.9879636764526367,5.705382823944092,-62.7288818359375,21.5301513671875,-30.975341796875
13.889999900000001,5.995080947875977,3.3279404640197754,5.329493045806885,-44.25048828125,42.236328125,-22.64404296875
13.9099999,6.256049156188965,3.552995204925537,5.161899089813232,-25.390625,52.18505859375,-32.9437255859375
13.9299999,6.426037311553955,3.6152446269989014,5.171475887298584,-22.88818359375,55.6182861328125,-23.37646484375
13.9499999,6.50025749206543,3.5721490383148193,5.260061264038086,-31.6314697265625,67.8253173828125,0.0762939453125
13.969999900000001,6.449979305267334,3.4739866256713867,5.329493045806885,-35.675048828125,76.5380859375,0.18310546875
13.9899999,6.426037311553955,3.4332852363586426,5.329493045806885,-27.6641845703125,65.826416015625,-20.44677734375
14.0099999,6.540958881378174,3.445256233215332,5.284003257751465,-17.4713134765625,51.33056640625,-53.4515380859375
14.0299999,6.761225700378418,3.5051112174987793,5.2265424728393555,-16.11328125,45.3033447265625,-80.5511474609375
14.049999900000001,7.086836814880371,3.6607344150543213,5.169081687927246,-16.4947509765625,47.0123291015625,-77.7740478515625
14.069999900000001,7.362170219421387,3.97916316986084,5.0876784324646,-11.5509033203125,50.750732421875,-55.084228515625
14.0899999,7.508216381072998,4.431667327880859,4.982333660125732,-2.8228759765625,50.0030517578125,-39.337158203125
14.1099999,7.453149795532227,4.963180065155029,4.874594688415527,6.04248046875,51.5594482421875,-28.076171875
14.129999900000001,7.314286231994629,5.4444146156311035,4.836287498474121,14.2669677734375,60.11962890625,-9.46044921875
14.149999900000001,7.067683219909668,5.801150798797607,4.903325080871582,25.299072265625,62.774658203125,-1.6326904296875
14.1699999,6.773196697235107,5.9974751472473145,5.082890033721924,34.72900390625,55.5419921875,-8.209228515625
14.1899999,6.5050458908081055,6.088454723358154,5.363011837005615,43.609619140625,52.4139404296875,-6.6986083984375
14.209999900000001,6.251260757446289,6.1530985832214355,5.674258232116699,50.5218505859375,62.98828125,-11.3677978515625
14.229999900000001,6.117185115814209,6.275202751159668,5.925649166107178,50.811767578125,64.75830078125,-23.25439453125
14.2499999,6.078877925872803,6.502651691436768,6.071695327758789,57.8155517578125,49.163818359375,-38.4521484375
14.2699999,6.035782337188721,6.806715488433838,6.121973514556885,69.8089599609375,37.78076171875,-63.1866455078125
14.289999900000002,5.999869346618652,7.1490864753723145,6.133944988250732,73.6541748046875,37.933349609375,-59.75341796875
14.309999900000001,5.827486991882324,7.371747016906738,6.1770405769348145,57.3883056640625,36.19384765625,-19.0277099609375
14.3299999,5.492298603057861,7.534552574157715,6.342240333557129,45.562744140625,34.0118408203125,23.101806640625
14.3499999,4.922478675842285,7.702147006988525,6.653486728668213,57.0831298828125,22.705078125,31.1431884765625
14.3699999,4.280832767486572,7.936778545379639,7.084442615509033,64.5599365234375,24.6429443359375,25.0396728515625
14.389999900000001,3.758896589279175,8.279149055480957,7.572859764099121,56.243896484375,47.1343994140625,18.096923828125
14.4099999,3.514688014984131,8.698134422302246,7.934384346008301,49.530029296875,52.5970458984375,5.584716796875
14.4299999,3.5960910320281982,9.133879661560059,8.044517517089844,56.3507080078125,47.0123291015625,-11.2762451171875
14.4499999,3.667917013168335,9.528923034667969,7.833827972412109,71.3348388671875,55.48095703125,-5.2947998046875
14.469999900000001,3.5218706130981445,9.880870819091797,7.3669586181640625,81.48193359375,72.9217529296875,34.9884033203125
14.4899999,3.1723172664642334,10.08198356628418,6.861782073974609,85.8612060546875,89.7674560546875,79.498291015625
14.5099999,2.765302896499634,10.017339706420898,6.45476770401001,92.529296875,96.8780517578125,90.1336669921875
14.5299999,2.4851813316345215,9.706093788146973,6.246472358703613,98.968505859375,82.763671875,73.2574462890625
14.549999900000001,2.3942017555236816,9.306262016296387,6.203376770019531,103.271484375,66.1468505859375,50.84228515625
14.569999900000001,2.403778553009033,9.009381294250488,6.2392897605896,105.0872802734375,48.0499267578125,26.6876220703125
14.5899999,2.3247697353363037,9.02135181427002,6.2201361656188965,108.917236328125,31.768798828125,0.274658203125
14.6099999,2.1092917919158936,9.404424667358398,6.143521785736084,105.77392578125,40.8782958984375,-14.7552490234375
14.629999900000001,1.7812861204147339,10.072406768798828,6.042964935302734,104.1259765625,58.563232421875,-12.4969482421875
14.649999900000001,1.3311761617660522,10.81700325012207,5.992686748504639,123.565673828125,56.1370849609375,3.387451171875
14.6699999,0.8331822156906128,11.432312965393066,6.0405707359313965,153.7017822265625,36.7584228515625,2.8228759765625
14.6899999,0.31364041566848755,11.767500877380371,6.162675380706787,169.4793701171875,33.721923828125,-3.7384033203125
14.709999900000001,-0.26815059781074524,11.705251693725586,6.275202751159668,170.2880859375,50.35400390625,10.6201171875
14.729999900000001,-0.828393816947937,11.26950740814209,6.311115741729736,163.1317138671875,71.2127685546875,33.4014892578125
14.7499999,-1.216254472732544,10.5344877243042,6.277596950531006,135.101318359375,84.9151611328125,55.9844970703125
14.7699999,-1.359906554222107,9.615114212036133,6.110002517700195,111.5264892578125,88.653564453125,67.07763671875
14.789999900000002,-1.3263877630233765,8.62391471862793,5.822698593139648,115.4632568359375,78.9794921875,59.6923828125
14.809999900000001,-1.1683704853057861,7.65186882019043,5.403713226318359,117.584228515625,65.582275390625,46.5850830078125
14.8299999,-0.9576807022094727,6.847416877746582,4.898536682128906,100.677490234375,59.722900390625,41.8701171875
14.8499999,-0.6200982332229614,6.36378812789917,4.417302131652832,81.6497802734375,48.6297607421875,37.3992919921875
14.8699999,-0.19153612852096558,6.315904140472412,3.9384617805480957,84.716796875,25.20751953125,14.923095703125
14.889999900000001,0.31364041566848755,6.847416877746582,3.44765043258667,91.766357421875,5.6915283203125,-13.092041015625
14.9099999,0.6847416758537292,7.807491779327393,2.8826189041137695,88.3941650390625,-8.087158203125,-32.8826904296875
14.9299999,0.8619126081466675,9.078812599182129,2.0422539710998535,99.212646484375,-57.342529296875,-112.85400390625
14.9499999,0.49799394607543945,10.3549222946167,0.993593692779541,127.1209716796875,-65.3533935546875,-182.2509765625
14.969999900000001,-0.090979665517807,11.288661003112793,-0.05985504388809204,109.344482421875,-7.1868896484375,-146.3165283203125
14.9899999,-0.9624691009521484,11.645397186279297,-1.015141487121582,83.160400390625,28.01513671875,-103.729248046875
15.0099999,-1.742978811264038,11.310209274291992,-1.5945383310317993,64.5751953125,48.7060546875,-89.78271484375
15.0299999,-2.22660756111145,10.606313705444336,-1.8986018896102905,50.1556396484375,47.515869140625,-91.064453125
15.049999900000001,-2.3702597618103027,9.923966407775879,-1.9704279899597168,57.67822265625,49.163818359375,-91.85791015625
15.069999900000001,-2.054224967956543,9.567230224609375,-1.7884687185287476,56.3507080078125,36.468505859375,-90.362548828125
15.0899999,-1.577778935432434,9.646238327026367,-1.4987702369689941,70.3887939453125,3.5400390625,-131.8817138671875
15.1099999,-1.2473790645599365,9.849745750427246,-1.1085153818130493,93.56689453125,-4.0130615234375,-174.6826171875
15.129999900000001,-1.1204863786697388,10.022128105163574,-0.7469909191131592,93.5211181640625,27.77099609375,-173.8128662109375
15.149999900000001,-1.194706678390503,10.103530883789062,-0.44532153010368347,84.869384765625,63.323974609375,-146.30126953125
15.1699999,-1.015141487121582,10.170568466186523,-0.14844051003456116,66.3909912109375,50.567626953125,-125.335693359375
15.1899999,-0.6943184733390808,10.211270332336426,0.13407529890537262,62.652587890625,15.411376953125,-133.11767578125
15.209999900000001,-0.24420857429504395,10.283096313476562,0.31364041566848755,72.113037109375,14.83154296875,-140.411376953125
15.229999900000001,0.14844051003456116,10.412383079528809,0.2944868206977844,69.03076171875,37.567138671875,-125.7476806640625
15.2499999,0.45250412821769714,10.512939453125,0.07422025501728058,57.12890625,41.6107177734375,-106.01806640625
15.2699999,0.5650315880775452,10.462661743164062,-0.2298433631658554,37.109375,15.777587890625,-95.855712890625
15.289999900000002,0.7565677165985107,10.216058731079102,-0.47405192255973816,24.3988037109375,10.955810546875,-35.5072021484375
15.309999900000001,0.7637503147125244,9.701305389404297,-0.6224924325942993,24.688720703125,13.9617919921875,-0.9918212890625
15.3299999,0.7613561153411865,9.023746490478516,-0.6727706789970398,29.7088623046875,6.9122314453125,-5.06591796875
15.3499999,0.7972691655158997,8.552088737487793,-0.7541735172271729,41.595458984375,-12.298583984375,-41.9921875
15.3699999,0.6560112833976746,8.192957878112793,-0.8403648138046265,52.4444580078125,-22.186279296875,-79.925537109375
15.389999900000001,0.47165772318840027,8.034940719604492,-1.1013327836990356,51.422119140625,-17.669677734375,-27.83203125
15.4099999,-0.06703764945268631,7.9415669441223145,-1.4891934394836426,57.8460693359375,-22.3541259765625,40.863037109375
15.4299999,-0.7733271718025208,8.10437297821045,-2.099714994430542,76.59912109375,-45.013427734375,42.9840087890625
15.4499999,-1.4173674583435059,8.403648376464844,-2.846705913543701,84.1522216796875,-48.3245849609375,48.5076904296875
15.469999900000001,-1.987187385559082,8.698134422302246,-3.6080620288848877,55.5877685546875,-29.23583984375,100.2655029296875
15.4899999,-2.212242364883423,8.853757858276367,-4.201824188232422,18.98193359375,-8.48388671875,146.42333984375
15.5099999,-2.0590133666992188,8.710105895996094,-4.513070106506348,11.749267578125,0.762939453125,147.0489501953125
15.5299999,-1.601720929145813,8.281543731689453,-4.548983097076416,12.3138427734375,-8.9569091796875,121.9329833984375
15.549999900000001,-0.9983820915222168,7.642292022705078,-4.3191399574279785,-12.0697021484375,-22.1099853515625,116.8060302734375
15.569999900000001,-0.6440402865409851,6.823474884033203,-4.060565948486328,-28.5797119140625,-32.989501953125,125.030517578125
15.5899999,-0.5171475410461426,6.081272125244141,-3.737348794937134,-46.32568359375,-31.5399169921875,146.0113525390625
15.6099999,-0.7541735172271729,5.717353820800781,-3.5410242080688477,-49.2706298828125,-20.4010009765625,142.181396484375
15.629999900000001,-1.0773907899856567,5.999869346618652,-3.5482068061828613,-28.7017822265625,-10.894775390625,105.5908203125
15.649999900000001,-1.577778935432434,6.588842868804932,-3.7158010005950928,-25.238037109375,5.2642822265625,81.268310546875
15.6699999,-2.0446481704711914,7.216124057769775,-3.8738183975219727,-54.0924072265625,10.43701171875,119.293212890625
15.6899999,-2.655169725418091,7.587224960327148,-4.0294413566589355,-101.6693115234375,21.42333984375,204.65087890625
15.709999900000001,-2.7246015071868896,7.7213006019592285,-3.7421371936798096,-154.4036865234375,51.6357421875,263.9007568359375
15.729999900000001,-2.7461493015289307,7.800309181213379,-3.2800562381744385,-121.551513671875,59.967041015625,189.178466796875
15.7499999,-2.315192937850952,7.826645374298096,-2.5258827209472656,-112.762451171875,33.203125,116.3787841796875
15.7699999,-1.8842366933822632,7.6566572189331055,-1.659181833267212,-146.148681640625,41.1834716796875,120.5902099609375
15.789999900000002,-1.4867992401123047,7.422025203704834,-0.790086567401886,-200.8209228515625,74.737548828125,143.0511474609375
15.809999900000001,-1.0582371950149536,7.311892032623291,-0.08619125932455063,-228.851318359375,117.3095703125,131.7291259765625
15.8299999,-0.7757213711738586,7.436390399932861,0.38067805767059326,-183.2733154296875,115.41748046875,85.4644775390625
15.8499999,-0.4644751250743866,7.726089000701904,0.5674257874488831,-138.0462646484375,116.3787841796875,70.9381103515625
15.869999900000002,-0.5434837937355042,7.850587368011475,0.6943184733390808,-130.18798828125,155.57861328125,126.4801025390625
15.889999900000001,-0.5195417404174805,7.951143741607666,1.0989385843276978,-155.5023193359375,225.189208984375,221.74072265625
15.9099999,-0.08140286058187485,8.26478385925293,1.886630892753601,-150.0091552734375,275.08544921875,216.3238525390625
15.9299999,0.7158663272857666,8.901641845703125,2.8610711097717285,-81.6497802734375,248.260498046875,91.85791015625
15.9499999,1.678335428237915,9.725247383117676,3.6583402156829834,-20.660400390625,169.1436767578125,-12.2222900390625
15.969999900000001,2.3798365592956543,10.299856185913086,4.106055736541748,0.3204345703125,137.5732421875,-19.439697265625
15.9899999,2.6384103298187256,10.299856185913086,4.395754337310791,-5.55419921875,169.4793701171875,33.75244140625
16.0099999,2.7988216876983643,9.861717224121094,4.836287498474121,-7.3394775390625,186.7218017578125,68.603515625
16.0299999,3.2297780513763428,9.169792175292969,5.6455278396606445,-7.9498291015625,153.4576416015625,44.342041015625
16.0499999,3.88818359375,8.544905662536621,6.610390663146973,-8.0718994140625,88.7908935546875,-8.9111328125
16.0699999,4.639962673187256,8.142680168151855,7.383718013763428,14.007568359375,42.1600341796875,-60.9130859375
16.089999900000002,5.104437828063965,7.908048152923584,7.738059997558594,27.6947021484375,32.0587158203125,-71.9146728515625
16.109999900000002,5.116408824920654,7.881711959838867,7.548917770385742,13.8092041015625,41.412353515625,-38.543701171875
16.1299999,4.841075897216797,7.920019149780273,7.115567684173584,-15.5792236328125,61.737060546875,16.021728515625
16.1499999,4.623203277587891,7.8745293617248535,6.868964672088623,-30.7769775390625,78.338623046875,52.001953125
16.1699999,4.606443881988525,7.716512203216553,6.9695210456848145,-18.890380859375,59.9365234375,23.193359375
16.1899999,4.771644115447998,7.4316020011901855,7.42681360244751,10.6658935546875,32.5775146484375,-59.8907470703125
16.2099999,4.742913722991943,7.005434036254883,7.929595947265625,19.927978515625,35.0494384765625,-138.0462646484375
16.2299999,4.532223701477051,6.818686485290527,8.221688270568848,2.5482177734375,45.166015625,-132.415771484375
16.249999900000002,3.8570590019226074,6.957550048828125,8.22887134552002,9.368896484375,19.9127197265625,-86.151123046875
16.269999900000002,3.2417490482330322,7.486668586730957,8.224082946777344,14.923095703125,-4.8370361328125,-76.35498046875
16.2899999,2.7988216876983643,8.355764389038086,8.29830265045166,17.1356201171875,-34.1949462890625,-92.9412841796875
16.3099999,2.6791117191314697,9.32541561126709,8.432378768920898,30.33447265625,-82.8857421875,-133.30078125
16.3299999,2.8443117141723633,10.218452453613281,8.439560890197754,72.3114013671875,-133.514404296875,-189.3463134765625
16.3499999,3.1675288677215576,10.912771224975586,8.154650688171387,113.9678955078125,-152.52685546875,-192.5201416015625
16.3699999,3.268085241317749,11.298237800598145,7.539340972900391,137.115478515625,-121.063232421875,-147.705078125
16.3899999,3.0358476638793945,11.252747535705566,6.651092529296875,119.537353515625,-118.408203125,-93.170166015625
16.4099999,2.5330653190612793,10.917559623718262,5.793968200683594,59.326171875,-132.0343017578125,-9.3841552734375
16.429999900000002,1.8579005002975464,10.302249908447266,5.020640850067139,41.229248046875,-105.6365966796875,15.1519775390625
16.4499999,1.3479355573654175,9.569623947143555,4.508281707763672,54.595947265625,-106.231689453125,-6.3323974609375
16.4699999,1.0342950820922852,8.791508674621582,4.197035789489746,61.8133544921875,-107.4066162109375,-21.1639404296875
16.4899999,0.8259995579719543,8.001421928405762,3.974374771118164,63.29345703125,-101.6998291015625,-23.8800048828125
16.5099999,0.6775590777397156,7.319074630737305,3.751713991165161,60.72998046875,-94.879150390625,-19.6075439453125
16.5299999,0.5913678407669067,6.833051681518555,3.507505416870117,54.6875,-76.23291015625,-8.5601806640625
16.5499999,0.5985504388809204,6.502651691436768,3.332728862762451,42.816162109375,-58.7005615234375,5.035400390625
16.5699999,0.7805097699165344,6.258443355560303,3.2848446369171143,20.7366943359375,-50.5523681640625,19.7601318359375
16.589999900000002,1.0678139925003052,6.114790916442871,3.335123062133789,4.5928955078125,-53.466796875,27.252197265625
16.609999900000002,1.4628572463989258,6.064512729644775,3.471592426300049,0.1220703125,-55.7708740234375,24.47509765625
16.6299999,2.054224967956543,6.121973514556885,3.5458126068115234,-0.7476806640625,-54.6417236328125,14.556884765625
16.6499999,2.631227731704712,6.3518171310424805,3.6966474056243896,-28.7933349609375,-52.3223876953125,-15.472412109375
16.6699999,3.1531636714935303,6.698976516723633,3.864241600036621,-52.9022216796875,-56.396484375,-52.978515625
16.6899999,3.421314239501953,7.0341644287109375,4.031835556030273,-32.16552734375,-56.4117431640625,-51.5594482421875
16.7099999,3.3854012489318848,7.2568254470825195,4.077325344085693,-7.9345703125,-51.2542724609375,-27.4200439453125
16.7299999,3.35667085647583,7.390900611877441,3.8977603912353516,-27.8167724609375,-46.56982421875,-21.1181640625
16.749999900000002,3.272873640060425,7.350199222564697,3.5458126068115234,-61.859130859375,-43.609619140625,-43.792724609375
16.769999900000002,3.2776620388031006,7.386112213134766,3.248931646347046,-67.657470703125,-35.125732421875,-64.75830078125
16.7899999,3.0813376903533936,7.544129371643066,2.9712042808532715,-47.0733642578125,-27.9388427734375,-52.42919921875
16.8099999,2.7030537128448486,7.872135162353516,2.8634653091430664,-41.259765625,-19.7906494140625,-20.050048828125
16.8299999,2.276885747909546,8.26239013671875,2.8155810832977295,-30.4718017578125,-22.4456787109375,-9.521484375
16.8499999,2.075772762298584,8.746018409729004,2.7030537128448486,4.0130615234375,-63.140869140625,-56.9000244140625
16.8699999,1.9393033981323242,9.129091262817383,2.6575639247894287,12.359619140625,-71.96044921875,-103.6376953125
16.8899999,1.8626888990402222,9.588777542114258,2.5761611461639404,14.2822265625,-68.603515625,-136.53564453125
16.9099999,1.5107412338256836,10.1753568649292,2.4827871322631836,23.6663818359375,-60.1806640625,-133.8653564453125
16.929999900000002,0.9169792532920837,10.879252433776855,2.4157495498657227,20.538330078125,-45.8831787109375,-83.8165283203125
16.9499999,0.5099649429321289,11.554417610168457,2.540247917175293,1.0223388671875,-32.3333740234375,-26.397705078125
16.9699999,0.31124621629714966,12.105083465576172,2.9448680877685547,-4.9591064453125,-30.5633544921875,-17.242431640625
16.9899999,0.31603461503982544,12.425907135009766,3.5386300086975098,1.739501953125,-50.8880615234375,-17.4102783203125
17.0099999,0.3232172429561615,12.612654685974121,4.194641590118408,6.805419921875,-58.349609375,-5.4168701171875
17.0299999,0.13168109953403473,12.643778800964355,4.78122091293335,1.2359619140625,-44.1131591796875,26.123046875
17.0499999,-0.17477671802043915,12.682085990905762,5.118803024291992,-0.1678466796875,-45.6390380859375,44.0673828125
17.0699999,-0.2801215946674347,12.701239585876465,5.286397457122803,17.0135498046875,-57.220458984375,57.80029296875
17.089999900000002,-0.16759411990642548,12.797008514404297,5.183446884155273,44.8760986328125,-64.75830078125,79.0863037109375
17.109999900000002,0.12689268589019775,12.773066520690918,4.920084476470947,48.553466796875,-55.84716796875,105.5450439453125
17.1299999,0.48602294921875,12.6365966796875,4.505887508392334,43.487548828125,-48.797607421875,150.787353515625
17.1499999,0.7038952708244324,12.126631736755371,4.091690540313721,55.23681640625,-65.3533935546875,160.9039306640625
17.1699999,0.730231523513794,11.362881660461426,3.734954595565796,50.6439208984375,-58.349609375,143.8140869140625
17.1899999,0.569819986820221,10.493785858154297,3.40216064453125,15.0909423828125,-14.7857666015625,145.8740234375
17.2099999,0.3711012601852417,9.612719535827637,3.155557870864868,-6.317138671875,15.411376953125,154.2816162109375
17.2299999,0.2561795711517334,8.992621421813965,2.978386878967285,17.059326171875,4.5166015625,122.8485107421875
17.249999900000002,0.0933738648891449,8.710105895996094,2.7030537128448486,25.4364013671875,-19.6685791015625,69.6868896484375
17.269999900000002,-0.1628057211637497,8.724471092224121,2.322375535964966,3.0364990234375,-6.04248046875,80.0323486328125
17.2899999,-0.4692635238170624,9.059659004211426,1.8076223134994507,-7.049560546875,24.8870849609375,110.0616455078125
17.3099999,-0.6775590777397156,9.354146003723145,1.2976573705673218,-6.40869140625,43.5638427734375,103.271484375
17.3299999,-0.5386953949928284,9.23682975769043,1.3120225667953491,14.70947265625,69.580078125,79.3609619140625
17.3499999,0.1628057211637497,8.619126319885254,1.8531121015548706,15.594482421875,45.3033447265625,72.1893310546875
17.3699999,1.036689281463623,7.558494567871094,2.7437551021575928,4.69970703125,-2.5482177734375,62.3321533203125
17.3899999,1.8794482946395874,6.469132900238037,3.646369218826294,8.148193359375,-7.6446533203125,41.4276123046875
17.409999900000003,2.5498247146606445,5.760449409484863,4.170699596405029,2.7008056640625,4.1046142578125,50.0335693359375
17.429999900000002,2.9879636764526367,5.451597213745117,4.32871675491333,-0.9918212890625,11.871337890625,76.416015625
17.4499999,3.406949043273926,5.456385612487793,4.343081951141357,6.2255859375,6.378173828125,57.891845703125
17.4699999,3.909731388092041,5.363011837005615,4.395754337310791,1.739501953125,-21.2860107421875,2.410888671875
17.4899999,4.345476150512695,5.331887245178223,4.41969633102417,-0.4425048828125,-41.9158935546875,-48.6907958984375
17.5099999,4.587290287017822,5.7556610107421875,4.2975921630859375,-0.335693359375,-18.890380859375,-63.41552734375
17.5299999,4.663905143737793,6.6630635261535645,3.998316764831543,-7.75146484375,27.862548828125,-18.7530517578125
17.5499999,4.620809078216553,7.422025203704834,3.794809579849243,-61.065673828125,38.4368896484375,38.116455078125
17.5699999,4.537012100219727,7.951143741607666,3.866635799407959,-60.2264404296875,64.9261474609375,-49.49951171875
17.589999900000002,4.517858505249023,7.4100542068481445,4.565742492675781,-21.1029052734375,78.3538818359375,-115.6158447265625
17.609999900000002,4.613626480102539,6.888118267059326,5.5976433753967285,29.2816162109375,41.8701171875,-122.3907470703125
17.6299999,4.639962673187256,6.703764915466309,6.497863292694092,80.047607421875,16.3116455078125,-119.873046875
17.6499999,4.618414878845215,7.220912456512451,7.003039836883545,93.6279296875,67.4285888671875,-176.8341064453125
17.6699999,4.285621166229248,8.269572257995605,6.67982292175293,102.4932861328125,11.444091796875,-183.502197265625
17.6899999,3.509899616241455,9.502586364746094,5.638344764709473,77.728271484375,-58.349609375,-130.0811767578125
17.7099999,2.497152328491211,10.129867553710938,4.371812343597412,43.6553955078125,-40.52734375,-90.0726318359375
17.7299999,1.556231141090393,10.457873344421387,3.270479440689087,-4.69970703125,-25.1922607421875,-57.1746826171875
17.749999900000002,0.8810662031173706,10.42195987701416,2.513911724090576,-13.24462890625,-56.182861328125,-32.012939453125
17.769999900000002,0.727837324142456,10.08198356628418,2.3750481605529785,12.115478515625,-59.02099609375,-18.4173583984375
17.7899999,0.6607996821403503,9.435548782348633,2.3558945655822754,28.3355712890625,-65.4449462890625,-9.94873046875
17.8099999,0.730231523513794,8.62391471862793,2.365471363067627,13.7176513671875,-85.3118896484375,-2.6702880859375
17.8299999,0.768538773059845,7.527369976043701,2.427720546722412,-29.4342041015625,-65.2313232421875,22.6898193359375
17.8499999,0.8619126081466675,6.955155849456787,2.5450363159179688,-62.7899169921875,-63.446044921875,29.052734375
17.8699999,0.9983820915222168,6.789956092834473,2.7509377002716064,-29.2510986328125,-78.9031982421875,28.2135009765625
17.8899999,1.1635819673538208,7.340622425079346,3.021482467651367,4.669189453125,-82.09228515625,3.1890869140625
17.909999900000003,1.3766659498214722,7.970297336578369,3.3255462646484375,-3.6773681640625,-46.93603515625,-19.805908203125
17.929999900000002,1.623268723487854,8.552088737487793,3.6343982219696045,-2.4261474609375,-37.7655029296875,-28.472900390625
17.9499999,1.9704279899597168,8.559270858764648,4.345476150512695,-21.6064453125,-15.56396484375,-56.396484375
17.9699999,2.5115175247192383,8.609549522399902,5.274426460266113,-55.2215576171875,-32.77587890625,-71.7010498046875
17.9899999,2.7054479122161865,8.315062522888184,6.217741966247559,-42.6025390625,-116.9891357421875,-36.9873046875
18.0099999,2.432508945465088,7.929595947265625,6.62236213684082,-12.2528076171875,-122.9705810546875,-119.476318359375
18.0299999,1.6735470294952393,8.159439086914062,6.380547523498535,-3.326416015625,-120.4071044921875,-218.7652587890625
18.0499999,0.38546648621559143,8.33182144165039,5.295974254608154,-3.2501220703125,-124.8626708984375,-148.3612060546875
18.0699999,-0.9648633003234863,8.944737434387207,3.9169139862060547,49.37744140625,-148.529052734375,-88.7451171875
18.089999900000002,-2.0422539710998535,9.425971984863281,2.583343744277954,70.9075927734375,-164.642333984375,-56.243896484375
18.109999900000002,-2.6360161304473877,9.744400978088379,1.7070658206939697,50.8575439453125,-137.0697021484375,-38.8641357421875
18.1299999,-2.738966703414917,9.6989107131958,1.4077905416488647,-1.2054443359375,-128.4027099609375,-44.37255859375
18.1499999,-2.561795711517334,9.263166427612305,1.6328455209732056,-7.6904296875,-132.537841796875,-77.0263671875
18.1699999,-2.097320795059204,9.263166427612305,2.497152328491211,-44.25048828125,-117.0806884765625,-110.0616455078125
18.1899999,-1.6496049165725708,9.5408935546875,3.3518824577331543,-73.7152099609375,-124.9542236328125,-34.5001220703125
18.2099999,-1.1061211824417114,10.256759643554688,4.49870491027832,-6.439208984375,-137.176513671875,47.9278564453125
18.2299999,-0.3974374830722809,11.073183059692383,5.626373767852783,39.215087890625,-126.77001953125,-29.1595458984375
18.249999900000002,-0.13168109953403473,11.422736167907715,6.090848922729492,102.752685546875,-139.83154296875,-131.0272216796875
18.269999900000002,-0.3016694188117981,11.233593940734863,5.913678169250488,122.1771240234375,-140.4571533203125,-140.80810546875
18.2899999,-0.9600749015808105,10.852916717529297,4.991910457611084,93.3837890625,-150.93994140625,-83.984375
18.3099999,-1.900996208190918,10.60391902923584,3.514688014984131,80.38330078125,-159.0728759765625,-50.23193359375
18.3299999,-2.738966703414917,10.66137981414795,1.9967641830444336,91.156005859375,-156.2652587890625,-32.77587890625
18.3499999,-3.248931646347046,10.8720703125,0.7972691655158997,80.169677734375,-148.1170654296875,-5.4931640625
18.3699999,-3.3710360527038574,11.03248119354248,-0.08140286058187485,67.3370361328125,-137.6800537109375,13.031005859375
18.3899999,-3.251325845718384,10.891223907470703,-0.7230489253997803,59.99755859375,-127.1209716796875,28.5186767578125
18.409999900000003,-2.8131868839263916,10.381258964538574,-1.0223240852355957,42.449951171875,-117.767333984375,54.38232421875
18.429999900000002,-2.188300371170044,9.718064308166504,-1.0845733880996704,36.0260009765625,-113.3575439453125,67.3370361328125
18.4499999,-1.580173134803772,9.155426979064941,-1.0534487962722778,53.955078125,-128.0059814453125,59.173583984375
18.4699999,-0.9911994934082031,8.793902397155762,-0.9672574996948242,52.8106689453125,-137.9547119140625,49.9420166015625
18.4899999,-0.6823474764823914,8.53532886505127,-1.072602391242981,44.73876953125,-136.3525390625,36.2701416015625
18.5099999,-0.7038952708244324,8.118738174438477,-1.4915876388549805,44.49462890625,-141.4337158203125,25.848388671875
18.5299999,-0.9768342971801758,7.343016624450684,-2.10210919380188,28.2745361328125,-153.6102294921875,30.059814453125
18.5499999,-1.314416766166687,6.528987884521484,-2.7030537128448486,10.2691650390625,-162.6129150390625,42.022705078125
18.5699999,-1.601720929145813,5.849034786224365,-3.201047658920288,-9.6435546875,-173.9654541015625,62.98828125
18.589999900000002,-1.721431016921997,5.408501625061035,-3.375824451446533,-15.9759521484375,-177.764892578125,57.9986572265625
18.609999900000002,-1.7980455160140991,5.4228668212890625,-3.4955344200134277,-14.7552490234375,-155.548095703125,31.463623046875
18.6299999,-1.8602946996688843,5.657498836517334,-3.533841609954834,-27.618408203125,-116.7755126953125,12.8021240234375
18.6499999,-1.886630892753601,6.021417140960693,-3.603273630142212,-24.1851806640625,-103.1494140625,-3.753662109375
18.6699999,-1.723825216293335,6.44279670715332,-3.5003228187561035,-11.260986328125,-81.1767578125,-15.045166015625
18.6899999,-1.41257905960083,6.840234279632568,-3.2130186557769775,2.8533935546875,-58.5174560546875,-16.3421630859375
18.7099999,-0.790086567401886,7.017405033111572,-2.456450939178467,-34.4085693359375,-52.2308349609375,6.5460205078125
18.7299999,-0.21787235140800476,7.029376029968262,-1.4245500564575195,-79.3609619140625,-63.5833740234375,27.587890625
18.749999900000002,0.181959331035614,6.904877662658691,-0.2968810200691223,-82.6873779296875,-98.6175537109375,27.7862548828125
18.769999900000002,0.31124621629714966,6.708553314208984,0.8427590131759644,-105.0262451171875,-109.161376953125,37.17041015625
18.7899999,0.07182604819536209,6.7277069091796875,1.7836803197860718,-161.7431640625,-108.2305908203125,61.309814453125
18.8099999,-0.28730419278144836,6.979097843170166,2.6431987285614014,-231.231689453125,-121.0479736328125,83.9385986328125
18.8299999,-0.7469909191131592,7.493851184844971,3.3255462646484375,-234.6038818359375,-129.974365234375,80.657958984375
18.8499999,-1.2234370708465576,7.931990146636963,3.9001545906066895,-216.1712646484375,-113.58642578125,50.018310546875
18.8699999,-1.5705963373184204,8.166622161865234,4.448426723480225,-181.7474365234375,-103.1036376953125,-3.173828125
18.8899999,-1.9967641830444336,8.133103370666504,5.032611846923828,-111.175537109375,-104.0802001953125,-78.55224609375
18.909999900000003,-2.2697031497955322,8.164227485656738,5.719748020172119,-53.985595703125,-128.143310546875,-143.2342529296875
18.929999900000002,-2.604891538619995,8.501810073852539,6.301538944244385,-10.6658935546875,-143.3563232421875,-180.48095703125
18.9499999,-3.0334534645080566,9.141061782836914,6.677428722381592,0.640869140625,-120.8648681640625,-164.3829345703125
18.9699999,-3.471592426300049,10.08437728881836,6.698976516723633,-52.9022216796875,-89.4775390625,-140.899658203125
18.9899999,-3.7636849880218506,10.788272857666016,6.768408298492432,-127.532958984375,-81.8328857421875,-99.8382568359375
19.0099999,-3.8283286094665527,11.173739433288574,7.082048416137695,-132.232666015625,-97.35107421875,-91.0186767578125
19.0299999,-3.823540210723877,11.001357078552246,7.812280178070068,-45.59326171875,-137.939453125,-148.0255126953125
19.0499999,-3.8977603912353516,10.232817649841309,8.542511940002441,40.1458740234375,-197.75390625,-193.54248046875
19.0699999,-4.333505153656006,9.840168952941895,9.136273384094238,199.127197265625,-204.803466796875,-219.970703125
19.089999900000002,-5.044582843780518,9.639056205749512,8.959102630615234,171.0357666015625,-254.058837890625,-159.1033935546875
19.109999900000002,-5.592854976654053,10.14902114868164,8.056488990783691,-0.946044921875,-274.2462158203125,-77.301025390625
19.1299999,-6.052541732788086,11.061211585998535,6.452373504638672,-8.026123046875,-212.2039794921875,-109.8480224609375
19.1499999,-6.035782337188721,11.994950294494629,4.359841346740723,9.6588134765625,-217.620849609375,-134.8419189453125
19.1699999,-5.731719017028809,12.717999458312988,2.212242364883423,-58.319091796875,-216.766357421875,-80.078125
19.1899999,-5.236119270324707,13.108254432678223,0.5003881454467773,-88.470458984375,-147.0947265625,-14.3890380859375
19.2099999,-4.501099109649658,13.074735641479492,-0.4429273009300232,-68.05419921875,-67.138671875,19.1650390625
19.2299999,-3.780444383621216,12.459425926208496,-0.4165911078453064,-57.9833984375,-40.71044921875,31.8756103515625
19.249999900000002,-3.0813376903533936,11.51850414276123,0.10534487664699554,-31.43310546875,-95.9625244140625,3.47900390625
19.269999900000002,-2.432508945465088,10.47702693939209,1.0534487962722778,-6.805419921875,-108.489990234375,-24.23095703125
19.2899999,-2.0183119773864746,9.509769439697266,1.721431016921997,-20.538330078125,-114.532470703125,-29.9072265625
19.3099999,-1.644816517829895,8.801085472106934,2.2170307636260986,-6.65283203125,-112.2894287109375,-39.1998291015625
19.3299999,-1.37906014919281,8.255207061767578,2.63362193107605,17.852783203125,-98.236083984375,-23.9715576171875
19.3499999,-1.2880805730819702,7.82185697555542,2.889801502227783,36.102294921875,-98.358154296875,-25.4058837890625
19.3699999,-1.3527239561080933,7.450755596160889,2.9975404739379883,46.539306640625,-106.26220703125,-57.0831298828125
19.3899999,-1.5945383310317993,7.175422668457031,2.7940332889556885,33.4014892578125,-96.0235595703125,-69.122314453125
19.409999900000003,-1.9584569931030273,6.921637058258057,2.363077163696289,15.3961181640625,-53.3294677734375,-47.3785400390625
19.429999900000002,-2.3247697353363037,6.7708024978637695,1.7932571172714233,-5.2337646484375,-23.773193359375,-14.46533203125
19.4499999,-2.564189910888672,6.799532890319824,1.3886369466781616,-17.059326171875,-7.476806640625,-11.1541748046875
19.4699999,-2.6024973392486572,6.933608055114746,1.2234370708465576,-45.013427734375,-0.091552734375,-35.858154296875
19.4899999,-2.516305923461914,7.2137298583984375,1.3072341680526733,-33.8897705078125,4.6539306640625,-50.84228515625
19.5099999,-2.341529369354248,7.587224960327148,1.4508862495422363,17.2271728515625,-7.965087890625,-68.0084228515625
19.5299999,-2.2577321529388428,8.051700592041016,1.4939818382263184,72.662353515625,-5.5694580078125,-91.49169921875
19.5499999,-2.365471363067627,8.616731643676758,1.3287819623947144,93.536376953125,24.993896484375,-88.8824462890625
19.5699999,-2.5953147411346436,9.229647636413574,1.0007762908935547,85.7086181640625,56.6558837890625,-65.85693359375
19.589999900000002,-2.942473888397217,10.08198356628418,0.40940847992897034,87.3260498046875,68.328857421875,-75.01220703125
19.609999900000002,-3.227383852005005,10.919954299926758,-0.24181437492370605,78.5064697265625,74.6917724609375,-76.7059326171875
19.6299999,-3.509899616241455,11.710040092468262,-0.9097966551780701,70.159912109375,100.799560546875,-54.8858642578125
19.6499999,-3.869029998779297,12.327744483947754,-1.723825216293335,79.010009765625,137.5732421875,-46.1578369140625
19.6699999,-4.5394062995910645,12.528857231140137,-2.3367409706115723,64.239501953125,202.81982421875,-22.3846435546875
19.6899999,-5.485116004943848,12.27267837524414,-2.454056739807129,-18.24951171875,243.2098388671875,37.0635986328125
19.7099999,-6.584054470062256,11.645397186279297,-2.1284453868865967,-97.564697265625,228.82080078125,63.568115234375
19.7299999,-7.352593421936035,10.943896293640137,-1.2856862545013428,-141.7999267578125,208.4503173828125,45.3948974609375
19.749999900000002,-7.687781810760498,10.393229484558105,-0.38067805767059326,-145.0347900390625,208.740234375,12.298583984375
19.769999900000002,-7.445967197418213,10.14902114868164,0.4357447028160095,-143.2647705078125,169.8760986328125,10.772705078125
19.7899999,-7.041347026824951,10.24000072479248,0.9169792532920837,-89.3402099609375,142.5933837890625,16.204833984375
19.8099999,-6.818686485290527,10.469843864440918,1.2952631711959839,-37.2161865234375,157.16552734375,29.8309326171875
19.8299999,-6.909666061401367,10.809821128845215,1.6160861253738403,-33.4625244140625,176.3916015625,57.952880859375
19.8499999,-7.275979042053223,11.262324333190918,1.886630892753601,-61.370849609375,183.074951171875,85.63232421875
19.8699999,-7.747636795043945,11.57596492767334,2.205059766769409,-105.0872802734375,198.5626220703125,84.197998046875
19.8899999,-8.1139497756958,11.60948371887207,2.6647465229034424,-140.167236328125,200.469970703125,84.5794677734375
19.909999900000003,-8.092401504516602,10.948684692382812,3.3446998596191406,-186.1572265625,168.9300537109375,144.9737548828125
19.929999900000002,-7.7763671875,9.617507934570312,4.1395745277404785,-251.861572265625,107.48291015625,145.416259765625
19.9499999,-7.254431247711182,8.015787124633789,5.073313236236572,-250.8087158203125,96.435546875,105.010986328125
19.9699999,-6.892906665802002,6.610390663146973,6.026205539703369,-116.14990234375,143.2952880859375,125.7781982421875
19.9899999,-6.658275127410889,5.590460777282715,6.646304130554199,-0.1220703125,172.2412109375,169.2352294921875
20.0099999,-7.280767440795898,5.236119270324707,7.01979923248291,-24.1851806640625,139.7857666015625,181.7169189453125
20.0299999,-7.479485988616943,5.363011837005615,6.94079065322876,-74.7222900390625,141.998291015625,226.1810302734375
20.0499999,-7.580042362213135,5.243301868438721,6.926425457000732,-126.52587890625,196.014404296875,279.571533203125
20.0699999,-6.888118267059326,5.173870086669922,6.926425457000732,-66.253662109375,156.43310546875,222.137451171875
20.089999900000002,-5.681440830230713,4.972756862640381,7.137115478515625,32.745361328125,82.4737548828125,119.903564453125
20.109999900000002,-4.400542736053467,4.776432514190674,7.347805023193359,48.5076904296875,67.9168701171875,97.96142578125
20.1299999,-3.4763808250427246,4.836287498474121,7.24485445022583,27.618408203125,53.77197265625,114.288330078125
20.1499999,-3.0597896575927734,5.0469770431518555,6.852205276489258,40.10009765625,33.2794189453125,105.46875
