# Time (seconds),Accel_X,Accel_Y,Accel_Z,Gyro_X,Gyro_Y,Gyro_Z
0.0099999,1.7046716213226318,4.285621166229248,9.684545516967773,15.7318115234375,-14.5416259765625,16.05224609375
0.029999900000000003,1.5825673341751099,4.611232280731201,9.41400146484375,24.90234375,20.08056640625,50.9796142578125
0.0499999,1.5682021379470825,4.654327869415283,9.253589630126953,1.708984375,57.6019287109375,40.9393310546875
0.0699999,1.7477672100067139,4.352658748626709,9.222464561462402,6.195068359375,44.1131591796875,15.93017578125
0.08999990000000001,1.742978811264038,3.952826976776123,9.265560150146484,64.5294189453125,1.0986328125,-5.4473876953125
0.10999990000000001,1.702277421951294,3.7828385829925537,9.155426979064941,132.50732421875,11.7645263671875,-25.115966796875
0.1299999,1.2641384601593018,3.8355112075805664,9.002198219299316,77.4383544921875,51.9561767578125,-0.9307861328125
0.14999990000000002,0.6703764796257019,4.108449935913086,8.954314231872559,-6.8817138671875,83.92333984375,36.7584228515625
0.1699999,0.1173158809542656,4.288015365600586,8.96389102935791,75.1190185546875,52.032470703125,93.475341796875
0.1899999,-0.3495534360408783,4.046200752258301,9.119514465332031,44.2352294921875,16.357421875,162.078857421875
0.20999990000000002,-0.5793967843055725,3.3734302520751953,9.093177795410156,13.9312744140625,11.7340087890625,174.6673583984375
0.2299999,-0.6560112833976746,2.3032219409942627,8.968679428100586,13.9617919921875,46.3714599609375,120.941162109375
0.2499999,-0.6392518281936646,1.2282254695892334,8.944737434387207,-22.0489501953125,83.31298828125,39.8712158203125
0.2699999,-0.5147533416748047,0.6105214357376099,9.093177795410156,-30.426025390625,74.27978515625,-24.017333984375
0.28999990000000003,-0.35434186458587646,0.689530074596405,9.488221168518066,-61.4776611328125,47.332763671875,-45.989990234375
0.3099999,-0.1867477297782898,1.4389152526855469,9.945513725280762,-68.0999755859375,25.9552001953125,-28.9154052734375
0.3299999,-0.08619125932455063,2.4205379486083984,10.357316970825195,-24.5361328125,22.125244140625,14.434814453125
0.34999990000000003,-0.090979665517807,3.1268274784088135,10.668562889099121,-8.8348388671875,28.1524658203125,48.40087890625
0.3699999,-0.15801730751991272,3.2824504375457764,10.831368446350098,-20.3704833984375,26.2603759765625,49.1485595703125
0.3899999,-0.22744916379451752,3.00711727142334,10.793061256408691,-25.146484375,11.16943359375,15.4571533203125
0.40999990000000003,-0.22266076505184174,2.6408045291900635,10.5344877243042,-59.417724609375,4.4403076171875,-14.46533203125
0.4299999,-0.15562310814857483,2.43011474609375,10.091560363769531,-63.9190673828125,11.566162109375,-3.84521484375
0.4499999,-0.038307227194309235,2.2840683460235596,9.672574996948242,-38.14697265625,30.6549072265625,43.39599609375
0.4699999,0.05027823522686958,1.9800047874450684,9.399636268615723,-39.0777587890625,31.3873291015625,84.53369140625
0.4899999,0.08858546614646912,1.314416766166687,9.258378028869629,-59.5855712890625,-4.1961669921875,88.3636474609375
0.5099999,0.15562310814857483,0.4836287498474121,9.07641887664795,-45.59326171875,-37.0635986328125,35.980224609375
0.5299999,0.3064578175544739,-0.0933738648891449,8.844181060791016,-30.0445556640625,4.8980712890625,-36.0870361328125
0.5499999,0.5889736413955688,-0.17956513166427612,8.834604263305664,-13.61083984375,94.7418212890625,-53.6041259765625
0.5699999,0.8571242094039917,0.13168109953403473,9.308655738830566,14.7552490234375,163.39111328125,2.8839111328125
0.5899998999999999,1.0031704902648926,0.4165911078453064,10.441113471984863,-16.815185546875,157.0281982421875,84.65576171875
0.6099998999999999,0.9696516990661621,0.2825157940387726,11.796232223510742,-54.473876953125,44.8150634765625,105.0567626953125
0.6299999,0.7852981686592102,-0.29209262132644653,12.624625205993652,-68.389892578125,-90.7135009765625,63.2781982421875
0.6499999,0.6560112833976746,-1.0558429956436157,12.459425926208496,-80.01708984375,-138.5498046875,20.5535888671875
0.6699999,0.6871358752250671,-1.7381904125213623,11.207258224487305,-58.380126953125,-95.855712890625,9.0789794921875
0.6899999,0.8930372595787048,-2.185906171798706,9.442731857299805,-36.1328125,-7.598876953125,10.589599609375
0.7099999,1.1971008777618408,-2.3989901542663574,7.943961143493652,-38.1317138671875,57.1746826171875,-13.946533203125
0.7299998999999999,1.534683346748352,-2.360682964324951,7.220912456512451,-54.8095703125,80.87158203125,-48.095703125
0.7499998999999999,1.7764976024627686,-2.008735179901123,7.481880187988281,-66.6351318359375,83.4808349609375,-61.0504150390625
0.7699999,1.9297266006469727,-1.338358759880066,8.394071578979492,-38.3758544921875,60.4248046875,-41.9464111328125
0.7899999,1.9177556037902832,-0.6416460275650024,9.569623947143555,-9.429931640625,33.26416015625,11.2457275390625
0.8099999,1.7980455160140991,-0.2513911724090576,10.517727851867676,1.861572265625,10.406494140625,58.7615966796875
0.8299999,1.5705963373184204,-0.35673606395721436,10.994174003601074,-8.270263671875,-7.4005126953125,61.6607666015625
0.8499998999999999,1.3096283674240112,-0.8236053586006165,10.845733642578125,-6.2713623046875,-21.78955078125,24.7802734375
0.8699998999999999,1.0606313943862915,-1.2066776752471924,10.192116737365723,18.2342529296875,-11.7034912109375,-14.984130859375
0.8899999,0.7829039692878723,-1.158793568611145,9.339780807495117,27.862548828125,28.045654296875,-14.862060546875
0.9099999,0.4118026793003082,-0.646434485912323,8.65982723236084,0.7171630859375,48.5992431640625,21.66748046875
0.9299999,0.016759412363171577,0.12928688526153564,8.310274124145508,-30.7159423828125,21.209716796875,45.7611083984375
0.9499999,-0.3758896589279175,0.8259995579719543,8.38688850402832,-43.1060791015625,4.7149658203125,51.3153076171875
0.9699998999999999,-0.6272808313369751,1.2521674633026123,8.78432559967041,-24.7955322265625,21.209716796875,63.5986328125
0.9899998999999999,-0.7015010714530945,1.3455413579940796,9.26795482635498,7.720947265625,20.3094482421875,80.413818359375
1.0099999,-0.730231523513794,1.1659762859344482,9.660603523254395,31.3873291015625,-3.326416015625,85.4034423828125
1.0299999,-0.689530074596405,0.768538773059845,9.911994934082031,21.8505859375,1.1749267578125,86.0595703125
1.0499999,-0.6368576288223267,0.31124621629714966,10.062829971313477,18.829345703125,44.0673828125,74.676513671875
1.0699999,-0.5889736413955688,-0.08379705995321274,10.285490036010742,1.28173828125,85.0677490234375,47.36328125
1.0899999,-0.6105214357376099,-0.33758243918418884,10.74996566772461,-19.927978515625,84.2437744140625,34.72900390625
1.1099999,-0.7086837291717529,-0.3734954595565796,11.305420875549316,-5.8135986328125,45.0286865234375,42.724609375
1.1299999,-0.9026140570640564,-0.1867477297782898,11.647790908813477,13.5040283203125,-0.2288818359375,54.840087890625
1.1499999,-0.9983820915222168,0.19632454216480255,11.599906921386719,13.6260986328125,-3.7689208984375,56.884765625
1.1699998999999999,-1.0247182846069336,0.7206547260284424,11.192893028259277,2.655029296875,19.1192626953125,55.8319091796875
1.1899998999999999,-1.0342950820922852,1.280897855758667,10.594342231750488,11.3372802734375,27.5421142578125,65.521240234375
1.2099999,-1.139639973640442,1.7142484188079834,10.070012092590332,21.331787109375,32.1197509765625,86.36474609375
1.2299999,-1.3646949529647827,1.889025092124939,9.801861763000488,12.0849609375,36.6058349609375,108.0474853515625
1.2499999,-1.5682021379470825,1.9536685943603516,9.653421401977539,27.9083251953125,32.440185546875,98.1903076171875
1.2699999,-1.5729905366897583,1.9273324012756348,9.514557838439941,21.759033203125,16.1895751953125,62.286376953125
1.2899999,-1.53707754611969,1.922544002532959,9.23682975769043,24.0936279296875,-5.6610107421875,62.07275390625
1.3099999,-1.5418659448623657,1.9991583824157715,8.995016098022461,22.1099853515625,28.4881591796875,63.4613037109375
1.3299999,-1.9273324012756348,1.8626888990402222,9.095572471618652,53.0242919921875,74.6917724609375,79.8187255859375
1.3499999,-2.7246015071868896,1.403002142906189,9.797073364257812,71.6552734375,79.9407958984375,114.837646484375
1.3699999,-3.706224203109741,0.608127236366272,10.919954299926758,50.7354736328125,17.1051025390625,87.4481201171875
1.3899999,-4.592078685760498,-0.15801730751991272,11.803414344787598,29.388427734375,-65.582275390625,0.6256103515625
1.4099999,-5.116408824920654,-0.5291185975074768,12.052411079406738,0.1983642578125,-71.1517333984375,-48.2025146484375
1.4299998999999999,-5.161899089813232,-0.3663128614425659,11.525687217712402,0.762939453125,-29.5562744140625,-30.8990478515625
1.4499999,-4.884171485900879,0.1628057211637497,10.627861022949219,38.26904296875,-14.8773193359375,1.495361328125
1.4699999,-4.4508209228515625,0.7158663272857666,9.823410034179688,37.6129150390625,-25.5126953125,-7.354736328125
1.4899999,-3.9671921730041504,1.048660397529602,9.29189682006836,12.7410888671875,-40.71044921875,-47.0733642578125
1.5099999,-3.5386300086975098,1.3024457693099976,9.006986618041992,27.984619140625,-47.515869140625,-81.7108154296875
1.5299999,-3.1196448802948,1.6328455209732056,8.779537200927734,30.4107666015625,-50.9185791015625,-74.8748779296875
1.5499999,-2.734178304672241,2.10210919380188,8.520963668823242,9.979248046875,-55.3131103515625,-34.8052978515625
1.5699999,-2.4420857429504395,2.4612393379211426,8.250418663024902,32.3486328125,-33.905029296875,20.9808349609375
1.5899999,-2.209848165512085,2.473210334777832,8.276755332946777,58.990478515625,20.7366943359375,62.92724609375
1.6099999,-2.1284453868865967,2.300827741622925,8.695740699768066,52.764892578125,43.27392578125,28.0303955078125
1.6299999,-1.9943699836730957,1.920149803161621,9.30386734008789,30.70068359375,-15.7470703125,-18.85986328125
1.6499999,-1.867477297782898,1.86508309841156,9.782708168029785,30.9906005859375,-60.3179931640625,-69.091796875
1.6699999,-1.6400281190872192,2.1164743900299072,9.615114212036133,89.7064208984375,-21.1029052734375,-71.1517333984375
1.6899998999999999,-1.4437036514282227,2.6360161304473877,8.87291145324707,20.0653076171875,67.169189453125,-52.30712890625
1.7099999,-1.522712230682373,3.337517261505127,7.872135162353516,-30.8990478515625,138.275146484375,-60.3790283203125
1.7299999,-1.9129672050476074,3.97916316986084,7.331045627593994,15.3045654296875,191.162109375,-2.5787353515625
1.7499999,-2.6168625354766846,4.393360137939453,7.73087739944458,-39.6575927734375,205.50537109375,59.2803955078125
1.7699999,-3.4548330307006836,4.4508209228515625,8.939949035644531,-78.4454345703125,106.3995361328125,57.9376220703125
1.7899999,-4.122815132141113,4.048594951629639,10.283096313476562,-78.61328125,-33.0657958984375,42.022705078125
1.8099999,-4.469974517822266,3.2417490482330322,10.948684692382812,-50.262451171875,-83.9996337890625,41.3360595703125
1.8299999,-4.58968448638916,2.2625205516815186,10.611102104187012,-75.01220703125,-8.575439453125,10.589599609375
1.8499999,-4.489128112792969,1.4317326545715332,9.488221168518066,-91.278076171875,70.25146484375,-46.08154296875
1.8699999,-4.359841346740723,1.3048399686813354,8.576030731201172,-50.8575439453125,100.921630859375,-83.8470458984375
1.8899999,-4.288015365600586,1.534683346748352,8.329427719116211,-50.7965087890625,58.3038330078125,-21.1334228515625
1.9099999,-4.24970817565918,1.8818424940109253,8.585607528686523,-44.952392578125,-21.0723876953125,61.5997314453125
1.9299998999999999,-4.273650169372559,1.9608511924743652,9.095572471618652,-65.216064453125,-31.2042236328125,30.426025390625
1.9499999,-4.299986362457275,1.6424223184585571,9.41400146484375,-48.614501953125,-11.6424560546875,-33.050537109375
1.9699999,-4.2975921630859375,1.280897855758667,9.583989143371582,-11.8255615234375,-12.6495361328125,-29.1900634765625
1.9899999,-4.2544965744018555,1.1013327836990356,9.670180320739746,-3.326416015625,-53.03955078125,16.54052734375
2.0099999,-4.240131378173828,1.0295066833496094,9.806650161743164,-23.3306884765625,-81.8328857421875,41.0003662109375
2.0299999,-4.19224739074707,0.8403648138046265,10.014945983886719,-22.88818359375,-87.4176025390625,32.2723388671875
2.0499999,-4.094084739685059,0.608127236366272,10.165780067443848,-22.6898193359375,-122.4212646484375,11.260986328125
2.0699999,-3.7660791873931885,0.36152446269989014,10.225635528564453,-51.8341064453125,-166.19873046875,22.9644775390625
2.0899999,-3.2776620388031006,0.2346317619085312,10.029311180114746,-54.9774169921875,-171.630859375,19.7296142578125
2.1099999,-2.6815059185028076,0.19393034279346466,9.567230224609375,0.732421875,-118.3013916015625,0.2288818359375
2.1299999,-2.03507137298584,0.1173158809542656,9.105149269104004,81.6802978515625,-45.3643798828125,12.786865234375
2.1499999,-1.4748282432556152,0.033518824726343155,8.734047889709473,77.850341796875,-26.6876220703125,8.392333984375
2.1699999,-1.0271124839782715,0.05267243832349777,8.755595207214355,38.3758544921875,-15.411376953125,-26.4739990234375
2.1899999,-0.5793967843055725,0.040701430290937424,9.045293807983398,68.17626953125,7.7667236328125,-2.01416015625
2.2099999,-0.2992752194404602,0.040701430290937424,9.399636268615723,8.453369140625,-5.096435546875,15.1824951171875
2.2299999,-0.1149216815829277,-0.2059013396501541,9.500192642211914,-84.4573974609375,-46.600341796875,-9.429931640625
2.2499999,-0.14365209639072418,-0.6823474764823914,9.244012832641602,-130.218505859375,-17.303466796875,-32.0281982421875
2.2699999,-0.3687070608139038,-1.1803414821624756,8.542511940002441,-10.1318359375,70.098876953125,-42.816162109375
2.2899999,-0.9193734526634216,-1.338358759880066,7.644686222076416,110.260009765625,171.5240478515625,-85.02197265625
2.3099999,-1.647210717201233,-0.9744400978088379,6.979097843170166,64.0411376953125,266.3726806640625,-117.5537109375
2.3299999,-2.564189910888672,0.016759412363171577,7.429207801818848,-30.33447265625,328.094482421875,-77.1636962890625
2.3499999,-3.442862033843994,1.0199298858642578,8.753201484680176,-53.16162109375,236.175537109375,24.5819091796875
2.3699999,-4.175487995147705,1.6687586307525635,10.429142951965332,-81.0699462890625,35.552978515625,73.3489990234375
2.3899999,-4.6040496826171875,1.6328455209732056,11.834539413452148,-107.8033447265625,-44.708251953125,88.6688232421875
2.4099999,-4.733336925506592,0.8786720037460327,12.073959350585938,-102.96630859375,-29.449462890625,105.010986328125
2.4299999,-4.58968448638916,-0.2753331959247589,11.322179794311523,-103.8818359375,-10.894775390625,81.390380859375
2.4499999,-4.326322555541992,-1.558625340461731,10.338163375854492,-90.8203125,14.251708984375,36.041259765625
2.4699999,-4.072536945343018,-2.5785553455352783,9.715670585632324,-47.0428466796875,21.3165283203125,1.4190673828125
2.4899999,-3.9001545906066895,-2.9688100814819336,9.792284965515137,-3.753662109375,-34.5916748046875,-4.4097900390625
2.5099999,-3.8091750144958496,-2.7557260990142822,10.44350814819336,-5.18798828125,-131.4849853515625,38.0706787109375
2.5299999,-3.7038300037384033,-2.123656988143921,10.955866813659668,-63.65966796875,-219.1162109375,78.67431640625
2.5499999,-3.4955344200134277,-1.6041151285171509,10.795455932617188,-92.559814453125,-230.6060791015625,90.545654296875
2.5699999,-3.114856481552124,-1.5418659448623657,9.914389610290527,-70.068359375,-128.387451171875,67.4285888671875
2.5899999,-2.6024973392486572,-1.7980455160140991,8.9064302444458,-40.46630859375,-14.984130859375,3.0975341796875
2.6099999,-2.0638017654418945,-2.1045033931732178,8.537723541259766,-34.9578857421875,-3.9215087890625,-34.8663330078125
2.6299999,-1.5203180313110352,-2.2361843585968018,8.951920509338379,-68.023681640625,-72.8607177734375,-23.98681640625
2.6499999,-1.1348515748977661,-2.099714994430542,9.715670585632324,-76.3702392578125,-125.8544921875,-18.0206298828125
2.6699999,-0.9792284965515137,-1.9632453918457031,10.319009780883789,-46.93603515625,-108.642578125,-22.0947265625
2.6899999,-0.790086567401886,-1.9991583824157715,10.326191902160645,15.2130126953125,-89.4775390625,6.8817138671875
2.7099999,-0.8044517636299133,-2.070984363555908,9.847352027893066,-5.4931640625,-73.3795166015625,-4.9896240234375
2.7299999,-0.6368576288223267,-1.9560627937316895,9.478644371032715,-8.1939697265625,-66.619873046875,-48.0499267578125
2.7499999,-0.30885201692581177,-1.601720929145813,9.299078941345215,66.6046142578125,-70.556640625,-52.3529052734375
2.7699999,0.019153613597154617,-1.1994950771331787,9.339780807495117,20.843505859375,-79.4677734375,-8.23974609375
2.7899999,0.3711012601852417,-0.9409212470054626,9.57201862335205,-40.283203125,-102.4627685546875,33.1878662109375
2.8099999,0.7972691655158997,-0.9864110946655273,9.672574996948242,107.025146484375,-149.505615234375,49.041748046875
2.8299999,1.0869675874710083,-1.1563993692398071,9.461885452270508,72.1588134765625,-129.669189453125,37.017822265625
2.8499999,1.4532804489135742,-1.2832920551300049,9.071630477905273,-43.8995361328125,-74.15771484375,4.425048828125
2.8699999,1.7094600200653076,-1.048660397529602,8.777143478393555,94.390869140625,-21.148681640625,9.1552734375
2.8899999,1.7884687185287476,-0.8834604024887085,8.786720275878906,161.5142822265625,22.2625732421875,45.501708984375
2.9099999,1.7741034030914307,-1.0845733880996704,9.255983352661133,48.0194091796875,17.8070068359375,61.21826171875
2.9299999,1.6519991159439087,-1.335964560508728,9.962273597717285,88.92822265625,-64.697265625,5.6610107421875
2.9499999,1.6615760326385498,-1.6543933153152466,10.366893768310547,95.6573486328125,-152.8472900390625,-69.3511962890625
2.9699999,1.8698714971542358,-1.6112977266311646,10.086771965026855,-103.729248046875,-118.2861328125,-90.7440185546875
2.9899999,2.2385785579681396,-1.1444283723831177,9.253589630126953,-114.1510009765625,3.6773681640625,-43.45703125
3.0099999,2.6001031398773193,-0.7374141216278076,8.540117263793945,-7.171630859375,111.2213134765625,13.427734375
3.0299999,2.9328970909118652,-0.5602431893348694,8.291120529174805,17.852783203125,100.3570556640625,-15.3045654296875
3.0499999,2.959233283996582,-0.689530074596405,8.62391471862793,-98.541259765625,40.0390625,-65.338134765625
3.0699999,2.875436305999756,-0.7852981686592102,9.026140213012695,-136.932373046875,-3.3416748046875,-46.9207763671875
3.0899999,2.6431987285614014,-0.5410895943641663,8.911218643188477,-109.2376708984375,11.6424560546875,-2.1820068359375
3.1099999,2.3343467712402344,-0.28969839215278625,8.236053466796875,-117.5689697265625,74.7833251953125,79.071044921875
3.1299999,1.8842366933822632,-0.21308395266532898,7.228095054626465,-85.8917236328125,137.8021240234375,140.6707763671875
3.1499999,1.4532804489135742,-0.7350199222564697,6.550535678863525,8.4381103515625,203.8421630859375,135.7421875
3.1699999,0.6105214357376099,-2.2194249629974365,7.237671852111816,94.7723388671875,210.9375,57.67822265625
3.1899999,0.12689268589019775,-3.179499864578247,8.362946510314941,166.1224365234375,54.9163818359375,-71.3653564453125
3.2099999,-0.45489832758903503,-3.6990416049957275,10.249577522277832,-128.0364990234375,-72.296142578125,-66.1163330078125
3.2299999,-0.5650315880775452,-2.8203697204589844,11.647790908813477,-120.2239990234375,-172.5311279296875,10.9100341796875
3.2499999,-0.2753331959247589,-1.886630892753601,11.602301597595215,-7.232666015625,-247.8790283203125,152.0843505859375
3.2699999,0.35673606395721436,-1.8914192914962769,10.790667533874512,-3.662109375,-154.4647216796875,229.6142578125
3.2899999,0.9911994934082031,-2.942473888397217,9.440337181091309,138.5955810546875,1.556396484375,104.5379638671875
3.3099999,1.577778935432434,-4.462791919708252,8.281543731689453,138.9617919921875,58.746337890625,-91.6595458984375
3.3299999000000002,1.7812861204147339,-5.169081687927246,8.042123794555664,36.712646484375,95.7489013671875,-173.88916015625
3.3499999,1.8483237028121948,-4.596867084503174,8.786720275878906,11.8560791015625,93.0938720703125,-150.2227783203125
3.3699999,1.5658079385757446,-3.246537446975708,10.093954086303711,-21.942138671875,22.76611328125,-66.4520263671875
3.3899999,1.0893617868423462,-1.7764976024627686,11.367670059204102,-99.853515625,-75.7598876953125,-95.733642578125
3.4099999,0.8475474119186401,-0.43095630407333374,12.06198787689209,-34.332275390625,-143.646240234375,-162.353515625
3.4299999,0.6177040338516235,0.8164227604866028,11.528080940246582,100.15869140625,-163.238525390625,-110.565185546875
3.4499999,0.912190854549408,1.6735470294952393,10.268731117248535,13.1988525390625,-70.5718994140625,-4.608154296875
3.4699999,1.53707754611969,1.86508309841156,8.820239067077637,22.3541259765625,33.172607421875,60.2264404296875
3.4899999,2.145204782485962,1.1779472827911377,7.91283655166626,-28.7322998046875,87.2802734375,46.7071533203125
3.5099999,2.609679937362671,-0.1843535304069519,7.908048152923584,-121.9635009765625,69.03076171875,-31.494140625
3.5299999,2.765302896499634,-1.6543933153152466,8.573636054992676,-119.537353515625,11.90185546875,-92.5750732421875
3.5499999,2.612074136734009,-2.5713725090026855,9.342175483703613,-47.4395751953125,-46.8292236328125,-110.1226806640625
3.5699999,2.300827741622925,-2.7317841053009033,9.706093788146973,-18.463134765625,-89.2333984375,-115.9820556640625
3.5899999,1.9823989868164062,-2.3104045391082764,9.363722801208496,-30.21240234375,-38.6962890625,-93.536376953125
3.6099999,1.8698714971542358,-1.6400281190872192,9.009381294250488,23.7884521484375,134.185791015625,-31.9671630859375
3.6299999,1.7597382068634033,-1.0247182846069336,8.731653213500977,170.47119140625,171.08154296875,9.5062255859375
3.6499999,1.6136919260025024,-0.7613561153411865,8.966285705566406,87.158203125,114.288330078125,4.1656494140625
3.6699999,1.414973258972168,-0.6272808313369751,9.493009567260742,45.3033447265625,66.3604736328125,-54.2144775390625
3.6899999,1.01753568649292,-0.272938996553421,10.14902114868164,-9.0484619140625,85.9527587890625,-107.0709228515625
3.7099999,0.706289529800415,0.24181437492370605,10.790667533874512,-12.115478515625,85.8306884765625,-59.814453125
3.7299999,0.5482721924781799,0.5913678407669067,11.544840812683105,7.5531005859375,55.60302734375,18.829345703125
3.7499999,0.4357447028160095,0.5985504388809204,12.222399711608887,18.585205078125,42.938232421875,21.5301513671875
3.7699999,0.3447650372982025,0.43095630407333374,12.607866287231445,13.6566162109375,41.015625,-45.0439453125
3.7899999,0.33758243918418884,0.363918662071228,12.653355598449707,22.6593017578125,35.0189208984375,-61.676025390625
3.8099999,0.2992752194404602,0.5482721924781799,12.313379287719727,16.1285400390625,36.224365234375,8.2855224609375
3.8299999000000002,0.3734954595565796,0.6488286852836609,11.896788597106934,29.541015625,37.59765625,85.357666015625
3.8499999,0.33279404044151306,0.36152446269989014,11.561599731445312,41.595458984375,38.7115478515625,96.4813232421875
3.8699999,0.19632454216480255,-0.3471592366695404,11.348516464233398,23.3306884765625,4.4403076171875,58.53271484375
3.8899999,-0.09576806426048279,-0.8427590131759644,11.085153579711914,-13.97705078125,-39.6270751953125,33.0810546875
3.9099999,-0.4668693244457245,-0.9385270476341248,10.47702693939209,-14.6026611328125,-40.2069091796875,51.2847900390625
3.9299999,-0.8451532125473022,-0.5171475410461426,9.77791976928711,-29.205322265625,41.1224365234375,58.8836669921875
3.9499999,-0.8690952062606812,-0.12928688526153564,9.390059471130371,-62.469482421875,82.3974609375,68.206787109375
3.9699999,-0.7972691655158997,-0.20350714027881622,9.466673851013184,-63.65966796875,-14.923095703125,74.981689453125
3.9899999,-0.4381389021873474,-0.6105214357376099,9.940725326538086,-48.614501953125,-130.6915283203125,43.243408203125
4.0099999,-0.26815059781074524,-1.3024457693099976,10.261548042297363,-66.3604736328125,-150.634765625,-31.494140625
4.029999900000001,0.035913024097681046,-1.460463047027588,9.794678688049316,-28.3050537109375,-99.7314453125,-109.2987060546875
4.0499999,0.06703764945268631,-1.3000515699386597,8.990227699279785,-7.049560546875,-4.5013427734375,-67.047119140625
4.069999900000001,0.24181437492370605,-0.8212111592292786,8.075642585754395,28.3203125,39.2913818359375,-7.9498291015625
4.0899999000000005,0.507570743560791,-0.3878606855869293,7.5848307609558105,3.570556640625,50.7354736328125,-31.6619873046875
4.1099999,0.6440402865409851,-0.44771572947502136,7.544129371643066,-58.7158203125,61.9354248046875,-39.6270751953125
4.1299999000000005,0.5770025849342346,-0.6512228846549988,7.8960771560668945,-15.960693359375,79.1168212890625,-19.59228515625
4.1499999,0.40222588181495667,-1.2042834758758545,8.59997272491455,50.628662109375,89.4927978515625,14.5111083984375
4.1699999000000005,0.028730420395731926,-1.6831238269805908,9.490615844726562,27.34375,53.863525390625,-9.857177734375
4.1899999,-0.24420857429504395,-2.0829553604125977,10.29746150970459,-46.966552734375,-11.505126953125,-65.216064453125
4.209999900000001,-0.3280056416988373,-2.2409727573394775,10.821791648864746,-57.9681396484375,-32.501220703125,-70.98388671875
4.2299999,-0.2992752194404602,-1.9800047874450684,10.888829231262207,-8.3160400390625,-17.730712890625,-34.8968505859375
4.249999900000001,-0.1604115068912506,-1.4532804489135742,10.5344877243042,-13.12255859375,-25.8026123046875,-13.73291015625
4.2699999,-0.026336219161748886,-1.0438719987869263,10.134655952453613,-24.993896484375,-18.1732177734375,22.186279296875
4.289999900000001,0.1149216815829277,-0.9074024558067322,9.749189376831055,26.6265869140625,-22.2320556640625,51.0101318359375
4.3099999,0.23942017555236816,-1.2282254695892334,9.457097053527832,8.7890625,-38.2843017578125,27.1453857421875
4.329999900000001,0.37828385829925537,-1.845929503440857,9.354146003723145,-15.869140625,-23.6053466796875,-12.298583984375
4.3499999,0.47165772318840027,-2.3056161403656006,9.41639518737793,-16.1285400390625,-0.9765625,-41.3360595703125
4.369999900000001,0.5817909836769104,-2.4229321479797363,9.555258750915527,-49.0570068359375,-17.2576904296875,-38.5284423828125
4.3899999,0.6224924325942993,-2.33913516998291,9.758766174316406,-30.3802490234375,-29.083251953125,15.0909423828125
4.409999900000001,0.6440402865409851,-2.0685901641845703,9.931148529052734,31.3262939453125,-6.3934326171875,21.392822265625
4.4299999,0.6631938815116882,-1.8818424940109253,10.065223693847656,40.10009765625,7.2479248046875,-8.758544921875
4.449999900000001,0.6129156351089478,-1.9321208000183105,10.235212326049805,41.656494140625,-2.8839111328125,2.62451171875
4.4699999,0.5817909836769104,-2.0183119773864746,10.44350814819336,50.1251220703125,-8.453369140625,24.688720703125
4.489999900000001,0.5985504388809204,-1.944091796875,10.457873344421387,43.2586669921875,-22.552490234375,-6.988525390625
4.5099999,0.5913678407669067,-1.6759412288665771,10.218452453613281,-0.152587890625,-39.4287109375,-31.92138671875
4.529999900000001,0.6368576288223267,-1.2689268589019775,9.773131370544434,-2.3651123046875,-26.8402099609375,15.7470703125
4.5499999,0.7374141216278076,-0.9648633003234863,9.387664794921875,33.447265625,-22.064208984375,48.6602783203125
4.569999900000001,0.7781155705451965,-0.8954314589500427,9.064447402954102,55.4962158203125,-65.704345703125,19.9127197265625
4.5899999000000005,0.8690952062606812,-0.9385270476341248,8.813055992126465,43.51806640625,-69.8394775390625,-24.0936279296875
4.609999900000001,0.9074024558067322,-1.0199298858642578,8.5903959274292,75.5615234375,-14.1448974609375,6.6375732421875
4.6299999000000005,0.9481038451194763,-0.7613561153411865,8.382100105285645,39.6575927734375,27.252197265625,23.0865478515625
4.6499999,0.9624691009521484,-0.5482721924781799,8.487444877624512,23.13232421875,52.3223876953125,15.2587890625
4.6699999000000005,0.9911994934082031,-0.6488286852836609,8.990227699279785,56.182861328125,40.802001953125,24.4140625
4.6899999,1.039083480834961,-0.9552865028381348,9.710882186889648,64.0869140625,-5.218505859375,5.3558349609375
4.709999900000001,1.0342950820922852,-1.2090718746185303,10.146626472473145,29.1748046875,-48.248291015625,-47.7752685546875
4.7299999,1.0773907899856567,-0.9433154463768005,10.247182846069336,4.0740966796875,-33.843994140625,-66.34521484375
4.749999900000001,1.1228805780410767,-0.5530605912208557,10.165780067443848,36.895751953125,17.5933837890625,10.7421875
4.7699999,1.2210428714752197,0.05027823522686958,9.744400978088379,52.0782470703125,4.119873046875,35.064697265625
4.789999900000001,1.357512354850769,0.3495534360408783,9.521739959716797,53.3599853515625,-5.340576171875,0.4730224609375
4.8099999,1.5298948287963867,0.21308395266532898,9.411606788635254,43.0908203125,17.6849365234375,-6.5155029296875
4.829999900000001,1.5825673341751099,0.1173158809542656,9.397241592407227,24.078369140625,17.059326171875,-5.5999755859375
4.8499999,1.6041151285171509,0.2346317619085312,9.5408935546875,17.7459716796875,7.99560546875,-8.8348388671875
4.869999900000001,1.4748282432556152,0.586579442024231,9.567230224609375,3.875732421875,7.476806640625,0.06103515625
4.8899999,1.314416766166687,0.6847416758537292,9.651026725769043,-6.4544677734375,43.548583984375,31.67724609375
4.909999900000001,1.1563993692398071,0.6488286852836609,9.775525093078613,-3.60107421875,57.8155517578125,23.193359375
4.9299999,0.993593692779541,0.4596867263317108,9.763554573059082,-12.115478515625,3.84521484375,-16.4642333984375
4.949999900000001,0.8595184087753296,0.026336219161748886,9.995792388916016,3.41796875,5.645751953125,2.197265625
4.9699999,0.7038952708244324,-0.181959331035614,10.067618370056152,18.3868408203125,20.32470703125,16.3421630859375
4.989999900000001,0.5386953949928284,-0.4620809257030487,10.050858497619629,12.542724609375,11.749267578125,0.3509521484375
5.0099999,0.42616790533065796,-0.7445967197418213,10.180145263671875,-5.9814453125,20.751953125,-19.622802734375
5.029999900000001,0.3495534360408783,-0.790086567401886,10.299856185913086,-13.73291015625,9.765625,-38.299560546875
5.0499999,0.3711012601852417,-0.44532153010368347,10.299856185913086,4.57763671875,-19.012451171875,-25.5126953125
5.069999900000001,0.48602294921875,0.15562310814857483,10.02691650390625,19.256591796875,-22.8729248046875,6.28662109375
5.0899999000000005,0.5530605912208557,0.8451532125473022,9.768342971801758,-1.617431640625,6.3629150390625,15.7623291015625
5.109999900000001,0.5985504388809204,1.1683704853057861,9.524134635925293,-22.9339599609375,6.8206787109375,10.7421875
5.1299999000000005,0.5770025849342346,1.2234370708465576,9.569623947143555,-41.93115234375,-16.0675048828125,-1.953125
5.1499999,0.5339069962501526,1.1899182796478271,9.742006301879883,-60.2264404296875,-31.43310546875,-11.9171142578125
5.1699999000000005,0.5554547905921936,1.1851298809051514,9.648633003234863,-29.266357421875,-37.078857421875,-0.2899169921875
5.1899999,0.6009446382522583,1.1468225717544556,9.557653427124023,8.8958740234375,2.777099609375,23.6053466796875
5.209999900000001,0.667982280254364,1.070208191871643,9.3828763961792,19.744873046875,15.6707763671875,23.5748291015625
5.2299999,0.6943184733390808,0.7422025203704834,9.469067573547363,6.256103515625,-0.2593994140625,11.3677978515625
5.249999900000001,0.689530074596405,0.3734954595565796,9.880870819091797,2.7923583984375,-0.244140625,-1.3885498046875
5.2699999,0.6919242739677429,0.05027823522686958,10.268731117248535,-4.33349609375,-10.3607177734375,-9.4757080078125
5.289999900000001,0.706289529800415,-0.11971008777618408,10.575188636779785,-15.5792236328125,-17.364501953125,-9.3231201171875
5.3099999,0.7469909191131592,0.028730420395731926,10.63504409790039,-19.134521484375,-19.500732421875,-21.1639404296875
5.329999900000001,0.7733271718025208,0.26575639843940735,10.424354553222656,-20.3704833984375,-23.3001708984375,-12.9241943359375
5.3499999,0.7852981686592102,0.629675030708313,10.050858497619629,-14.09912109375,-14.495849609375,2.685546875
5.369999900000001,0.7709329724311829,0.8906430602073669,9.68933391571045,-3.021240234375,-1.434326171875,6.6986083984375
5.3899999,0.7398083209991455,0.8978256583213806,9.397241592407227,-0.030517578125,0.8087158203125,6.2713623046875
5.409999900000001,0.7158663272857666,0.6967126727104187,9.294290542602539,7.568359375,1.556396484375,0.2899169921875
5.4299999,0.706289529800415,0.45010992884635925,9.320627212524414,10.25390625,-2.6092529296875,-9.918212890625
5.449999900000001,0.7230489253997803,0.31124621629714966,9.440337181091309,12.4664306640625,-2.0294189453125,-9.796142578125
5.4699999,0.7733271718025208,0.30885201692581177,9.560047149658203,10.19287109375,-3.9520263671875,0.8544921875
5.489999900000001,0.8259995579719543,0.4644751250743866,9.761159896850586,11.2152099609375,-1.52587890625,1.28173828125
5.5099999,0.8547300100326538,0.5386953949928284,9.852140426635742,9.765625,-4.57763671875,-3.4637451171875
5.529999900000001,0.8882488012313843,0.5410895943641663,10.074800491333008,5.4779052734375,7.568359375,-9.3841552734375
5.5499999,0.9241618514060974,0.545877993106842,10.165780067443848,-2.8839111328125,3.936767578125,-18.6309814453125
5.569999900000001,0.9816226959228516,0.5626373887062073,10.201693534851074,-9.7808837890625,-7.781982421875,-16.6168212890625
5.5899999000000005,1.0534487962722778,0.6416460275650024,10.141838073730469,-7.659912109375,-1.800537109375,-8.1787109375
5.609999900000001,1.1037269830703735,0.7158663272857666,10.002974510192871,-1.373291015625,3.7841796875,-4.0740966796875
5.6299999000000005,1.1252747774124146,0.7110779285430908,9.84495735168457,7.8125,1.6937255859375,-4.4708251953125
5.6499999,1.1180921792984009,0.706289529800415,9.804255485534668,10.223388671875,1.953125,-8.5296630859375
5.6699999000000005,1.0821791887283325,0.6607996821403503,9.806650161743164,4.7149658203125,-0.640869140625,-2.6397705078125
5.6899999,1.0462661981582642,0.6919242739677429,9.816226959228516,1.7242431640625,-4.4708251953125,1.03759765625
5.709999900000001,0.9959878921508789,0.8667010068893433,9.761159896850586,13.214111328125,-2.6397705078125,5.2032470703125
5.7299999,0.9840168952941895,0.9457096457481384,9.742006301879883,6.0577392578125,-3.6773681640625,8.0718994140625
5.749999900000001,0.9792284965515137,0.9409212470054626,9.797073364257812,-2.3040771484375,-3.4027099609375,6.7596435546875
5.7699999,0.9888052940368652,0.8786720037460327,9.907206535339355,-10.6048583984375,-8.4686279296875,0.1983642578125
5.789999900000001,1.0103530883789062,0.7541735172271729,9.995792388916016,-17.9901123046875,-15.594482421875,-2.3956298828125
5.8099999,1.05105459690094,0.6105214357376099,10.070012092590332,-14.5263671875,-14.434814453125,-1.617431640625
5.829999900000001,1.0989385843276978,0.4836287498474121,10.031704902648926,-0.9613037109375,-14.404296875,-1.068115234375
5.8499999,1.158793568611145,0.43095630407333374,9.945513725280762,-0.5950927734375,-15.9454345703125,-3.7994384765625
5.869999900000001,1.2282254695892334,0.45010992884635925,9.823410034179688,-6.6375732421875,-15.625,2.1209716796875
5.8899999,1.2952631711959839,0.5171475410461426,9.560047149658203,-12.7105712890625,-15.9454345703125,10.6201171875
5.909999900000001,1.3407529592514038,0.5578489899635315,9.38048267364502,-4.425048828125,4.547119140625,11.77978515625
5.9299999,1.3646949529647827,0.5410895943641663,9.248801231384277,3.5552978515625,16.5252685546875,6.500244140625
5.949999900000001,1.357512354850769,0.47165772318840027,9.263166427612305,5.6304931640625,3.3721923828125,1.5716552734375
5.9699999,1.3503297567367554,0.40701428055763245,9.349357604980469,11.810302734375,-9.124755859375,2.2125244140625
5.989999900000001,1.335964560508728,0.40462008118629456,9.437943458557129,18.9971923828125,-0.06103515625,0.091552734375
6.0099999,1.3120225667953491,0.304063618183136,9.41400146484375,16.357421875,15.0604248046875,-0.457763671875
6.029999900000001,1.2665326595306396,0.24660277366638184,9.485827445983887,6.0272216796875,36.3006591796875,-14.4500732421875
6.0499999,1.2234370708465576,0.23942017555236816,9.639056205749512,3.0517578125,41.32080078125,-30.7769775390625
6.069999900000001,1.1348515748977661,0.2059013396501541,10.017339706420898,-9.124755859375,30.9906005859375,-25.7568359375
6.0899999000000005,1.039083480834961,0.1843535304069519,10.481815338134766,-34.1644287109375,8.514404296875,-24.2156982421875
6.109999900000001,0.9289502501487732,0.2346317619085312,10.793061256408691,-40.313720703125,-21.697998046875,-45.95947265625
6.1299999000000005,0.8259995579719543,0.16998831927776337,10.8720703125,-27.801513671875,-22.3236083984375,-38.6810302734375
6.149999900000001,0.7805097699165344,0.21547815203666687,10.615890502929688,-21.820068359375,-5.67626953125,-27.83203125
6.1699999000000005,0.7996633648872375,0.47165772318840027,10.251971244812012,-16.3726806640625,13.4735107421875,-38.2537841796875
6.1899999,0.8523358106613159,0.768538773059845,9.90241813659668,-12.1002197265625,15.7928466796875,-24.3988037109375
6.209999900000001,0.9074024558067322,0.9816226959228516,9.765948295593262,-13.5345458984375,8.4686279296875,11.871337890625
6.2299999,0.950498104095459,1.0678139925003052,9.780313491821289,-0.5035400390625,-0.152587890625,17.120361328125
6.249999900000001,0.9696516990661621,0.993593692779541,9.768342971801758,4.669189453125,-11.04736328125,-0.152587890625
6.2699999,0.9744400978088379,0.8667010068893433,9.72285270690918,0.396728515625,-0.8697509765625,6.77490234375
6.289999900000001,0.9696516990661621,0.7206547260284424,9.701305389404297,-4.8828125,18.2647705078125,31.18896484375
6.3099999,0.9457096457481384,0.5363011956214905,9.792284965515137,-17.2882080078125,15.9454345703125,34.3780517578125
6.329999900000001,0.9050082564353943,0.31364041566848755,10.029311180114746,-28.1982421875,-6.256103515625,17.4102783203125
6.3499999,0.849941611289978,0.019153613597154617,10.273519515991211,-32.562255859375,-21.270751953125,18.1427001953125
6.369999900000001,0.8236053586006165,-0.2944868206977844,10.438719749450684,-10.4522705078125,-11.8560791015625,31.402587890625
6.3899999,0.8164227604866028,-0.40940847992897034,10.395624160766602,6.5765380859375,-12.4664306640625,16.204833984375
6.409999900000001,0.8475474119186401,-0.4429273009300232,10.307038307189941,-1.373291015625,-21.0723876953125,4.9285888671875
6.4299999,0.9097966551780701,-0.42616790533065796,10.163386344909668,-4.608154296875,-26.8707275390625,26.6571044921875
6.449999900000001,0.9840168952941895,-0.30885201692581177,9.885659217834473,-14.678955078125,-35.33935546875,25.5126953125
6.4699999,1.0797849893569946,-0.17477671802043915,9.684545516967773,-11.2457275390625,-15.655517578125,5.9356689453125
6.489999900000001,1.170764684677124,-0.05027823522686958,9.53849983215332,1.40380859375,1.739501953125,11.0015869140625
6.5099999,1.2641384601593018,0.08140286058187485,9.552865028381348,1.64794921875,-12.7716064453125,30.1361083984375
6.529999900000001,1.3263877630233765,0.0454898327589035,9.643844604492188,-4.9591064453125,-28.9154052734375,43.609619140625
6.5499999,1.3742717504501343,-0.15562310814857483,9.742006301879883,1.9683837890625,-19.6685791015625,24.90234375
6.569999900000001,1.414973258972168,-0.5195417404174805,9.847352027893066,16.7236328125,6.3018798828125,4.364013671875
6.5899999000000005,1.45806884765625,-0.790086567401886,9.876082420349121,8.72802734375,-7.6446533203125,0.3814697265625
6.609999900000001,1.5322890281677246,-0.828393816947937,9.84256362915039,-6.6680908203125,-26.6876220703125,-0.518798828125
6.6299999000000005,1.6184803247451782,-0.7326257228851318,9.80904483795166,-4.6234130859375,-8.60595703125,5.218505859375
6.649999900000001,1.6879122257232666,-0.6344634294509888,9.667786598205566,2.685546875,6.9427490234375,11.29150390625
6.6699999000000005,1.7094600200653076,-0.5913678407669067,9.495404243469238,-9.1552734375,-6.378173828125,0.5950927734375
6.6899999,1.680729627609253,-0.6847416758537292,9.430760383605957,-12.969970703125,-8.4686279296875,-15.9912109375
6.709999900000001,1.577778935432434,-0.8092401623725891,9.404424667358398,2.3956298828125,4.425048828125,-19.9737548828125
6.7299999,1.4437036514282227,-0.7015010714530945,9.308655738830566,-4.4403076171875,-4.1961669921875,-32.3333740234375
6.749999900000001,1.3096283674240112,-0.3711012601852417,9.184157371520996,-27.03857421875,-16.387939453125,-38.39111328125
6.7699999,1.1683704853057861,-0.08379705995321274,9.131484985351562,-18.829345703125,-2.1514892578125,-10.8184814453125
6.789999900000001,1.0438719987869263,0.17956513166427612,9.0859956741333,13.6871337890625,-3.021240234375,-1.46484375
6.8099999,1.0127472877502441,0.3734954595565796,9.062053680419922,2.410888671875,-18.5546875,-37.109375
6.829999900000001,1.1276689767837524,0.3878606855869293,8.954314231872559,-26.641845703125,-29.998779296875,-35.400390625
6.8499999,1.4101848602294922,0.15562310814857483,8.722076416015625,-25.421142578125,-24.6429443359375,-1.15966796875
6.869999900000001,1.8794482946395874,-0.3447650372982025,8.487444877624512,5.645751953125,-6.9122314453125,-4.7607421875
6.8899999,2.341529369354248,-0.8140285611152649,8.348581314086914,-4.3182373046875,-7.7056884765625,-64.6514892578125
6.909999900000001,2.736572504043579,-1.2473790645599365,8.482656478881836,-14.6636962890625,-12.7105712890625,-77.7740478515625
6.9299999,2.985569477081299,-1.434126853942871,8.89685344696045,25.787353515625,-2.6092529296875,-32.0587158203125
6.949999900000001,3.1435868740081787,-1.2880805730819702,9.442731857299805,35.125732421875,-17.333984375,-39.825439453125
6.9699999,3.318363666534424,-0.9768342971801758,9.785101890563965,-19.195556640625,-59.7686767578125,-84.136962890625
6.989999900000001,3.5889084339141846,-0.4572925269603729,9.660603523254395,-41.3360595703125,-73.4710693359375,-77.850341796875
7.0099999,3.9647979736328125,0.5434837937355042,8.899248123168945,1.6326904296875,-31.2042236328125,-43.4112548828125
7.029999900000001,4.304774761199951,1.6855180263519287,8.164227485656738,44.4488525390625,45.9747314453125,-20.782470703125
7.0499999,4.393360137939453,1.9632453918457031,7.931990146636963,63.3392333984375,73.1964111328125,36.1328125
7.069999900000001,4.278438568115234,1.2497732639312744,8.614337921142578,53.0853271484375,42.9840087890625,46.783447265625
7.0899999000000005,3.995922565460205,0.3208230137825012,10.010157585144043,33.416748046875,26.0162353515625,-63.0340576171875
7.109999900000001,3.6367924213409424,-0.3064578175544739,11.202469825744629,8.819580078125,-3.662109375,-99.2279052734375
7.1299999000000005,3.224989652633667,-0.2513911724090576,11.477803230285645,-10.6964111328125,-38.0859375,6.2103271484375
7.149999900000001,2.7078421115875244,0.2513911724090576,11.142614364624023,16.7083740234375,13.153076171875,47.6226806640625
7.1699999000000005,2.0231003761291504,0.7733271718025208,10.644620895385742,65.185546875,83.3282470703125,-28.38134765625
7.1899999,1.256955862045288,0.8595184087753296,10.213664054870605,25.299072265625,18.0511474609375,-53.7261962890625
7.209999900000001,0.6368576288223267,0.7493851184844971,10.247182846069336,2.3040771484375,-35.9649658203125,-2.62451171875
7.2299999,0.22266076505184174,0.8188169598579407,10.548852920532227,36.163330078125,9.7808837890625,-7.6446533203125
7.249999900000001,0.033518824726343155,0.7110779285430908,10.860098838806152,41.07666015625,26.42822265625,-29.5867919921875
7.2699999,0.090979665517807,0.3878606855869293,11.267112731933594,20.782470703125,-6.5460205078125,-13.916015625
7.289999900000001,0.31364041566848755,0.14365209639072418,11.66455078125,9.185791015625,-22.4151611328125,-19.04296875
7.3099999,0.6536170840263367,-0.15322890877723694,11.848904609680176,22.7813720703125,-12.603759765625,-40.7257080078125
7.329999900000001,1.0319008827209473,-0.2346317619085312,11.650185585021973,39.5965576171875,-28.3050537109375,-51.69677734375
7.3499999,1.381454348564148,-0.2513911724090576,11.152191162109375,38.0401611328125,-43.975830078125,-35.430908203125
7.369999900000001,1.7597382068634033,-0.09576806426048279,10.486603736877441,26.275634765625,-24.932861328125,-14.556884765625
7.3899999,2.032677173614502,0.36152446269989014,9.864110946655273,-5.0201416015625,-0.244140625,-40.6494140625
7.409999900000001,2.293645143508911,0.9026140570640564,9.258378028869629,-15.5029296875,-2.2430419921875,-23.0255126953125
7.4299999,2.4396915435791016,1.5394717454910278,8.908824920654297,-20.3704833984375,7.7667236328125,28.778076171875
7.449999900000001,2.408566951751709,1.9752163887023926,8.707711219787598,-42.29736328125,28.99169921875,42.7703857421875
7.4699999,2.279279947280884,1.9823989868164062,8.729259490966797,-50.0640869140625,42.3126220703125,33.38623046875
7.489999900000001,2.10210919380188,1.7525556087493896,8.999804496765137,-44.4488525390625,47.2412109375,8.6517333984375
7.5099999,1.9536685943603516,1.525106430053711,9.35654067993164,-65.643310546875,14.1754150390625,5.43212890625
7.529999900000001,1.9081788063049316,1.37906014919281,9.677363395690918,-90.39306640625,-26.763916015625,38.8336181640625
7.5499999,1.9584569931030273,0.9983820915222168,9.840168952941895,-80.62744140625,-22.186279296875,77.63671875
7.569999900000001,2.140416383743286,0.23942017555236816,9.856928825378418,-63.5986328125,-4.1961669921875,82.916259765625
7.5899999000000005,2.3918075561523438,-0.6248866319656372,9.832986831665039,-79.89501953125,-7.110595703125,30.7769775390625
7.609999900000001,2.626439332962036,-1.3958195447921753,9.567230224609375,-96.86279296875,-37.017822265625,10.040283203125
7.6299999000000005,2.7748796939849854,-1.8076223134994507,9.050082206726074,-78.61328125,-40.802001953125,37.5823974609375
7.649999900000001,2.7246015071868896,-1.9249382019042969,8.422801971435547,-31.585693359375,7.7056884765625,21.91162109375
7.6699999000000005,2.518700122833252,-1.98958158493042,7.982268333435059,-31.55517578125,54.4586181640625,-33.905029296875
7.6899999,2.1715409755706787,-2.0015525817871094,8.224082946777344,-19.34814453125,65.2313232421875,-57.18994140625
7.709999900000001,1.7573440074920654,-1.6543933153152466,9.157821655273438,22.5830078125,39.7491455078125,-55.633544921875
7.7299999,1.4724340438842773,-0.8810662031173706,10.38844108581543,-4.791259765625,-20.538330078125,-54.1534423828125
7.749999900000001,1.2713210582733154,-0.033518824726343155,11.176133155822754,-40.8935546875,-97.47314453125,-22.64404296875
7.7699999,1.3311761617660522,0.49320554733276367,11.252747535705566,-7.0037841796875,-91.888427734375,8.5296630859375
7.789999900000001,1.5610195398330688,0.524330198764801,10.754754066467285,55.2215576171875,-38.3148193359375,7.3089599609375
7.8099999,1.9584569931030273,0.3519476354122162,10.02691650390625,52.9327392578125,-49.2401123046875,-31.5093994140625
7.829999900000001,2.449268341064453,0.090979665517807,9.227252960205078,4.547119140625,-96.832275390625,-23.8494873046875
7.8499999,3.002328872680664,-0.16998831927776337,8.47547435760498,-15.655517578125,-88.7908935546875,22.6593017578125
7.869999900000001,3.5266590118408203,-0.4141969084739685,7.905653953552246,-8.48388671875,-4.3792724609375,10.80322265625
7.8899999,3.971980571746826,-0.768538773059845,7.728483200073242,-7.3394775390625,30.3955078125,-26.885986328125
7.909999900000001,4.292803764343262,-0.9481038451194763,7.817068576812744,-10.101318359375,-35.8734130859375,-21.759033203125
7.9299999,4.479551315307617,-0.9672574996948242,8.219294548034668,16.9677734375,-64.605712890625,11.322021484375
7.949999900000001,4.55616569519043,-0.9672574996948242,8.640673637390137,47.3480224609375,-34.3170166015625,28.7628173828125
7.9699999,4.553771495819092,-0.9744400978088379,8.791508674621582,41.9921875,-28.0609130859375,-5.401611328125
7.989999900000001,4.568136692047119,-1.1180921792984009,9.071630477905273,24.810791015625,-20.99609375,-21.209716796875
8.0099999,4.55616569519043,-0.9983820915222168,9.478644371032715,22.3236083984375,-2.1820068359375,-11.1083984375
8.0299999,4.546588897705078,-0.6440402865409851,9.775525093078613,-10.31494140625,-32.684326171875,-5.79833984375
8.049999900000001,4.5394062995910645,-0.31603461503982544,9.849745750427246,-19.134521484375,-68.2373046875,16.7236328125
8.069999900000001,4.522646903991699,-0.021547814831137657,9.579200744628906,6.072998046875,-54.473876953125,13.48876953125
8.0899999,4.548983097076416,0.05506663769483566,9.035717010498047,20.4925537109375,-26.0162353515625,-3.5858154296875
8.1099999,4.587290287017822,-0.08140286058187485,8.530540466308594,30.8685302734375,-2.44140625,6.5765380859375
8.129999900000001,4.596867084503174,-0.13407529890537262,8.123526573181152,17.8680419921875,5.2337646484375,0.244140625
8.149999900000001,4.572925090789795,-0.22266076505184174,7.881711959838867,2.685546875,20.111083984375,-5.37109375
8.1699999,4.508281707763672,-0.33758243918418884,7.967903137207031,19.53125,61.126708984375,11.505126953125
8.1899999,4.3861775398254395,-0.45250412821769714,8.346187591552734,25.45166015625,56.671142578125,15.13671875
8.2099999,4.2975921630859375,-0.5410895943641663,8.978256225585938,12.4664306640625,-4.5623779296875,-10.040283203125
8.229999900000001,4.194641590118408,-0.6153098344802856,9.62947940826416,3.6773681640625,-39.6575927734375,-9.1705322265625
8.2499999,4.163516521453857,-0.48602294921875,10.103530883789062,14.3890380859375,-24.5819091796875,-6.1492919921875
8.2699999,4.19224739074707,-0.38546648621559143,10.426748275756836,34.1339111328125,-2.716064453125,2.3193359375
8.2899999,4.261679172515869,-0.30885201692581177,10.5344877243042,21.636962890625,-29.998779296875,4.974365234375
8.309999900000001,4.350264549255371,-0.17238251864910126,10.41956615447998,-9.429931640625,-72.0977783203125,-14.34326171875
8.3299999,4.443638324737549,-0.047884032130241394,10.096348762512207,-20.93505859375,-60.7757568359375,-14.1448974609375
8.3499999,4.527435302734375,0.05746084079146385,9.68933391571045,6.3629150390625,-16.4642333984375,7.75146484375
8.3699999,4.620809078216553,0.2944868206977844,9.260771751403809,14.0228271484375,-29.9072265625,-2.50244140625
8.389999900000001,4.702212333679199,0.44771572947502136,9.026140213012695,-0.091552734375,-63.5223388671875,-5.8746337890625
8.4099999,4.7836151123046875,0.6224924325942993,8.863334655761719,-2.685546875,-62.6373291015625,11.90185546875
8.4299999,4.884171485900879,0.7110779285430908,8.674192428588867,8.4686279296875,-46.3714599609375,25.8941650390625
8.4499999,4.98472785949707,0.6871358752250671,8.480262756347656,9.0179443359375,-44.952392578125,23.4527587890625
8.469999900000001,5.0900726318359375,0.47644615173339844,8.271966934204102,-10.6201171875,-58.0291748046875,18.6614990234375
8.4899999,5.197812080383301,0.023942016065120697,8.161833763122559,-13.9007568359375,-46.905517578125,30.426025390625
8.5099999,5.303156852722168,-0.31124621629714966,8.030152320861816,-4.7149658203125,-32.4859619140625,17.15087890625
8.5299999,5.408501625061035,-0.608127236366272,7.838616371154785,-10.5133056640625,-41.2445068359375,3.173828125
8.549999900000001,5.525817394256592,-0.7613561153411865,7.714118003845215,-6.1798095703125,-37.7349853515625,15.1824951171875
8.569999900000001,5.640739440917969,-0.8355764150619507,7.615955829620361,-3.997802734375,-26.9317626953125,24.078369140625
8.5899999,5.746084213256836,-0.950498104095459,7.5417351722717285,-14.923095703125,-32.6385498046875,19.8822021484375
8.6099999,5.841852188110352,-1.0438719987869263,7.51779317855835,-22.9339599609375,-46.142578125,2.38037109375
8.629999900000001,5.928043365478516,-1.1468225717544556,7.474697589874268,-17.4102783203125,-48.0804443359375,5.5389404296875
8.649999900000001,5.985504150390625,-1.0965443849563599,7.273584842681885,-2.7923583984375,-39.4287109375,13.7786865234375
8.6699999,6.028599739074707,-0.9097966551780701,7.043741226196289,5.7830810546875,-21.270751953125,7.0343017578125
8.6899999,6.064512729644775,-0.6943184733390808,6.852205276489258,1.0223388671875,-16.387939453125,12.0086669921875
8.709999900000001,6.107608318328857,-0.4668693244457245,6.694188117980957,-15.5181884765625,-33.233642578125,19.1802978515625
8.729999900000001,6.169857978820801,-0.33997663855552673,6.615179061889648,-15.2587890625,-33.538818359375,22.308349609375
8.7499999,6.246472358703613,-0.31124621629714966,6.627150535583496,-2.5787353515625,-9.1552734375,16.41845703125
8.7699999,6.325480937957764,-0.3734954595565796,6.62236213684082,3.7689208984375,5.5694580078125,9.4757080078125
8.7899999,6.402095317840576,-0.5674257874488831,6.8043212890625,10.6353759765625,21.6522216796875,15.9759521484375
8.809999900000001,6.478709697723389,-0.6943184733390808,7.132327079772949,11.0626220703125,22.7813720703125,15.167236328125
8.8299999,6.540958881378174,-0.7948749661445618,7.398083209991455,-7.3699951171875,-9.002685546875,9.7503662109375
8.8499999,6.572083473205566,-0.912190854549408,7.642292022705078,-16.4947509765625,-17.8985595703125,16.9830322265625
8.8699999,6.560112476348877,-0.9050082564353943,7.594407558441162,-12.4969482421875,-13.671875,9.1400146484375
8.889999900000001,6.490680694580078,-0.8212111592292786,7.331045627593994,-8.8043212890625,-6.1187744140625,-4.913330078125
8.9099999,6.399701118469238,-0.646434485912323,7.036558628082275,-4.6844482421875,8.48388671875,-4.486083984375
8.9299999,6.308721542358398,-0.37828385829925537,6.914454460144043,0.1678466796875,15.3045654296875,1.8768310546875
8.9499999,6.244078159332275,-0.10773907601833344,7.010222434997559,3.0975341796875,1.3275146484375,6.5460205078125
8.969999900000001,6.210559368133545,0.004788403399288654,7.316680431365967,3.2501220703125,-13.946533203125,11.4288330078125
8.9899999,6.203376770019531,0.033518824726343155,7.6111674308776855,5.1727294921875,-10.6353759765625,6.011962890625
9.0099999,6.253654956817627,-0.009576806798577309,7.714118003845215,4.57763671875,-2.86865234375,3.6773681640625
9.0299999,6.347028732299805,-0.15083470940589905,7.6997528076171875,14.0533447265625,14.34326171875,18.6309814453125
9.049999900000001,6.452373504638672,-0.3208230137825012,7.6566572189331055,9.765625,25.4364013671875,24.10888671875
9.069999900000001,6.555324077606201,-0.6536170840263367,7.589619159698486,-9.33837890625,-5.2032470703125,14.007568359375
9.0899999,6.629544734954834,-0.9289502501487732,7.493851184844971,-12.5274658203125,-28.25927734375,-2.838134765625
9.1099999,6.698976516723633,-0.9457096457481384,7.249642848968506,-8.1634521484375,-22.52197265625,-12.5274658203125
9.129999900000001,6.775590896606445,-0.7948749661445618,6.9455790519714355,5.5389404296875,-0.457763671875,8.60595703125
9.149999900000001,6.809109687805176,-0.5913678407669067,6.8593878746032715,11.5203857421875,30.914306640625,30.5023193359375
9.1699999,6.828263282775879,-0.5746083855628967,7.067683219909668,-10.5743408203125,26.9317626953125,29.3121337890625
9.1899999,6.806715488433838,-0.7493851184844971,7.496245384216309,-24.2767333984375,-8.60595703125,4.1961669921875
9.209999900000001,6.737283706665039,-0.933738648891449,7.759607791900635,-11.1541748046875,-28.0914306640625,-4.486083984375
9.229999900000001,6.66785192489624,-1.173158884048462,7.716512203216553,-1.190185546875,-11.2457275390625,18.85986328125
9.2499999,6.603208065032959,-1.3239935636520386,7.496245384216309,-4.94384765625,24.4293212890625,20.56884765625
9.2699999,6.550535678863525,-1.3838485479354858,7.19936466217041,-7.6141357421875,10.1470947265625,-12.542724609375
9.2899999,6.564900875091553,-1.3886369466781616,7.0557122230529785,-9.918212890625,-16.1590576171875,-13.36669921875
9.309999900000001,6.605602264404297,-1.3335703611373901,7.050923824310303,4.45556640625,-5.706787109375,12.451171875
9.3299999,6.677428722381592,-1.2665326595306396,7.280767440795898,1.7852783203125,1.0833740234375,9.8724365234375
9.3499999,6.766014099121094,-1.1971008777618408,7.484274387359619,-16.4642333984375,-34.088134765625,-15.5792236328125
9.3699999,6.864176273345947,-1.115697979927063,7.630321025848389,-20.477294921875,-58.28857421875,-7.232666015625
9.389999900000001,6.957550048828125,-1.0199298858642578,7.527369976043701,-2.6092529296875,-37.7044677734375,28.3355712890625
9.4099999,7.022193431854248,-0.849941611289978,7.146692276000977,11.3983154296875,-11.5966796875,28.7628173828125
9.4299999,7.024587631225586,-0.9481038451194763,6.789956092834473,22.674560546875,5.9661865234375,19.0887451171875
9.4499999,6.988674640655518,-1.1755530834197998,6.689399719238281,14.068603515625,10.284423828125,14.4805908203125
9.469999900000001,6.904877662658691,-1.4484920501708984,6.8378400802612305,-8.5601806640625,-1.434326171875,4.21142578125
9.4899999,6.833051681518555,-1.6711528301239014,7.113173484802246,-19.927978515625,-18.5089111328125,1.52587890625
9.5099999,6.787561893463135,-1.699883222579956,7.275979042053223,-6.591796875,-25.421142578125,0.54931640625
9.5299999,6.801927089691162,-1.5107412338256836,7.247248649597168,12.51220703125,-17.791748046875,7.3089599609375
9.549999900000001,6.840234279632568,-1.338358759880066,7.036558628082275,12.87841796875,-7.659912109375,27.3284912109375
9.569999900000001,6.89530086517334,-1.4077905416488647,6.746860504150391,-8.2550048828125,-4.608154296875,40.0543212890625
9.5899999,6.952761650085449,-1.7812861204147339,6.5481414794921875,-24.84130859375,2.685546875,24.35302734375
9.6099999,7.010222434997559,-2.31758713722229,6.421248912811279,-18.3563232421875,4.4403076171875,2.8533935546875
9.629999900000001,7.067683219909668,-2.8419175148010254,6.339846134185791,-0.7781982421875,-3.6163330078125,4.5166015625
9.649999900000001,7.117961883544922,-3.1507694721221924,6.402095317840576,6.866455078125,8.30078125,8.941650390625
9.6699999,7.1251444816589355,-3.28963303565979,6.62236213684082,-0.6561279296875,19.927978515625,1.556396484375
9.6899999,7.122750282287598,-3.224989652633667,6.888118267059326,-12.5885009765625,-7.4920654296875,-12.8326416015625
9.709999900000001,7.117961883544922,-2.9903578758239746,7.067683219909668,-20.1416015625,-35.2783203125,-10.8184814453125
9.729999900000001,7.134721279144287,-2.6168625354766846,7.060500621795654,-15.838623046875,-17.9595947265625,8.056640625
9.7499999,7.137115478515625,-2.2912509441375732,6.734889507293701,-8.9569091796875,0.9307861328125,16.5557861328125
9.7699999,7.12035608291626,-2.205059766769409,6.339846134185791,-3.3721923828125,-1.7242431640625,11.5509033203125
9.7899999,7.096413612365723,-2.3319525718688965,6.028599739074707,-2.6092529296875,-5.4473876953125,-2.716064453125
9.809999900000001,7.101202011108398,-2.516305923461914,5.937620162963867,0.091552734375,2.7618408203125,-6.3018798828125
9.8299999,7.141903877258301,-2.58813214302063,5.92325496673584,5.4168701171875,2.3193359375,0.0762939453125
9.8499999,7.204153060913086,-2.499546527862549,6.00226354598999,1.28173828125,2.044677734375,5.523681640625
9.8699999,7.220912456512451,-2.4875755310058594,6.172252178192139,-0.54931640625,13.8397216796875,13.3209228515625
9.889999900000001,7.196970462799072,-2.5450363159179688,6.368576526641846,-8.636474609375,6.5460205078125,5.462646484375
9.9099999,7.129932880401611,-2.5761611461639404,6.4595561027526855,-18.218994140625,-22.705078125,-17.6239013671875
9.9299999,7.082048416137695,-2.5953147411346436,6.481103897094727,-11.77978515625,-21.97265625,-13.153076171875
9.9499999,7.06528902053833,-2.5282769203186035,6.4164605140686035,7.1258544921875,3.8299560546875,3.0364990234375
9.969999900000001,7.101202011108398,-2.3582887649536133,6.248866558074951,7.01904296875,-3.11279296875,-4.69970703125
9.9899999,7.151480674743652,-2.293645143508911,6.145915985107422,-7.2479248046875,-20.172119140625,-13.1683349609375
10.0099999,7.220912456512451,-2.3487119674682617,6.19379997253418,-7.1258544921875,-6.7138671875,-5.157470703125
10.0299999,7.304709434509277,-2.3343467712402344,6.22731876373291,2.044677734375,-0.8087158203125,-8.8043212890625
10.049999900000001,7.402871608734131,-2.231395959854126,6.270414352416992,10.498046875,-9.1094970703125,-16.6168212890625
10.069999900000001,7.46033239364624,-2.1811177730560303,6.3518171310424805,14.404296875,-2.777099609375,-1.007080078125
10.0899999,7.496245384216309,-2.0901381969451904,6.31829833984375,2.899169921875,-2.4566650390625,5.523681640625
10.1099999,7.484274387359619,-2.073378562927246,6.200982570648193,-11.260986328125,-6.256103515625,-5.7525634765625
10.129999900000001,7.465120792388916,-2.1523873805999756,6.095637321472168,-9.7198486328125,8.819580078125,-5.6915283203125
10.149999900000001,7.445967197418213,-2.183511972427368,6.009446144104004,-3.11279296875,16.7999267578125,-1.4495849609375
10.1699999,7.436390399932861,-2.166752576828003,5.983109951019287,-3.7689208984375,4.9285888671875,1.6326904296875
10.1899999,7.417236804962158,-2.2146365642547607,6.124367713928223,-5.1727294921875,6.8817138671875,7.4920654296875
10.209999900000001,7.398083209991455,-2.2840683460235596,6.339846134185791,-8.9569091796875,1.800537109375,0.8544921875
10.229999900000001,7.378929615020752,-2.3104045391082764,6.387730121612549,-16.845703125,-27.1148681640625,-9.1552734375
10.2499999,7.374141216278076,-2.3343467712402344,6.299144744873047,-13.0462646484375,-28.167724609375,-1.64794921875
10.2699999,7.371747016906738,-2.229001760482788,6.1052141189575195,-0.3509521484375,3.8299560546875,3.72314453125
10.2899999,7.359776020050049,-2.0925323963165283,5.7987565994262695,-7.0037841796875,2.838134765625,0.7781982421875
10.309999900000001,7.316680431365967,-2.094926595687866,5.688623428344727,-13.275146484375,-6.011962890625,5.1422119140625
10.3299999,7.285555839538574,-2.1068975925445557,5.731719017028809,-9.6893310546875,0.457763671875,2.5634765625
10.3499999,7.240066051483154,-2.1475989818573,5.774814605712891,-7.659912109375,-2.74658203125,-2.838134765625
10.3699999,7.216124057769775,-2.2649147510528564,5.880159378051758,-2.899169921875,-3.47900390625,3.326416015625
10.389999900000001,7.216124057769775,-2.319981336593628,5.963956356048584,2.44140625,-1.89208984375,1.9073486328125
10.4099999,7.230489253997803,-2.363077163696289,6.0190229415893555,-2.197265625,-12.115478515625,-5.9814453125
10.4299999,7.249642848968506,-2.4372973442077637,6.064512729644775,-4.2266845703125,-14.068603515625,0.2288818359375
10.4499999,7.273584842681885,-2.4181437492370605,6.045359134674072,-5.1116943359375,-7.2174072265625,1.77001953125
10.469999900000001,7.297526836395264,-2.3798365592956543,5.899312973022461,-2.349853515625,0.030517578125,1.5411376953125
10.4899999,7.316680431365967,-2.387019157409668,5.7772088050842285,2.62451171875,12.481689453125,4.119873046875
10.5099999,7.338228225708008,-2.4157495498657227,5.767632007598877,7.6751708984375,17.63916015625,1.861572265625
10.5299999,7.352593421936035,-2.4420857429504395,5.8203043937683105,2.99072265625,0.5340576171875,-5.43212890625
10.549999900000001,7.3693528175354,-2.449268341064453,5.954379558563232,-0.7476806640625,-7.720947265625,-4.1656494140625
10.569999900000001,7.376535415649414,-2.4229321479797363,6.04775333404541,-0.1983642578125,1.8768310546875,1.28173828125
10.5899999,7.386112213134766,-2.3989901542663574,6.038176536560059,-2.288818359375,5.706787109375,3.7841796875
10.6099999,7.386112213134766,-2.4013843536376953,5.985504150390625,-2.8533935546875,0.7476806640625,0.3814697265625
10.629999900000001,7.374141216278076,-2.473210334777832,5.9304375648498535,-0.396728515625,-1.953125,-0.4119873046875
10.649999900000001,7.357381820678711,-2.5282769203186035,5.880159378051758,1.0528564453125,2.777099609375,-0.18310546875
10.6699999,7.350199222564697,-2.497152328491211,5.815515995025635,-1.0833740234375,4.1351318359375,-5.157470703125
10.6899999,7.333439826965332,-2.4803929328918457,5.805939197540283,1.2664794921875,9.33837890625,2.0599365234375
10.709999900000001,7.299921035766602,-2.454056739807129,5.861005783081055,3.082275390625,17.425537109375,7.4310302734375
10.729999900000001,7.2568254470825195,-2.3774423599243164,5.995080947875977,-1.46484375,20.416259765625,-0.946044921875
10.7499999,7.19936466217041,-2.346317768096924,6.186617374420166,-5.5694580078125,11.932373046875,-1.953125
10.7699999,7.144298076629639,-2.3104045391082764,6.349422931671143,-3.96728515625,0.732421875,5.1422119140625
10.7899999,7.12035608291626,-2.2816741466522217,6.471527099609375,-0.1068115234375,4.1656494140625,4.638671875
10.809999900000001,7.1251444816589355,-2.3080103397369385,6.512228488922119,0.18310546875,9.1705322265625,1.800537109375
10.8299999,7.1490864753723145,-2.406172752380371,6.5050458908081055,-0.79345703125,7.0037841796875,3.662109375
10.8499999,7.1921820640563965,-2.5067291259765625,6.512228488922119,1.5411376953125,7.1563720703125,3.47900390625
10.8699999,7.230489253997803,-2.652775526046753,6.552929878234863,1.9683837890625,5.31005859375,1.556396484375
10.889999900000001,7.24485445022583,-2.7557260990142822,6.581660270690918,-0.9765625,-2.0599365234375,-2.7618408203125
10.9099999,7.247248649597168,-2.8107926845550537,6.598419666290283,-4.638671875,-4.119873046875,-5.6915283203125
10.9299999,7.240066051483154,-2.7700912952423096,6.53377628326416,-5.5389404296875,-1.28173828125,-1.8768310546875
10.9499999,7.2352776527404785,-2.6839001178741455,6.3973069190979,-3.7689208984375,-0.1068115234375,1.556396484375
10.969999900000001,7.2352776527404785,-2.5929205417633057,6.256049156188965,-0.7476806640625,1.9378662109375,1.6326904296875
10.9899999,7.2352776527404785,-2.5306711196899414,6.162675380706787,1.220703125,2.6702880859375,-1.5716552734375
11.0099999,7.242460250854492,-2.470816135406494,6.1530985832214355,1.0833740234375,2.2735595703125,-1.678466796875
11.0299999,7.252037048339844,-2.451662540435791,6.236895561218262,2.8228759765625,1.861572265625,2.50244140625
11.049999900000001,7.254431247711182,-2.4420857429504395,6.366182327270508,1.8768310546875,0.4119873046875,3.387451171875
11.069999900000001,7.249642848968506,-2.4827871322631836,6.4380083084106445,-2.471923828125,-3.5247802734375,1.3275146484375
11.0899999,7.230489253997803,-2.5258827209472656,6.45476770401001,-1.9073486328125,-1.953125,-1.220703125
11.1099999,7.208941459655762,-2.5498247146606445,6.433219909667969,2.716064453125,4.119873046875,-0.8392333984375
11.129999900000001,7.184999465942383,-2.5498247146606445,6.430825710296631,2.716064453125,5.9814453125,0.54931640625
11.149999900000001,7.16584587097168,-2.5306711196899414,6.466738700866699,-1.8463134765625,-0.152587890625,-0.1983642578125
11.1699999,7.146692276000977,-2.5019407272338867,6.476315498352051,-5.7830810546875,-6.103515625,-2.6092529296875
11.1899999,7.132327079772949,-2.4899697303771973,6.433219909667969,-1.678466796875,-2.7313232421875,-0.18310546875
11.209999900000001,7.122750282287598,-2.516305923461914,6.390124320983887,4.5013427734375,6.9580078125,2.2125244140625
11.229999900000001,7.1251444816589355,-2.537853717803955,6.361393928527832,-1.15966796875,5.0811767578125,-1.64794921875
11.2499999,7.134721279144287,-2.5713725090026855,6.354211330413818,-9.002685546875,-4.9285888671875,-3.509521484375
11.2699999,7.139509677886963,-2.585737943649292,6.342240333557129,-6.134033203125,-2.74658203125,1.2054443359375
11.2899999,7.129932880401611,-2.6144683361053467,6.301538944244385,0,5.218505859375,3.5858154296875
11.309999900000001,7.122750282287598,-2.63362193107605,6.299144744873047,0.457763671875,6.591796875,-1.3885498046875
11.3299999,7.113173484802246,-2.6384103298187256,6.342240333557129,-4.8675537109375,-1.0833740234375,-6.7596435546875
11.3499999,7.113173484802246,-2.63362193107605,6.3949127197265625,-5.584716796875,-6.4239501953125,0.640869140625
11.3699999,7.115567684173584,-2.5713725090026855,6.399701118469238,-2.8076171875,-1.953125,2.8533935546875
11.389999900000001,7.108384609222412,-2.5953147411346436,6.366182327270508,0.5950927734375,3.662109375,2.5177001953125
11.4099999,7.101202011108398,-2.6144683361053467,6.31829833984375,-1.03759765625,2.166748046875,-2.716064453125
11.4299999,7.0988078117370605,-2.650381326675415,6.279991149902344,-6.8206787109375,-4.08935546875,-6.3323974609375
11.4499999,7.105990409851074,-2.6647465229034424,6.253654956817627,-4.1046142578125,-1.9378662109375,-0.091552734375
11.469999900000001,7.117961883544922,-2.6240451335906982,6.234501361846924,0.8087158203125,3.936767578125,-0.8544921875
11.4899999,7.127538681030273,-2.585737943649292,6.232107162475586,-0.1678466796875,2.7618408203125,-2.3193359375
11.5099999,7.129932880401611,-2.559401512145996,6.2632317543029785,-3.5400390625,-2.105712890625,-3.2501220703125
11.5299999,7.137115478515625,-2.5498247146606445,6.337451934814453,-1.8768310546875,-1.312255859375,-1.556396484375
11.549999900000001,7.156269073486328,-2.518700122833252,6.426037311553955,0.6256103515625,1.6021728515625,-3.2958984375
11.569999900000001,7.180211067199707,-2.4899697303771973,6.495469093322754,-0.4425048828125,-1.2664794921875,-3.875732421875
11.5899999,7.201758861541748,-2.5234885215759277,6.555324077606201,-2.532958984375,-3.1585693359375,1.0528564453125
11.6099999,7.225700855255127,-2.5761611461639404,6.560112476348877,-2.227783203125,-2.655029296875,-0.457763671875
11.629999900000001,7.24485445022583,-2.63362193107605,6.495469093322754,-0.213623046875,-3.662109375,-8.880615234375
11.649999900000001,7.264008045196533,-2.7030537128448486,6.430825710296631,-0.579833984375,-1.6021728515625,-8.3160400390625
11.6699999,7.283161640167236,-2.736572504043579,6.406883716583252,-6.7291259765625,0.030517578125,-4.364013671875
11.6899999,7.307103633880615,-2.715024709701538,6.375759124755859,-13.3056640625,-5.462646484375,-9.7808837890625
11.709999900000001,7.321468830108643,-2.676717519760132,6.342240333557129,-14.8468017578125,-9.3536376953125,-11.4288330078125
11.729999900000001,7.328651428222656,-2.5953147411346436,6.270414352416992,-5.0811767578125,-3.1280517578125,-5.5694580078125
11.7499999,7.3238630294799805,-2.497152328491211,6.184223175048828,-0.335693359375,1.068115234375,-3.0517578125
11.7699999,7.292738437652588,-2.4588451385498047,6.064512729644775,-6.378173828125,-0.6561279296875,-2.471923828125
11.7899999,7.2568254470825195,-2.4396915435791016,5.947196960449219,-16.021728515625,-1.0986328125,-7.75146484375
11.809999900000001,7.19936466217041,-2.4803929328918457,5.880159378051758,-8.5906982421875,9.307861328125,-10.8795166015625
11.8299999,7.156269073486328,-2.535459518432617,5.901707172393799,-3.7689208984375,15.3350830078125,-11.932373046875
11.8499999,7.151480674743652,-2.4851813316345215,5.990292549133301,-15.56396484375,9.185791015625,-14.7247314453125
11.8699999,7.1706342697143555,-2.3487119674682617,6.110002517700195,-23.6053466796875,3.509521484375,-11.8560791015625
11.889999900000001,7.206547260284424,-2.2218191623687744,6.253654956817627,-17.08984375,18.00537109375,4.9285888671875
11.9099999,7.247248649597168,-2.229001760482788,6.406883716583252,-10.5438232421875,29.11376953125,14.2822265625
11.9299999,7.264008045196533,-2.2816741466522217,6.495469093322754,-13.8092041015625,4.5623779296875,-1.739501953125
11.9499999,7.273584842681885,-2.47560453414917,6.581660270690918,-15.380859375,-8.8653564453125,-9.674072265625
11.969999900000001,7.266402244567871,-2.715024709701538,6.682217121124268,-5.523681640625,12.4359130859375,3.692626953125
11.9899999,7.247248649597168,-2.9161376953125,6.737283706665039,-8.7432861328125,15.5029296875,2.9296875
12.0099999,7.247248649597168,-3.0573954582214355,6.847416877746582,-18.402099609375,-0.5340576171875,-14.3585205078125
12.0299999,7.223306655883789,-3.2106244564056396,7.091625213623047,-14.8162841796875,-1.9683837890625,-14.9993896484375
12.049999900000001,7.230489253997803,-3.2393548488616943,7.354987621307373,-16.7694091796875,-4.33349609375,-8.7738037109375
12.069999900000001,7.249642848968506,-3.043030261993408,7.479485988616943,-31.7535400390625,-26.611328125,-19.0887451171875
12.0899999,7.266402244567871,-2.9041666984558105,7.42681360244751,-31.158447265625,-35.400390625,-6.5765380859375
12.1099999,7.283161640167236,-2.8610711097717285,7.228095054626465,-18.6920166015625,-16.7694091796875,6.4544677734375
12.129999900000001,7.295132637023926,-2.9041666984558105,6.936002254486084,-22.6593017578125,-15.625,-12.5732421875
12.149999900000001,7.331045627593994,-2.978386878967285,6.586448669433594,-29.052734375,-41.290283203125,-29.7393798828125
12.1699999,7.352593421936035,-3.0406360626220703,6.3733649253845215,-18.0206298828125,-39.6728515625,-18.8140869140625
12.1899999,7.390900611877441,-2.985569477081299,6.141127586364746,-10.894775390625,-28.1219482421875,-7.1868896484375
12.209999900000001,7.474697589874268,-2.75812029838562,5.851428985595703,-22.735595703125,-33.6456298828125,-18.5699462890625
12.229999900000001,7.55131196975708,-2.5929205417633057,5.564124584197998,-27.496337890625,-37.0635986328125,-17.7764892578125
12.2499999,7.6351094245910645,-2.47560453414917,5.219359874725342,-17.9595947265625,-33.02001953125,-3.0517578125
12.2699999,7.728483200073242,-2.3535003662109375,4.855441093444824,-13.885498046875,-24.2767333984375,-6.134033203125
12.289999900000002,7.7763671875,-2.4229321479797363,4.5609540939331055,-13.0157470703125,-19.683837890625,-7.1868896484375
12.309999900000001,7.826645374298096,-2.564189910888672,4.355052947998047,-13.8702392578125,-25.7720947265625,-6.988525390625
12.3299999,7.905653953552246,-2.628833532333374,4.213795185089111,-10.040283203125,-26.3671875,-11.4593505859375
12.3499999,7.977479934692383,-2.6815059185028076,4.094084739685059,-8.7890625,-23.681640625,-7.2174072265625
12.3699999,8.051700592041016,-2.7054479122161865,4.01268196105957,-7.659912109375,-18.2037353515625,2.471923828125
12.389999900000001,8.118738174438477,-2.719813108444214,3.8786067962646484,-11.41357421875,-18.8140869140625,-1.89208984375
12.4099999,8.180987358093262,-2.7964274883270264,3.754108190536499,-14.190673828125,-18.1121826171875,-6.16455078125
12.4299999,8.269572257995605,-2.9257144927978516,3.5745432376861572,-8.2855224609375,-13.0767822265625,-2.99072265625
12.4499999,8.396465301513672,-2.9328970909118652,3.251325845718384,-7.14111328125,-18.9361572265625,-12.908935546875
12.469999900000001,8.554482460021973,-2.853888511657715,2.7557260990142822,-7.781982421875,-19.7906494140625,-16.021728515625
12.4899999,8.779537200927734,-2.6216509342193604,1.9847931861877441,-16.8609619140625,-14.3585205078125,-13.5498046875
12.5099999,9.157821655273438,-2.255337953567505,1.0821791887283325,-21.7132568359375,2.13623046875,-10.1470947265625
12.5299999,9.873687744140625,-1.8052281141281128,0.05506663769483566,-14.83154296875,-0.7476806640625,-10.6658935546875
12.549999900000001,11.293449401855469,-1.6065093278884888,-1.213860273361206,-39.6270751953125,-36.2396240234375,-7.9193115234375
12.569999900000001,13.855245590209961,-1.9273324012756348,-3.1938650608062744,-139.22119140625,-116.39404296875,-8.11767578125
12.5899999,17.101781845092773,-1.5442601442337036,-7.194576263427734,-257.537841796875,-238.1744384765625,-104.2327880859375
12.6099999,19.92454719543457,1.2497732639312744,-14.429853439331055,-259.7808837890625,-219.66552734375,-182.1441650390625
12.629999900000001,20.089746475219727,7.3238630294799805,-26.25481605529785,-240.78369140625,-120.819091796875,-33.294677734375
12.649999900000001,14.609418869018555,14.676456451416016,-36.980838775634766,-44.5098876953125,290.2069091796875,270.233154296875
12.6699999,1.259350061416626,16.424222946166992,-39.49953842163086,199.920654296875,499.9847412109375,480.926513671875
12.6899999,-14.992490768432617,11.602301597595215,-27.32981300354004,237.457275390625,499.9847412109375,455.5816650390625
12.709999900000001,-31.608251571655273,2.7461493015289307,-8.489839553833008,-16.571044921875,411.834716796875,-92.926025390625
12.729999900000001,-41.910499572753906,-9.418789863586426,21.26290512084961,224.700927734375,483.9324951171875,169.3115234375
12.7499999,-42.911277770996094,-12.294225692749023,41.0246467590332,175.7659912109375,314.605712890625,-7.080078125
12.7699999,-37.30166244506836,-13.318943977355957,49.916709899902344,-321.8994140625,-284.912109375,42.144775390625
12.789999900000002,-27.748798370361328,-10.795455932617188,43.344627380371094,-422.119140625,-426.33056640625,116.0736083984375
12.809999900000001,-17.338808059692383,-7.371747016906738,29.017724990844727,8.1787109375,242.49267578125,-4.241943359375
12.8299999,-8.813055992126465,-4.900930881500244,12.02846908569336,134.1400146484375,436.46240234375,-40.924072265625
12.8499999,-2.846705913543701,-4.218583583831787,2.185906171798706,-52.91748046875,50.3082275390625,102.47802734375
12.8699999,0.6536170840263367,-3.7445313930511475,-0.5410895943641663,-123.291015625,-93.0023193359375,64.727783203125
12.889999900000001,1.86508309841156,-4.910507678985596,0.6033388376235962,-96.435546875,-85.4034423828125,-52.91748046875
12.9099999,1.7310078144073486,-6.430825710296631,2.0685901641845703,2.3956298828125,39.764404296875,-31.219482421875
12.9299999,1.1061211824417114,-6.94079065322876,3.4332852363586426,23.7274169921875,64.4683837890625,12.725830078125
12.9499999,0.507570743560791,-7.218518257141113,5.169081687927246,-28.7933349609375,55.0384521484375,23.92578125
12.969999900000001,0.17477671802043915,-7.264008045196533,6.89530086517334,-28.3660888671875,34.8052978515625,2.716064453125
12.9899999,0.05506663769483566,-7.582436561584473,8.343792915344238,21.1029052734375,12.6495361328125,-13.8397216796875
13.0099999,-0.040701430290937424,-7.936778545379639,9.097966194152832,25.726318359375,8.4075927734375,6.0882568359375
13.0299999,-0.05267243832349777,-7.857769966125488,9.44752025604248,7.8887939453125,33.355712890625,6.9427490234375
13.049999900000001,-0.06224924325942993,-7.680599212646484,9.354146003723145,7.080078125,57.3577880859375,-0.2288818359375
13.069999900000001,-0.031124621629714966,-7.4770917892456055,9.131484985351562,-19.1192626953125,30.487060546875,14.862060546875
13.0899999,0.035913024097681046,-7.2113356590271,8.978256225585938,-29.7393798828125,9.33837890625,9.9945068359375
13.1099999,0.05746084079146385,-7.220912456512451,8.813055992126465,-15.7623291015625,-0.67138671875,9.9029541015625
13.129999900000001,-0.023942016065120697,-7.354987621307373,8.609549522399902,-7.0037841796875,-2.13623046875,7.110595703125
13.149999900000001,-0.10534487664699554,-7.565677165985107,8.427590370178223,-3.570556640625,15.533447265625,-2.410888671875
13.1699999,-0.1364694982767105,-7.55131196975708,8.11634349822998,-2.3651123046875,3.692626953125,-13.1683349609375
13.1899999,-0.10295066982507706,-7.33583402633667,7.953537940979004,-6.3323974609375,-14.83154296875,-9.2620849609375
13.209999900000001,-0.038307227194309235,-7.072471618652344,7.864952564239502,-5.9814453125,-13.0767822265625,9.246826171875
13.229999900000001,-0.011971008032560349,-6.9240312576293945,7.740454196929932,-17.4407958984375,-6.4697265625,8.270263671875
13.2499999,-0.021547814831137657,-7.0126166343688965,7.7213006019592285,-3.2501220703125,7.171630859375,-4.547119140625
13.2699999,-0.014365210197865963,-7.043741226196289,7.714118003845215,11.5509033203125,10.9100341796875,-16.571044921875
13.289999900000002,0.023942016065120697,-6.794744491577148,7.745242595672607,-13.5955810546875,-8.0108642578125,-11.4288330078125
13.309999900000001,0.040701430290937424,-6.658275127410889,7.905653953552246,-24.10888671875,-7.049560546875,16.9525146484375
13.3299999,0,-6.62236213684082,7.723694801330566,-5.8135986328125,-9.0484619140625,14.5263671875
13.3499999,-0.0694318488240242,-6.71334171295166,7.556100368499756,22.5830078125,12.0391845703125,-16.1285400390625
13.3699999,-0.10773907601833344,-6.775590896606445,7.3885064125061035,29.4342041015625,28.076171875,-19.2718505859375
13.389999900000001,-0.07422025501728058,-6.648698329925537,7.254431247711182,-3.387451171875,2.6702880859375,3.631591796875
13.4099999,0.0454898327589035,-6.531382083892822,7.144298076629639,-21.2249755859375,-17.7764892578125,16.3726806640625
13.4299999,0.14365209639072418,-6.5050458908081055,7.141903877258301,-21.331787109375,-4.33349609375,-7.0037841796875
13.4499999,0.17477671802043915,-6.636727333068848,7.043741226196289,-17.08984375,3.3111572265625,-13.0767822265625
13.469999900000001,0.181959331035614,-6.588842868804932,7.218518257141113,-12.0391845703125,3.082275390625,4.39453125
13.4899999,0.14365209639072418,-6.567295074462891,7.338228225708008,-10.43701171875,-12.6953125,22.430419921875
13.5099999,0.08619125932455063,-6.658275127410889,7.5201873779296875,-4.730224609375,-20.050048828125,12.14599609375
13.5299999,0.05267243832349777,-6.950367450714111,7.338228225708008,3.35693359375,-20.3094482421875,-10.55908203125
13.549999900000001,0.026336219161748886,-7.163451671600342,6.943184852600098,9.765625,-20.1873779296875,-17.8985595703125
13.569999900000001,0.040701430290937424,-6.993463039398193,6.48828649520874,13.61083984375,-3.0059814453125,-8.056640625
13.5899999,0.08619125932455063,-6.761225700378418,6.248866558074951,14.495849609375,24.4903564453125,19.2718505859375
13.6099999,0.1149216815829277,-6.507440090179443,6.205770969390869,5.37109375,19.7296142578125,16.7999267578125
13.629999900000001,0.1364694982767105,-6.521805286407471,6.294356346130371,-2.4871826171875,-7.38525390625,-2.9449462890625
13.649999900000001,0.13168109953403473,-6.675034523010254,6.691793918609619,-0.5950927734375,6.5155029296875,-5.7525634765625
13.6699999,0.11013327538967133,-6.821080684661865,7.022193431854248,-7.6904296875,8.3465576171875,2.38037109375
13.6899999,0.09576806426048279,-6.825869083404541,7.247248649597168,-13.458251953125,-8.4228515625,4.7760009765625
13.709999900000001,0.08619125932455063,-6.873753070831299,7.3454108238220215,-2.9296875,-6.927490234375,6.317138671875
13.729999900000001,0.08379705995321274,-6.890512466430664,7.321468830108643,8.6822509765625,4.3182373046875,4.39453125
13.7499999,0.06224924325942993,-7.007828235626221,7.184999465942383,-0.7171630859375,-3.1280517578125,1.6021728515625
13.7699999,0.047884032130241394,-7.146692276000977,6.988674640655518,-8.5601806640625,-19.134521484375,1.312255859375
13.789999900000002,0.033518824726343155,-7.0772600173950195,6.847416877746582,4.7149658203125,-8.4686279296875,-8.5906982421875
13.809999900000001,0.021547814831137657,-7.0317702293396,6.835445880889893,16.7388916015625,18.9666748046875,5.55419921875
13.8299999,0.016759412363171577,-6.931213855743408,6.912060260772705,7.50732421875,15.472412109375,17.578125
13.8499999,0.023942016065120697,-6.9024834632873535,7.117961883544922,-3.326416015625,-5.43212890625,6.9580078125
13.8699999,0.038307227194309235,-7.017405033111572,7.3454108238220215,0.6866455078125,-4.3487548828125,-2.9449462890625
13.889999900000001,0.05985504388809204,-7.072471618652344,7.496245384216309,2.9296875,8.2550048828125,-5.523681640625
13.9099999,0.08858546614646912,-7.151480674743652,7.491456985473633,7.781982421875,1.800537109375,7.781982421875
13.9299999,0.11252748221158981,-7.127538681030273,7.398083209991455,14.312744140625,-5.9814453125,7.415771484375
13.9499999,0.10773907601833344,-7.067683219909668,7.266402244567871,8.3770751953125,1.983642578125,-1.739501953125
13.969999900000001,0.06464344263076782,-7.1490864753723145,7.266402244567871,5.92041015625,20.32470703125,4.547119140625
13.9899999,0.026336219161748886,-7.103596210479736,7.354987621307373,2.349853515625,7.38525390625,0.6561279296875
14.0099999,-0.009576806798577309,-7.067683219909668,7.491456985473633,-9.3994140625,-15.9759521484375,-9.6588134765625
14.0299999,-0.021547814831137657,-6.964732646942139,7.69735860824585,-9.4451904296875,-3.0975341796875,-5.79833984375
14.049999900000001,-0.021547814831137657,-6.904877662658691,7.618350028991699,-5.3558349609375,2.7923583984375,5.31005859375
14.069999900000001,0.002394201699644327,-6.782773494720459,7.42681360244751,-0.9307861328125,-1.6021728515625,1.251220703125
14.0899999,0.009576806798577309,-6.734889507293701,7.2113356590271,8.5601806640625,2.44140625,-2.3956298828125
14.1099999,-0.0071826050989329815,-6.746860504150391,7.223306655883789,6.8359375,15.5487060546875,1.6021728515625
14.129999900000001,-0.028730420395731926,-6.773196697235107,7.287950038909912,-16.4794921875,1.953125,-0.2288818359375
14.149999900000001,-0.05985504388809204,-6.852205276489258,7.33583402633667,-24.810791015625,-18.6309814453125,-4.6844482421875
14.1699999,-0.05985504388809204,-6.897695064544678,7.328651428222656,1.2969970703125,-3.7689208984375,-5.950927734375
14.1899999,-0.05746084079146385,-6.912060260772705,7.168240070343018,10.8642578125,12.237548828125,-0.48828125
14.209999900000001,-0.040701430290937424,-6.825869083404541,7.091625213623047,3.5247802734375,14.0533447265625,4.9896240234375
14.229999900000001,-0.038307227194309235,-6.687005519866943,7.19936466217041,-6.4544677734375,4.39453125,3.6468505859375
14.2499999,-0.05267243832349777,-6.6630635261535645,7.328651428222656,-10.43701171875,-7.568359375,7.4920654296875
14.2699999,-0.08140286058187485,-6.67982292175293,7.445967197418213,-2.1514892578125,-2.166748046875,6.53076171875
14.289999900000002,-0.12210428714752197,-6.737283706665039,7.400477409362793,-1.0986328125,-0.1220703125,1.6632080078125
14.309999900000001,-0.14844051003456116,-6.715735912322998,7.261613845825195,-4.1046142578125,-6.256103515625,1.434326171875
14.3299999,-0.16998831927776337,-6.593631267547607,7.168240070343018,-3.7994384765625,-1.8768310546875,8.1024169921875
14.3499999,-0.181959331035614,-6.543353080749512,7.137115478515625,-12.02392578125,4.241943359375,17.242431640625
14.3699999,-0.19153612852096558,-6.742072105407715,7.105990409851074,-17.0135498046875,-2.62451171875,16.2353515625
14.389999900000001,-0.19871874153614044,-7.06528902053833,7.015010833740234,3.11279296875,-13.1988525390625,-3.387451171875
14.4099999,-0.19153612852096558,-7.3023152351379395,6.976703643798828,18.9208984375,0.9765625,-15.7012939453125
14.4299999,-0.15322890877723694,-7.285555839538574,6.866570472717285,8.8348388671875,7.62939453125,-1.40380859375
14.4499999,-0.13407529890537262,-7.108384609222412,6.936002254486084,-0.6256103515625,7.8125,14.7552490234375
14.469999900000001,-0.12689268589019775,-7.003039836883545,7.015010833740234,-2.655029296875,3.8604736328125,11.2762451171875
14.4899999,-0.12689268589019775,-6.98628044128418,7.048529624938965,-2.3956298828125,-3.4027099609375,-8.0413818359375
14.5099999,-0.14604631066322327,-7.053318023681641,7.137115478515625,7.1258544921875,12.14599609375,-5.889892578125
14.5299999,-0.15322890877723694,-6.97430944442749,7.187393665313721,7.0037841796875,13.4735107421875,4.730224609375
14.549999900000001,-0.17717093229293823,-6.9695210456848145,7.326257228851318,2.9449462890625,1.373291015625,11.566162109375
14.569999900000001,-0.20111294090747833,-6.92881965637207,7.496245384216309,-1.617431640625,-2.9296875,-0.274658203125
14.5899999,-0.24181437492370605,-7.036558628082275,7.625532627105713,2.8839111328125,1.46484375,-4.1351318359375
14.6099999,-0.2513911724090576,-7.079654216766357,7.675810813903809,5.5389404296875,2.105712890625,0.6103515625
14.629999900000001,-0.2513911724090576,-7.036558628082275,7.642292022705078,-1.7242431640625,-4.241943359375,0.9765625
14.649999900000001,-0.24899697303771973,-7.0557122230529785,7.529764175415039,-1.9378662109375,-4.1046142578125,2.7618408203125
14.6699999,-0.24181437492370605,-7.074865818023682,7.395689010620117,3.9825439453125,3.631591796875,-1.2359619140625
14.6899999,-0.22744916379451752,-7.0772600173950195,7.261613845825195,6.805419921875,3.204345703125,-6.4849853515625
14.709999900000001,-0.22505496442317963,-6.998251438140869,7.2352776527404785,0,-1.8768310546875,-4.5623779296875
14.729999900000001,-0.22266076505184174,-6.900089263916016,7.283161640167236,-1.7547607421875,-1.9989013671875,4.7454833984375
14.7499999,-0.22744916379451752,-6.780379295349121,7.328651428222656,0.9002685546875,-0.0152587890625,2.899169921875
14.7699999,-0.23942017555236816,-6.8378400802612305,7.295132637023926,-2.62451171875,-2.44140625,1.983642578125
14.789999900000002,-0.24660277366638184,-6.904877662658691,7.19936466217041,-2.838134765625,-1.5411376953125,-1.9378662109375
14.809999900000001,-0.26096799969673157,-7.0126166343688965,7.072471618652344,5.7220458984375,0.7476806640625,-1.77001953125
14.8299999,-0.26336219906806946,-6.967126846313477,6.983886241912842,9.21630859375,3.60107421875,-2.62451171875
14.8499999,-0.2777273952960968,-6.9024834632873535,6.9240312576293945,3.8604736328125,1.5411376953125,1.03759765625
14.8699999,-0.31124621629714966,-6.909666061401367,6.962338447570801,1.8768310546875,3.997802734375,7.3089599609375
14.889999900000001,-0.35434186458587646,-6.971915245056152,7.0126166343688965,8.7127685546875,4.791259765625,-0.823974609375
14.9099999,-0.38067805767059326,-6.9455790519714355,7.010222434997559,14.0533447265625,-0.0457763671875,-14.312744140625
14.9299999,-0.395043283700943,-6.8809356689453125,7.043741226196289,11.0015869140625,4.150390625,-5.2337646484375
14.9499999,-0.3974374830722809,-6.835445880889893,7.070077419281006,6.6986083984375,8.3160400390625,11.8560791015625
14.969999900000001,-0.3663128614425659,-6.828263282775879,7.0772600173950195,17.9595947265625,0.396728515625,1.220703125
14.9899999,-0.33039984107017517,-6.794744491577148,7.163451671600342,19.7601318359375,1.77001953125,-18.73779296875
15.0099999,-0.2992752194404602,-6.835445880889893,7.273584842681885,12.39013671875,6.34765625,-1.617431640625
15.0299999,-0.2825157940387726,-6.813898086547852,7.469909191131592,19.4549560546875,5.7525634765625,14.9383544921875
15.049999900000001,-0.2849099934101105,-6.751648902893066,7.666234016418457,29.0069580078125,-1.5411376953125,-1.46484375
15.069999900000001,-0.31364041566848755,-6.756437301635742,7.807491779327393,17.333984375,-5.18798828125,-13.0615234375
15.0899999,-0.3423708379268646,-6.737283706665039,7.982268333435059,4.5928955078125,7.01904296875,-3.47900390625
15.1099999,-0.33518823981285095,-6.564900875091553,8.039729118347168,-1.9378662109375,3.997802734375,1.220703125
15.129999900000001,-0.31842881441116333,-6.390124320983887,8.099584579467773,-4.4097900390625,-4.3487548828125,-1.8463134765625
15.149999900000001,-0.29209262132644653,-6.313509941101074,8.11634349822998,-5.6304931640625,-0.8087158203125,0.2899169921875
15.1699999,-0.2825157940387726,-6.387730121612549,8.030152320861816,-7.5531005859375,-0.244140625,1.3427734375
15.1899999,-0.26336219906806946,-6.473921298980713,7.9415669441223145,-1.495361328125,0.1220703125,-6.0577392578125
15.209999900000001,-0.24660277366638184,-6.517016887664795,7.838616371154785,2.8076171875,-3.7078857421875,-10.6964111328125
15.229999900000001,-0.22266076505184174,-6.430825710296631,7.771578788757324,-0.1068115234375,-4.8980712890625,-2.99072265625
15.2499999,-0.21308395266532898,-6.344634532928467,7.747636795043945,-2.655029296875,-0.1373291015625,7.26318359375
15.2699999,-0.22266076505184174,-6.308721542358398,7.733271598815918,-3.2501220703125,-1.3275146484375,4.302978515625
15.289999900000002,-0.24181437492370605,-6.327875137329102,7.68538761138916,-1.3580322265625,-8.0413818359375,-8.636474609375
15.309999900000001,-0.24899697303771973,-6.313509941101074,7.613561630249023,1.7547607421875,-7.080078125,-7.4615478515625
15.3299999,-0.23942017555236816,-6.258443355560303,7.503427982330322,3.0059814453125,-1.89208984375,4.8370361328125
15.3499999,-0.2298433631658554,-6.217741966247559,7.378929615020752,9.2315673828125,-4.3182373046875,10.009765625
15.3699999,-0.22266076505184174,-6.179434776306152,7.309497833251953,14.7247314453125,-7.2479248046875,-0.7476806640625
15.389999900000001,-0.23702596127986908,-6.291962146759033,7.275979042053223,17.27294921875,-7.9803466796875,1.3580322265625
15.4099999,-0.22266076505184174,-6.246472358703613,7.395689010620117,23.4527587890625,-7.965087890625,1.373291015625
15.4299999,-0.22505496442317963,-6.1985883712768555,7.479485988616943,35.2020263671875,-23.7274169921875,4.5928955078125
15.4499999,-0.24181437492370605,-6.1770405769348145,7.3454108238220215,29.6478271484375,-38.818359375,9.09423828125
15.469999900000001,-0.2537853717803955,-6.14831018447876,7.417236804962158,19.9127197265625,5.3558349609375,2.105712890625
15.4899999,-0.28969839215278625,-6.215347766876221,7.417236804962158,19.7296142578125,22.27783203125,1.8310546875
15.5099999,-0.3016694188117981,-6.224924564361572,7.627926826477051,12.1612548828125,-12.176513671875,1.15966796875
15.5299999,-0.29209262132644653,-6.18182897567749,8.128314971923828,20.355224609375,-13.519287109375,-1.983642578125
15.549999900000001,-0.31124621629714966,-6.04775333404541,8.451532363891602,25.634765625,-22.6287841796875,-4.0435791015625
15.569999900000001,-0.3495534360408783,-5.880159378051758,8.669404029846191,16.8609619140625,-28.8238525390625,-0.54931640625
15.5899999,-0.4357447028160095,-5.813121795654297,8.863334655761719,16.5252685546875,-16.8609619140625,6.378173828125
15.6099999,-0.5410895943641663,-5.839457988739014,8.899248123168945,25.6195068359375,-31.25,-0.1220703125
15.629999900000001,-0.5841852426528931,-5.928043365478516,8.96149730682373,38.6810302734375,-42.724609375,-12.0086669921875
15.649999900000001,-0.5722141861915588,-5.944802761077881,8.975862503051758,33.75244140625,-39.4744873046875,-11.474609375
15.6699999,-0.42856210470199585,-5.870582580566406,8.884882926940918,13.6260986328125,-47.6531982421875,6.317138671875
15.6899999,-0.2298433631658554,-5.674258232116699,8.588001251220703,-3.570556640625,-66.2384033203125,15.6097412109375
15.709999900000001,-0.0694318488240242,-5.513846397399902,8.130708694458008,-10.9710693359375,-66.95556640625,17.6239013671875
15.729999900000001,0.035913024097681046,-5.497087001800537,7.6566572189331055,-7.99560546875,-40.557861328125,25.7720947265625
15.7499999,0.10773907601833344,-5.56173038482666,7.383718013763428,-7.14111328125,-23.49853515625,23.98681640625
15.7699999,0.15562310814857483,-5.66228723526001,7.429207801818848,-5.8441162109375,-39.9932861328125,14.617919921875
15.789999900000002,0.16998831927776337,-5.779603004455566,7.680599212646484,1.6326904296875,-59.6160888671875,22.7203369140625
15.809999900000001,0.16759411990642548,-5.870582580566406,8.020575523376465,0.3814697265625,-45.6695556640625,30.4718017578125
15.8299999,0.17717093229293823,-5.882553577423096,8.415618896484375,-13.6566162109375,-17.5933837890625,15.2740478515625
15.8499999,0.1628057211637497,-5.963956356048584,8.87051773071289,-9.2926025390625,-25.6500244140625,2.960205078125
15.869999900000002,0.16759411990642548,-6.078877925872803,9.334992408752441,-2.2735595703125,-59.661865234375,9.033203125
15.889999900000001,0.14844051003456116,-6.234501361846924,9.545681953430176,0.885009765625,-76.171875,4.08935546875
15.9099999,0.15801730751991272,-6.390124320983887,9.387664794921875,17.8375244140625,-62.042236328125,-8.97216796875
15.9299999,0.2753331959247589,-6.320692539215088,9.014169692993164,39.1082763671875,-34.0118408203125,-31.768798828125
15.9499999,0.5626373887062073,-5.96874475479126,8.674192428588867,41.1834716796875,-34.8968505859375,-34.2559814453125
15.969999900000001,0.8427590131759644,-5.547365188598633,8.62391471862793,14.6331787109375,-50.1251220703125,-12.8936767578125
15.9899999,1.01753568649292,-5.578489780426025,8.865729331970215,8.758544921875,-58.624267578125,12.0697021484375
16.0099999,1.1683704853057861,-5.892130374908447,8.968679428100586,53.924560546875,-67.4285888671875,-13.092041015625
16.0299999,1.3982137441635132,-5.767632007598877,8.832210540771484,39.520263671875,-72.113037109375,-106.0028076171875
16.0499999,1.867477297782898,-4.920084476470947,8.5903959274292,9.857177734375,-36.8499755859375,-100.799560546875
16.0699999,2.276885747909546,-3.758896589279175,8.607154846191406,3.3721923828125,0.8087158203125,22.216796875
16.089999900000002,2.6168625354766846,-3.3518824577331543,8.93037223815918,24.7039794921875,-35.21728515625,117.0196533203125
16.109999900000002,2.765302896499634,-3.56017804145813,9.308655738830566,12.26806640625,-98.541259765625,-1.7547607421875
16.1299999,2.980781078338623,-4.086902141571045,9.399636268615723,-27.6031494140625,-98.4649658203125,-126.3275146484375
16.1499999,3.220201253890991,-4.151545524597168,9.05247688293457,0.213623046875,-56.45751953125,-41.50390625
16.1699999,3.421314239501953,-4.194641590118408,8.640673637390137,26.9012451171875,-33.02001953125,105.89599609375
16.1899999,3.5003228187561035,-4.4508209228515625,8.250418663024902,14.2822265625,-66.5740966796875,71.014404296875
16.2099999,3.514688014984131,-4.9583916664123535,7.929595947265625,-10.07080078125,-102.1270751953125,-91.12548828125
16.2299999,3.5960910320281982,-5.142745018005371,7.592013359069824,13.5498046875,-72.723388671875,-91.6595458984375
16.249999900000002,3.8067808151245117,-4.824316501617432,7.395689010620117,46.8597412109375,-21.2860107421875,23.2696533203125
16.269999900000002,4.067748546600342,-4.388571739196777,7.450755596160889,40.0390625,-19.1802978515625,58.10546875
16.2899999,4.355052947998047,-3.993528366088867,7.754819393157959,-22.857666015625,-62.5,-47.454833984375
16.3099999,4.627991676330566,-3.8067808151245117,8.051700592041016,-23.7579345703125,-86.6851806640625,-74.9359130859375
16.3299999,4.843470096588135,-3.711012601852417,8.17141056060791,29.60205078125,-66.6046142578125,16.571044921875
16.3499999,4.920084476470947,-3.9863457679748535,8.152256965637207,30.242919921875,-48.248291015625,47.4395751953125
16.3699999,4.946420669555664,-4.51067590713501,7.965508937835693,2.471923828125,-69.82421875,-40.802001953125
16.3899999,5.07570743560791,-4.774038314819336,7.603984832763672,-14.739990234375,-85.26611328125,-120.66650390625
16.4099999,5.4013190269470215,-4.223371982574463,6.89530086517334,4.8980712890625,-85.1593017578125,-70.6634521484375
16.429999900000002,5.8657941818237305,-3.378218650817871,6.145915985107422,27.8778076171875,-51.666259765625,43.7469482421875
16.4499999,6.205770969390869,-3.0573954582214355,5.518634796142578,-9.4757080078125,-36.8194580078125,80.291748046875
16.4699999,6.440402507781982,-3.3638534545898438,4.929661273956299,-48.64501953125,-93.81103515625,-23.9410400390625
16.4899999,6.627150535583496,-3.8379054069519043,4.417302131652832,-41.1224365234375,-106.4453125,-95.0775146484375
16.5099999,6.892906665802002,-3.869029998779297,3.8307228088378906,7.9193115234375,-47.3480224609375,-32.2418212890625
16.5299999,7.194576263427734,-3.7205893993377686,3.466804027557373,37.7655029296875,1.9989013671875,49.774169921875
16.5499999,7.465120792388916,-3.892971992492676,3.56017804145813,-1.0833740234375,-5.950927734375,41.8548583984375
16.5699999,7.649474620819092,-4.321534156799316,3.9384617805480957,-31.8145751953125,-48.7823486328125,-41.4276123046875
16.589999900000002,7.843404769897461,-4.5394062995910645,4.343081951141357,-19.83642578125,-60.9130859375,-75.8514404296875
16.609999900000002,8.068459510803223,-4.268861770629883,4.527435302734375,16.754150390625,-25.6805419921875,-24.566650390625
16.6299999,8.288725852966309,-3.821146011352539,4.608838081359863,23.8800048828125,-4.302978515625,31.951904296875
16.6499999,8.38688850402832,-3.7445313930511475,4.6734819412231445,-22.3541259765625,-22.3236083984375,21.97265625
16.6699999,8.360552787780762,-4.108449935913086,4.671087741851807,-45.95947265625,-47.6837158203125,-27.740478515625
16.6899999,8.252813339233398,-4.584896087646484,4.460397720336914,-22.247314453125,-36.376953125,-49.37744140625
16.7099999,8.180987358093262,-4.623203277587891,4.094084739685059,10.955810546875,3.265380859375,-47.66845703125
16.7299999,8.180987358093262,-4.271255970001221,3.821146011352539,13.1072998046875,15.7928466796875,-32.5469970703125
16.749999900000002,8.200140953063965,-3.892971992492676,3.778050184249878,-7.3699951171875,-7.14111328125,-6.16455078125
16.769999900000002,8.212111473083496,-3.670311212539673,3.9671921730041504,-4.8675537109375,-17.578125,-11.8408203125
16.7899999,8.224082946777344,-3.5051112174987793,4.197035789489746,9.1094970703125,-3.11279296875,-47.821044921875
16.8099999,8.267178535461426,-3.184288263320923,4.352658748626709,-4.2724609375,-0.5950927734375,-61.309814453125
16.8299999,8.355764389038086,-2.6791117191314697,4.412513732910156,-11.3372802734375,-16.3116455078125,-23.8800048828125
16.8499999,8.47786808013916,-2.2194249629974365,4.486733913421631,3.0517578125,-15.2740478515625,13.73291015625
16.8699999,8.571242332458496,-2.0877439975738525,4.553771495819092,-2.86865234375,-7.1868896484375,8.4991455078125
16.8899999,8.631096839904785,-2.3032219409942627,4.54419469833374,-10.8184814453125,-18.157958984375,-14.2059326171875
16.9099999,8.65743350982666,-2.676717519760132,4.484339714050293,1.220703125,-25.1922607421875,-11.260986328125
16.929999900000002,8.669404029846191,-2.892195701599121,4.422090530395508,18.035888671875,-12.7410888671875,3.4942626953125
16.9499999,8.674192428588867,-2.959233283996582,4.350264549255371,13.763427734375,-13.3819580078125,8.5601806640625
16.9699999,8.633491516113281,-3.0813376903533936,4.32871675491333,-4.0435791015625,-26.0467529296875,17.4102783203125
16.9899999,8.544905662536621,-3.3423056602478027,4.28322696685791,-8.6517333984375,-28.900146484375,20.4925537109375
17.0099999,8.429984092712402,-3.6727054119110107,4.050989151000977,0.1678466796875,-29.11376953125,3.2196044921875
17.0299999,8.315062522888184,-3.890577793121338,3.689464807510376,14.7705078125,-20.599365234375,-17.4102783203125
17.0499999,8.245630264282227,-3.8762125968933105,3.3901896476745605,27.252197265625,-3.5552978515625,-15.2435302734375
17.0699999,8.22887134552002,-3.667917013168335,3.2417490482330322,23.956298828125,-3.3721923828125,2.99072265625
17.089999900000002,8.259995460510254,-3.3901896476745605,3.318363666534424,14.8468017578125,-13.8092041015625,7.293701171875
17.109999900000002,8.317456245422363,-3.1938650608062744,3.555389642715454,9.063720703125,-11.04736328125,-1.068115234375
17.1299999,8.367734909057617,-3.090914487838745,3.7493197917938232,3.3416748046875,-11.474609375,-0.091552734375
17.1499999,8.394071578979492,-3.0813376903533936,3.890577793121338,1.77001953125,-11.8408203125,8.3770751953125
17.1699999,8.38688850402832,-3.1004912853240967,3.864241600036621,2.166748046875,-13.36669921875,8.8653564453125
17.1899999,8.360552787780762,-3.0837318897247314,3.711012601852417,4.0283203125,-12.75634765625,-3.72314453125
17.2099999,8.327033042907715,-3.1100680828094482,3.6559460163116455,19.744873046875,6.65283203125,-0.1068115234375
17.2299999,8.310274124145508,-3.1292216777801514,3.7253777980804443,23.1781005859375,7.843017578125,8.8958740234375
17.249999900000002,8.31985092163086,-3.1531636714935303,3.8522706031799316,4.8065185546875,-17.4713134765625,4.9896240234375
17.269999900000002,8.322244644165039,-3.248931646347046,3.9432501792907715,-0.701904296875,-22.5067138671875,2.410888671875
17.2899999,8.305485725402832,-3.3949780464172363,3.936067581176758,11.932373046875,1.3275146484375,6.2103271484375
17.3099999,8.276755332946777,-3.469198226928711,3.883395195007324,13.0157470703125,11.5966796875,1.64794921875
17.3299999,8.250418663024902,-3.426102638244629,3.8810009956359863,-1.40380859375,-4.425048828125,-6.5155029296875
17.3499999,8.2312650680542,-3.2824504375457764,3.9169139862060547,-6.8206787109375,-13.6260986328125,-0.5340576171875
17.3699999,8.214506149291992,-3.1028854846954346,3.974374771118164,6.5765380859375,0.9307861328125,10.3607177734375
17.3899999,8.212111473083496,-2.96162748336792,4.015076160430908,13.6871337890625,11.688232421875,9.82666015625
17.409999900000003,8.216899871826172,-2.8802247047424316,4.07014274597168,-1.7547607421875,-0.42724609375,1.5716552734375
17.429999900000002,8.24084186553955,-2.9664158821105957,4.244919776916504,-1.617431640625,-3.4942626953125,8.8043212890625
17.4499999,8.303091049194336,-3.0526070594787598,4.434061527252197,8.148193359375,3.60107421875,13.1378173828125
17.4699999,8.374917984008789,-3.1483752727508545,4.503493309020996,1.495361328125,-3.6773681640625,6.04248046875
17.4899999,8.439560890197754,-3.308786630630493,4.522646903991699,0.885009765625,-5.6304931640625,10.7879638671875
17.5099999,8.506598472595215,-3.6128504276275635,4.438849925994873,4.2572021484375,-0.54931640625,5.5999755859375
17.5299999,8.504204750061035,-3.7612907886505127,4.484339714050293,0.9002685546875,-2.9144287109375,2.5482177734375
17.5499999,8.489839553833008,-3.8570590019226074,4.534617900848389,-4.45556640625,-9.3994140625,2.74658203125
17.5699999,8.461109161376953,-3.864241600036621,4.520252704620361,-7.110595703125,-14.9078369140625,0.4119873046875
17.589999900000002,8.42040729522705,-3.794809579849243,4.458003520965576,-0.8392333984375,-6.561279296875,-2.655029296875
17.609999900000002,8.370129585266113,-3.6535518169403076,4.352658748626709,4.2877197265625,2.166748046875,-2.0294189453125
17.6299999,8.324639320373535,-3.426102638244629,4.225766181945801,-1.89208984375,-6.6680908203125,-3.90625
17.6499999,8.276755332946777,-3.2537200450897217,4.110844135284424,-0.7171630859375,-14.1754150390625,2.0294189453125
17.6699999,8.238448143005371,-3.1483752727508545,4.055777549743652,6.3934326171875,-2.8076171875,4.3182373046875
17.6899999,8.214506149291992,-3.1220390796661377,3.993528366088867,5.18798828125,0.0457763671875,-2.3193359375
17.7099999,8.212111473083496,-3.1699230670928955,3.9647979736328125,0.091552734375,-7.8887939453125,-3.814697265625
17.7299999,8.226476669311523,-3.2752678394317627,4.022258758544922,3.570556640625,-1.1138916015625,3.1280517578125
17.749999900000002,8.283937454223633,-3.339911460876465,4.089296340942383,6.3323974609375,8.23974609375,0.30517578125
17.769999900000002,8.336610794067383,-3.3686418533325195,4.170699596405029,-3.3416748046875,3.387451171875,-5.5694580078125
17.7899999,8.398859977722168,-3.3734302520751953,4.230554580688477,-12.5274658203125,-8.7432861328125,1.6937255859375
17.8099999,8.446743965148926,-3.3494882583618164,4.266467571258545,-3.692626953125,-6.7901611328125,7.26318359375
17.8299999,8.473079681396484,-3.315969467163086,4.244919776916504,-2.1514892578125,-1.5716552734375,0.91552734375
17.8499999,8.480262756347656,-3.3279404640197754,4.228160381317139,-2.9754638671875,-3.96728515625,-4.638671875
17.8699999,8.470685958862305,-3.404554843902588,4.259284973144531,-1.77001953125,-4.0283203125,0.640869140625
17.8899999,8.468291282653809,-3.4763808250427246,4.302380561828613,-4.6844482421875,-5.3863525390625,0.823974609375
17.909999900000003,8.453926086425781,-3.4955344200134277,4.292803764343262,-14.0380859375,-13.0157470703125,-7.6751708984375
17.929999900000002,8.439560890197754,-3.533841609954834,4.2329487800598145,-13.8092041015625,-13.519287109375,-4.241943359375
17.9499999,8.415618896484375,-3.485957622528076,4.084507942199707,-8.2550048828125,-9.124755859375,0.8544921875
17.9699999,8.374917984008789,-3.4165258407592773,3.8307228088378906,-13.1683349609375,-14.190673828125,-2.777099609375
17.9899999,8.322244644165039,-3.3877954483032227,3.5649664402008057,-8.8653564453125,-11.8865966796875,-2.349853515625
18.0099999,8.279149055480957,-3.3710360527038574,3.35667085647583,0.1983642578125,0.5340576171875,-2.3956298828125
18.0299999,8.255207061767578,-3.3446998596191406,3.2178070545196533,-2.044677734375,0.2593994140625,-6.988525390625
18.0499999,8.248024940490723,-3.2992098331451416,3.201047658920288,-8.575439453125,-6.4849853515625,-7.32421875
18.0699999,8.255207061767578,-3.2609026432037354,3.292027235031128,-5.4931640625,-3.0364990234375,-1.861572265625
18.089999900000002,8.276755332946777,-3.184288263320923,3.361459255218506,-7.6904296875,-2.838134765625,-2.044677734375
18.109999900000002,8.324639320373535,-3.0885202884674072,3.40216064453125,-14.5263671875,-6.378173828125,-7.293701171875
18.1299999,8.379706382751465,-3.0526070594787598,3.426102638244629,-13.7786865234375,-1.7242431640625,2.38037109375
18.1499999,8.461109161376953,-3.050212860107422,3.361459255218506,-10.80322265625,1.7852783203125,10.7879638671875
18.1699999,8.51138687133789,-3.1507694721221924,3.270479440689087,-12.4359130859375,-0.42724609375,5.157470703125
18.1899999,8.542511940002441,-3.3854012489318848,3.2321722507476807,-2.593994140625,6.011962890625,1.4495849609375
18.2099999,8.559270858764648,-3.5649664402008057,3.2776620388031006,-0.2593994140625,13.5955810546875,-6.256103515625
18.2299999,8.56884765625,-3.6320040225982666,3.4093432426452637,-8.97216796875,4.669189453125,-9.0179443359375
18.249999900000002,8.571242332458496,-3.6080620288848877,3.557783842086792,-13.153076171875,-5.4168701171875,3.0670166015625
18.269999900000002,8.559270858764648,-3.512293815612793,3.6511576175689697,-12.63427734375,-4.0283203125,6.805419921875
18.2899999,8.528146743774414,-3.44765043258667,3.622427225112915,-11.0321044921875,-2.25830078125,-3.082275390625
18.3099999,8.489839553833008,-3.4596214294433594,3.5051112174987793,-2.5177001953125,-4.608154296875,-6.9427490234375
18.3299999,8.47786808013916,-3.40216064453125,3.404554843902588,0.91552734375,-1.1749267578125,-6.4697265625
18.3499999,8.480262756347656,-3.337517261505127,3.31118106842041,0.4425048828125,0.6103515625,-0.5340576171875
18.3699999,8.497021675109863,-3.3207578659057617,3.3039982318878174,3.1280517578125,3.9215087890625,7.965087890625
18.3899999,8.504204750061035,-3.3901896476745605,3.354276657104492,-0.8544921875,4.8065185546875,3.4332275390625
18.409999900000003,8.508993148803711,-3.514688014984131,3.426102638244629,-7.171630859375,1.739501953125,-7.568359375
18.429999900000002,8.51138687133789,-3.6176388263702393,3.488351821899414,-3.753662109375,2.9754638671875,-8.48388671875
18.4499999,8.540117263793945,-3.6846764087677,3.5673606395721436,-2.8228759765625,9.4757080078125,2.410888671875
18.4699999,8.588001251220703,-3.6942532062530518,3.60566782951355,-9.307861328125,3.0364990234375,0.091552734375
18.4899999,8.664615631103516,-3.713406801223755,3.648763418197632,-11.9171142578125,-1.28173828125,-11.3067626953125
18.5099999,8.738836288452148,-3.799597978591919,3.7014358043670654,-5.43212890625,2.166748046875,-11.29150390625
18.5299999,8.813055992126465,-3.804386615753174,3.648763418197632,-11.23046875,-1.52587890625,-17.578125
18.5499999,8.892065048217773,-3.6846764087677,3.5913026332855225,-7.87353515625,3.6163330078125,-25.482177734375
18.5699999,8.971074104309082,-3.4739866256713867,3.529053211212158,4.6539306640625,3.448486328125,-15.899658203125
18.589999900000002,9.011775016784668,-3.272873640060425,3.442862033843994,0.1068115234375,-11.6729736328125,-1.739501953125
18.609999900000002,9.057265281677246,-3.1651346683502197,3.337517261505127,-11.322021484375,-17.608642578125,-4.364013671875
18.6299999,9.05487060546875,-3.1651346683502197,3.268085241317749,-18.585205078125,-12.8021240234375,-14.8773193359375
18.6499999,9.05247688293457,-3.098097085952759,2.985569477081299,-20.08056640625,-27.3284912109375,-17.120361328125
18.6699999,9.040505409240723,-3.0334534645080566,2.5043349266052246,-16.5252685546875,-31.1737060546875,2.50244140625
18.6899999,9.038111686706543,-3.026270866394043,1.9393033981323242,5.859375,1.8768310546875,13.1072998046875
18.7099999,9.05487060546875,-3.050212860107422,1.3886369466781616,12.63427734375,10.8489990234375,-6.3323974609375
18.7299999,9.066842079162598,-3.157952070236206,0.9097966551780701,-9.368896484375,-25.3448486328125,-18.9361572265625
18.749999900000002,9.035717010498047,-3.0837318897247314,0.44771572947502136,-27.8167724609375,-52.490234375,-12.7410888671875
18.769999900000002,8.978256225585938,-2.5929205417633057,-0.42377370595932007,-50.9490966796875,-58.319091796875,-8.1787109375
18.7899999,9.105149269104004,-1.987187385559082,-2.0159177780151367,-68.634033203125,-51.483154296875,7.8887939453125
18.8099999,9.655815124511719,-1.4437036514282227,-4.395754337310791,-76.934814453125,-25.1922607421875,20.477294921875
18.8299999,10.496180534362793,-1.2880805730819702,-7.7883381843566895,-145.3704833984375,-52.4139404296875,8.30078125
18.8499999,11.81059741973877,-1.4867992401123047,-13.469779014587402,-243.2098388671875,-195.0531005859375,-3.41796875
18.8699999,12.902353286743164,0.6871358752250671,-20.764911651611328,-255.1727294921875,-124.20654296875,-144.805908203125
18.8899999,12.461819648742676,5.389348030090332,-30.047231674194336,-223.8311767578125,104.5989990234375,-122.100830078125
18.909999900000003,8.166622161865234,14.125789642333984,-40.466796875,-227.7984619140625,168.0908203125,201.019287109375
18.929999900000002,-3.8762125968933105,20.997148513793945,-43.155487060546875,42.9534912109375,499.9847412109375,466.85791015625
18.9499999,-21.768081665039062,17.796100616455078,-35.46052169799805,275.4364013671875,499.9847412109375,499.9847412109375
18.9699999,-42.92564392089844,7.084442615509033,-14.844050407409668,301.3458251953125,499.9847412109375,305.11474609375
18.9899999,-55.91179275512695,-5.736507415771484,15.507244110107422,434.2193603515625,499.9847412109375,-208.0078125
19.0099999,-60.69540786743164,-17.68596839904785,42.875362396240234,-133.6517333984375,-109.0240478515625,-142.913818359375
19.0299999,-54.40105056762695,-18.071434020996094,50.335697174072266,-500,-500,31.6162109375
19.0499999,-42.5042610168457,-13.328520774841309,41.28800964355469,-193.7255859375,-398.7274169921875,-196.10595703125
19.0699999,-29.745561599731445,-6.129156112670898,19.00996208190918,333.5418701171875,456.268310546875,-203.155517578125
19.089999900000002,-17.93017578125,0.07900865375995636,-0.7565677165985107,305.3436279296875,484.1766357421875,-42.449951171875
19.109999900000002,-7.623138427734375,2.4013843536376953,-8.580819129943848,65.6585693359375,136.4593505859375,159.3780517578125
19.1299999,-0.42856210470199585,2.612074136734009,-6.799532890319824,-135.009765625,-164.337158203125,15.44189453125
19.1499999,3.406949043273926,-0.7254431247711182,-1.2018892765045166,-107.4676513671875,-100.341796875,-2.01416015625
19.1699999,4.508281707763672,-3.093308687210083,2.58813214302063,3.1585693359375,143.9361572265625,41.3818359375
19.1899999,3.8331170082092285,-4.4292731285095215,5.056553840637207,38.3453369140625,194.183349609375,50.9185791015625
19.2099999,2.3774423599243164,-5.5760955810546875,7.122750282287598,-20.2178955078125,71.441650390625,79.925537109375
19.2299999,1.1013327836990356,-6.246472358703613,9.375694274902344,-39.48974609375,-1.3275146484375,41.229248046875
19.249999900000002,0.2298433631658554,-6.873753070831299,10.666168212890625,-24.8870849609375,-17.15087890625,-6.2408447265625
19.269999900000002,-0.16519992053508759,-7.043741226196289,10.917559623718262,9.185791015625,37.3382568359375,23.98681640625
19.2899999,-0.3495534360408783,-7.271190643310547,10.591948509216309,51.57470703125,94.1925048828125,73.699951171875
19.3099999,-0.2944868206977844,-7.3885064125061035,10.170568466186523,49.0875244140625,60.8062744140625,38.1317138671875
19.3299999,-0.1843535304069519,-7.462726593017578,10.02452278137207,12.1917724609375,-16.7999267578125,-45.7763671875
19.3499999,-0.028730420395731926,-7.371747016906738,9.93354320526123,0.4730224609375,-15.899658203125,-16.7236328125
19.3699999,0.0694318488240242,-6.809109687805176,9.50498104095459,1.312255859375,15.0299072265625,38.8336181640625
19.3899999,0.06703764945268631,-6.052541732788086,8.786720275878906,-4.7454833984375,60.272216796875,42.7703857421875
19.409999900000003,-0.021547814831137657,-5.784391403198242,8.362946510314941,-2.9144287109375,76.9805908203125,13.1072998046875
19.429999900000002,-0.12928688526153564,-5.69580602645874,8.121131896972656,-11.260986328125,26.5350341796875,-4.8065185546875
19.4499999,-0.15562310814857483,-5.791574001312256,8.382100105285645,-22.796630859375,-6.40869140625,8.3770751953125
19.4699999,-0.17238251864910126,-6.016628742218018,8.81784439086914,-23.468017578125,-4.852294921875,15.9912109375
19.4899999,-0.19871874153614044,-6.1315507888793945,8.860940933227539,-39.0472412109375,-26.092529296875,-9.5672607421875
19.5099999,-0.26096799969673157,-6.347028732299805,8.71489429473877,-25.7568359375,1.617431640625,-12.7105712890625
19.5299999,-0.2322375625371933,-6.641515731811523,8.49941635131836,1.6632080078125,39.12353515625,15.045166015625
19.5499999,-0.21787235140800476,-6.641515731811523,8.17141056060791,-21.4080810546875,-19.2413330078125,-12.1917724609375
19.5699999,-0.14844051003456116,-6.670246124267578,8.022970199584961,-37.1551513671875,-59.1583251953125,-34.11865234375
19.589999900000002,-0.10295066982507706,-6.543353080749512,7.848193168640137,-22.9644775390625,-27.3590087890625,-13.641357421875
19.609999900000002,-0.035913024097681046,-6.256049156188965,7.63989782333374,5.1116943359375,9.490966796875,1.77001953125
19.6299999,0.021547814831137657,-5.837063789367676,7.443572998046875,0.3509521484375,12.5274658203125,0.1983642578125
19.6499999,0.07900865375995636,-5.628767967224121,7.565677165985107,-14.6026611328125,13.214111328125,8.2550048828125
19.6699999,0.12449848651885986,-5.669469833374023,7.8960771560668945,-18.6614990234375,12.115478515625,15.0299072265625
19.6899999,0.11971008777618408,-5.880159378051758,8.078036308288574,-20.751953125,-16.1285400390625,0.823974609375
19.7099999,0.12928688526153564,-6.1267619132995605,8.073247909545898,-7.5531005859375,-21.484375,-15.289306640625
19.7299999,0.12449848651885986,-6.368576526641846,7.927201747894287,5.6610107421875,5.889892578125,-1.4495849609375
19.749999900000002,0.181959331035614,-6.385335922241211,7.5968017578125,5.889892578125,13.9923095703125,9.765625
19.769999900000002,0.24899697303771973,-6.296750545501709,7.465120792388916,-5.157470703125,4.913330078125,-0.030517578125
19.7899999,0.28730419278144836,-6.299144744873047,7.486668586730957,-18.341064453125,-2.166748046875,-0.7476806640625
19.8099999,0.26575639843940735,-6.469132900238037,7.671022415161133,-9.3841552734375,-2.5177001953125,2.9449462890625
19.8299999,0.19393034279346466,-6.469132900238037,7.766790390014648,4.6539306640625,-12.8326416015625,-17.39501953125
19.8499999,0.12210428714752197,-6.430825710296631,7.85537576675415,11.810302734375,-13.6871337890625,-20.5841064453125
19.8699999,0.08379705995321274,-6.260837554931641,7.807491779327393,6.805419921875,-5.4168701171875,0.67138671875
19.8899999,0.07900865375995636,-5.966350555419922,7.716512203216553,8.36181640625,-3.173828125,4.4403076171875
19.909999900000003,0.10534487664699554,-5.920860767364502,7.778761386871338,16.0675048828125,3.8604736328125,0.18310546875
19.929999900000002,0.14365209639072418,-5.935225963592529,7.857769966125488,4.0283203125,-10.4522705078125,-7.9345703125
19.9499999,0.2059013396501541,-6.004657745361328,7.9415669441223145,-2.349853515625,-26.85546875,-14.46533203125
19.9699999,0.30885201692581177,-6.042964935302734,8.003816604614258,7.4462890625,-12.63427734375,-1.953125
19.9899999,0.40462008118629456,-6.011840343475342,7.922413349151611,11.8865966796875,-11.4288330078125,-1.129150390625
20.0099999,0.5051765441894531,-5.904101371765137,7.814674377441406,12.1002197265625,-17.5628662109375,-9.674072265625
20.0299999,0.5506663918495178,-5.990292549133301,7.819462776184082,6.34765625,-11.6119384765625,1.8463134765625
20.0499999,0.5793967843055725,-6.035782337188721,7.771578788757324,11.65771484375,-13.7176513671875,3.96728515625
20.0699999,0.5889736413955688,-6.042964935302734,7.745242595672607,22.76611328125,-15.380859375,-9.918212890625
20.089999900000002,0.5770025849342346,-6.050147533416748,7.86734676361084,26.092529296875,-0.6866455078125,-1.7547607421875
20.109999900000002,0.5650315880775452,-5.904101371765137,8.027758598327637,11.6729736328125,-5.706787109375,5.157470703125
20.1299999,0.5578489899635315,-5.731719017028809,8.226476669311523,-4.5318603515625,-24.4140625,0.18310546875
20.1499999,0.5506663918495178,-5.652710437774658,8.257601737976074,1.7852783203125,-31.8603515625,0.5035400390625
20.1699999,0.5650315880775452,-5.640739440917969,8.106766700744629,15.7928466796875,-21.728515625,0.823974609375
20.1899999,0.5746083855628967,-5.612008571624756,7.8314337730407715,19.012451171875,-12.6800537109375,-0.823974609375
20.2099999,0.5937620401382446,-5.600037574768066,7.575253963470459,3.8299560546875,-19.95849609375,1.556396484375
20.2299999,0.6177040338516235,-5.566518783569336,7.4316020011901855,-8.4381103515625,-25.115966796875,5.767822265625
20.249999900000002,0.6799532771110535,-5.492298603057861,7.254431247711182,-9.27734375,-24.0936279296875,1.861572265625
20.269999900000002,0.768538773059845,-5.521028995513916,7.017405033111572,-14.068603515625,-14.9688720703125,8.056640625
20.2899999,0.8667010068893433,-5.600037574768066,6.921637058258057,-11.9476318359375,6.9580078125,14.09912109375
