# Time (seconds),Accel_X,Accel_Y,Accel_Z,Gyro_X,Gyro_Y,Gyro_Z
0.0099999,0.38307225704193115,9.653421401977539,-0.20350714027881622,-1.4495849609375,-0.8392333984375,-3.5552978515625
0.029999900000000003,0.3758896589279175,9.727641105651855,-0.20350714027881622,-0.5950927734375,2.3956298828125,-2.960205078125
0.0499999,0.363918662071228,9.835380554199219,-0.21547815203666687,1.1444091796875,1.312255859375,1.739501953125
0.0699999,0.363918662071228,9.940725326538086,-0.17238251864910126,0.54931640625,1.1444091796875,1.861572265625
0.08999990000000001,0.3663128614425659,10.04846477508545,-0.09576806426048279,0.1983642578125,0.9002685546875,-1.5716552734375
0.10999990000000001,0.3758896589279175,10.105925559997559,-0.019153613597154617,0.518798828125,-3.0364990234375,1.739501953125
0.1299999,0.3902548849582672,10.137049674987793,0.047884032130241394,0.457763671875,-6.65283203125,6.927490234375
0.14999990000000002,0.3998316824436188,10.144232749938965,0.10055647045373917,-1.0986328125,-5.767822265625,5.6915283203125
0.1699999,0.40940847992897034,10.103530883789062,0.0454898327589035,4.33349609375,-8.392333984375,4.2572021484375
0.1899999,0.4165911078453064,10.012551307678223,-0.035913024097681046,3.11279296875,-5.5084228515625,8.1787109375
0.20999990000000002,0.42377370595932007,9.914389610290527,-0.16519992053508759,4.974365234375,2.227783203125,7.965087890625
0.2299999,0.4357447028160095,9.804255485534668,-0.23702596127986908,1.129150390625,5.126953125,3.96728515625
0.2499999,0.44771572947502136,9.765948295593262,-0.19393034279346466,9.21630859375,5.096435546875,0.6103515625
0.2699999,0.4644751250743866,9.718064308166504,-0.06224924325942993,21.484375,-1.0223388671875,5.6304931640625
0.28999990000000003,0.47405192255973816,9.658209800720215,0.014365210197865963,20.0347900390625,-12.5732421875,8.8653564453125
0.3099999,0.4836287498474121,9.536105155944824,-0.05267243832349777,14.09912109375,-11.810302734375,0.79345703125
0.3299999,0.47644615173339844,9.406818389892578,-0.2561795711517334,4.45556640625,0.946044921875,-8.9874267578125
0.34999990000000003,0.4692635238170624,9.315838813781738,-0.4908113479614258,6.744384765625,10.31494140625,-8.0108642578125
0.3699999,0.4668693244457245,9.320627212524414,-0.6153098344802856,9.94873046875,8.331298828125,-4.7607421875
0.3899999,0.45250412821769714,9.425971984863281,-0.5626373887062073,10.92529296875,3.8299560546875,-8.23974609375
0.40999990000000003,0.45010992884635925,9.555258750915527,-0.47884035110473633,19.195556640625,-3.3111572265625,-9.765625
0.4299999,0.4357447028160095,9.677363395690918,-0.4165911078453064,11.6729736328125,-4.21142578125,-4.5166015625
0.4499999,0.42377370595932007,9.751583099365234,-0.44771572947502136,7.2174072265625,0.8697509765625,-3.9825439453125
0.4699999,0.395043283700943,9.825803756713867,-0.5793967843055725,9.429931640625,2.1514892578125,-10.4522705078125
0.4899999,0.3758896589279175,9.832986831665039,-0.6775590777397156,12.725830078125,7.2784423828125,-8.72802734375
0.5099999,0.33758243918418884,9.888052940368652,-0.7422025203704834,14.2974853515625,8.48388671875,-5.92041015625
0.5299999,0.31603461503982544,9.938331604003906,-0.7326257228851318,6.317138671875,4.8980712890625,-2.105712890625
0.5499999,0.28969839215278625,9.959878921508789,-0.6967126727104187,5.2337646484375,0.4425048828125,1.373291015625
0.5699999,0.2777273952960968,9.947908401489258,-0.689530074596405,0.732421875,-1.3580322265625,0.6256103515625
0.5899998999999999,0.2753331959247589,9.919178009033203,-0.7230489253997803,0.1220703125,0.06103515625,-1.5106201171875
0.6099998999999999,0.2753331959247589,9.883264541625977,-0.7733271718025208,-0.3204345703125,1.800537109375,-1.0986328125
0.6299999,0.2801215946674347,9.864110946655273,-0.7972691655158997,0.54931640625,3.4027099609375,0.5340576171875
0.6499999,0.29209262132644653,9.859322547912598,-0.7757213711738586,2.5482177734375,0.518798828125,-0.3814697265625
0.6699999,0.2968810200691223,9.847352027893066,-0.7350199222564697,4.0740966796875,-1.6021728515625,0.213623046875
0.6899999,0.2992752194404602,9.832986831665039,-0.7110779285430908,2.01416015625,-2.01416015625,1.3275146484375
0.7099999,0.2992752194404602,9.799467086791992,-0.7326257228851318,1.9378662109375,-0.2593994140625,1.2054443359375
0.7299998999999999,0.2992752194404602,9.765948295593262,-0.8044517636299133,2.4566650390625,-0.3814697265625,-0.274658203125
0.7499998999999999,0.304063618183136,9.713275909423828,-0.8331822156906128,0.6561279296875,3.326416015625,0.0762939453125
0.7699999,0.31603461503982544,9.672574996948242,-0.8451532125473022,1.708984375,0.244140625,0.7476806640625
0.7899999,0.3208230137825012,9.634267807006836,-0.8140285611152649,8.575439453125,-0.18310546875,1.3427734375
0.8099999,0.3064578175544739,9.59596061706543,-0.7852981686592102,10.650634765625,1.739501953125,0.9765625
0.8299999,0.30885201692581177,9.548076629638672,-0.8188169598579407,8.7738037109375,2.2125244140625,0.8392333984375
0.8499998999999999,0.28730419278144836,9.531316757202148,-0.9265560507774353,9.82666015625,4.3182373046875,-2.3193359375
0.8699998999999999,0.2753331959247589,9.543288230895996,-1.0223240852355957,-1.3885498046875,6.6680908203125,-2.349853515625
0.8899999,0.272938996553421,9.617507934570312,-1.0797849893569946,-2.38037109375,9.2315673828125,0.3814697265625
0.9099999,0.2801215946674347,9.708487510681152,-1.048660397529602,6.988525390625,7.5836181640625,2.5787353515625
0.9299999,0.33039984107017517,9.701305389404297,-0.9528923034667969,3.23486328125,1.2664794921875,4.0130615234375
0.9499999,0.38546648621559143,9.658209800720215,-0.8954314589500427,-14.373779296875,-8.636474609375,-4.0435791015625
0.9699998999999999,0.4141969084739685,9.5408935546875,-0.8978256583213806,-18.524169921875,-7.843017578125,-10.589599609375
0.9899998999999999,0.3974374830722809,9.579200744628906,-0.950498104095459,-31.7535400390625,-3.60107421875,-11.2152099609375
1.0099999,0.33997663855552673,9.679757118225098,-0.9074024558067322,-23.4222412109375,4.0283203125,-1.953125
1.0299999,0.2537853717803955,9.876082420349121,-0.7948749661445618,-21.2554931640625,-3.570556640625,5.5084228515625
1.0499999,0.22266076505184174,9.981427192687988,-0.6607996821403503,-4.7149658203125,-10.31494140625,4.33349609375
1.0699999,0.20111294090747833,9.995792388916016,-0.5626373887062073,2.0751953125,-5.18798828125,-0.1678466796875
1.0899999,0.21308395266532898,9.93593692779541,-0.5770025849342346,5.37109375,2.62451171875,-3.8909912109375
1.1099999,0.24660277366638184,9.832986831665039,-0.6177040338516235,6.8359375,5.4779052734375,-1.220703125
1.1299999,0.26815059781074524,9.801861763000488,-0.6440402865409851,3.6773681640625,0.3509521484375,-3.7689208984375
1.1499999,0.28969839215278625,9.75397777557373,-0.6368576288223267,5.5084228515625,-2.7313232421875,-3.7078857421875
1.1699998999999999,0.2968810200691223,9.746794700622559,-0.6631938815116882,2.9449462890625,-3.8604736328125,-2.2735595703125
1.1899998999999999,0.2753331959247589,9.77791976928711,-0.727837324142456,-0.0762939453125,-0.9307861328125,-4.0130615234375
1.2099999,0.26096799969673157,9.785101890563965,-0.8212111592292786,-1.03759765625,3.3416748046875,-1.1444091796875
1.2299999,0.22744916379451752,9.816226959228516,-0.8762778043746948,-1.9073486328125,4.8828125,-1.2359619140625
1.2499999,0.21787235140800476,9.81143856048584,-0.8379706144332886,-3.326416015625,5.2337646484375,-1.4495849609375
1.2699999,0.2082955539226532,9.794678688049316,-0.7422025203704834,0.0152587890625,1.64794921875,-0.8697509765625
1.2899999,0.2059013396501541,9.782708168029785,-0.6416460275650024,1.983642578125,-3.3111572265625,-2.2125244140625
1.3099999,0.20111294090747833,9.770736694335938,-0.6224924325942993,-0.762939453125,-3.60107421875,-0.946044921875
1.3299999,0.19632454216480255,9.744400978088379,-0.6536170840263367,-5.5694580078125,2.8228759765625,1.4190673828125
1.3499999,0.19153612852096558,9.734824180603027,-0.7374141216278076,-5.218505859375,5.0201416015625,-1.2969970703125
1.3699999,0.19871874153614044,9.710882186889648,-0.7613561153411865,-3.509521484375,5.401611328125,-2.2430419921875
1.3899999,0.2082955539226532,9.703699111938477,-0.730231523513794,-4.241943359375,3.173828125,-1.3580322265625
1.4099999,0.2082955539226532,9.744400978088379,-0.6847416758537292,-4.1046142578125,-0.3509521484375,-2.0294189453125
1.4299998999999999,0.20350714027881622,9.787496566772461,-0.6416460275650024,-3.5247802734375,0.8392333984375,0.518798828125
1.4499999,0.19393034279346466,9.813833236694336,-0.6320692300796509,-2.9296875,2.99072265625,3.0670166015625
1.4699999,0.18914192914962769,9.80904483795166,-0.629675030708313,-2.105712890625,3.3416748046875,1.129150390625
1.4899999,0.18914192914962769,9.787496566772461,-0.6129156351089478,-2.410888671875,2.74658203125,-1.678466796875
1.5099999,0.19632454216480255,9.739612579345703,-0.569819986820221,-3.8299560546875,1.9378662109375,0.823974609375
1.5299999,0.20350714027881622,9.710882186889648,-0.5578489899635315,-0.5035400390625,-0.7476806640625,1.77001953125
1.5499999,0.19871874153614044,9.706093788146973,-0.5602431893348694,-2.349853515625,-0.396728515625,-0.42724609375
1.5699999,0.20350714027881622,9.682151794433594,-0.5889736413955688,-2.8228759765625,4.241943359375,0.3509521484375
1.5899999,0.19632454216480255,9.684545516967773,-0.6224924325942993,-1.953125,4.9896240234375,0.030517578125
1.6099999,0.19632454216480255,9.679757118225098,-0.6248866319656372,-3.7841796875,3.082275390625,-0.67138671875
1.6299999,0.19871874153614044,9.672574996948242,-0.5961562395095825,-3.47900390625,3.265380859375,-0.5340576171875
1.6499999,0.2106897532939911,9.667786598205566,-0.5434837937355042,-3.2501220703125,2.9296875,-1.28173828125
1.6699999,0.21547815203666687,9.667786598205566,-0.4620809257030487,-4.852294921875,2.1209716796875,-1.8463134765625
1.6899998999999999,0.21787235140800476,9.691728591918945,-0.4165911078453064,-2.1514892578125,-2.3193359375,-1.495361328125
1.7099999,0.21547815203666687,9.715670585632324,-0.38307225704193115,-0.91552734375,-1.9683837890625,0.2899169921875
1.7299999,0.2059013396501541,9.742006301879883,-0.40701428055763245,-1.2969970703125,0.6103515625,0.762939453125
1.7499999,0.19153612852096558,9.770736694335938,-0.44532153010368347,-2.0294189453125,1.1444091796875,-1.5106201171875
1.7699999,0.1867477297782898,9.773131370544434,-0.4812345504760742,-2.716064453125,0.0762939453125,-0.8544921875
1.7899999,0.17717093229293823,9.77791976928711,-0.5003881454467773,-1.3885498046875,-0.274658203125,0.3662109375
1.8099999,0.17477671802043915,9.765948295593262,-0.524330198764801,-0.6256103515625,-0.7476806640625,-0.274658203125
1.8299999,0.17477671802043915,9.763554573059082,-0.5554547905921936,-2.044677734375,0.701904296875,-1.190185546875
1.8499999,0.17717093229293823,9.770736694335938,-0.5386953949928284,-5.3558349609375,3.936767578125,-1.312255859375
1.8699999,0.17477671802043915,9.792284965515137,-0.49799394607543945,-2.471923828125,2.410888671875,-0.54931640625
1.8899999,0.181959331035614,9.792284965515137,-0.44532153010368347,0.030517578125,-3.082275390625,0.9307861328125
1.9099999,0.181959331035614,9.794678688049316,-0.3902548849582672,-0.0152587890625,0.0457763671875,-1.3275146484375
1.9299998999999999,0.17956513166427612,9.799467086791992,-0.37828385829925537,-2.166748046875,2.9449462890625,-2.86865234375
1.9499999,0.181959331035614,9.813833236694336,-0.363918662071228,-1.7547607421875,1.922607421875,-0.1983642578125
1.9699999,0.16998831927776337,9.852140426635742,-0.35434186458587646,0.4730224609375,-0.18310546875,1.007080078125
1.9899999,0.1628057211637497,9.847352027893066,-0.3687070608139038,0.9765625,-1.4190673828125,1.9989013671875
2.0099999,0.15562310814857483,9.821015357971191,-0.38067805767059326,-1.1749267578125,2.4871826171875,0.030517578125
2.0299999,0.15562310814857483,9.787496566772461,-0.40222588181495667,-1.5106201171875,3.173828125,-2.5177001953125
2.0499999,0.16519992053508759,9.763554573059082,-0.3926490843296051,-1.8157958984375,0.3204345703125,-0.0457763671875
2.0699999,0.16759411990642548,9.77791976928711,-0.33758243918418884,-0.3814697265625,1.800537109375,1.1444091796875
2.0899999,0.17477671802043915,9.782708168029785,-0.3016694188117981,0.732421875,0.30517578125,1.434326171875
2.1099999,0.17477671802043915,9.773131370544434,-0.3064578175544739,-1.495361328125,-2.2430419921875,0.7171630859375
2.1299999,0.17477671802043915,9.761159896850586,-0.3280056416988373,-2.8076171875,0.732421875,-1.0528564453125
2.1499999,0.17477671802043915,9.758766174316406,-0.363918662071228,-2.532958984375,2.44140625,-0.5340576171875
2.1699999,0.17956513166427612,9.765948295593262,-0.3758896589279175,-1.52587890625,0.8544921875,1.4495849609375
2.1899999,0.181959331035614,9.792284965515137,-0.35913026332855225,-0.5340576171875,-0.1068115234375,1.1138916015625
2.2099999,0.18914192914962769,9.797073364257812,-0.33997663855552673,-0.42724609375,-0.9613037109375,0.9307861328125
2.2299999,0.19153612852096558,9.813833236694336,-0.35434186458587646,-0.6256103515625,-1.64794921875,0.79345703125
2.2499999,0.19871874153614044,9.818621635437012,-0.3711012601852417,-1.678466796875,0.701904296875,1.983642578125
2.2699999,0.20111294090747833,9.835380554199219,-0.395043283700943,-1.3580322265625,2.0599365234375,3.326416015625
2.2899999,0.2106897532939911,9.86889934539795,-0.40701428055763245,-2.7923583984375,-0.244140625,4.0740966796875
2.3099999,0.21787235140800476,9.890447616577148,-0.38546648621559143,-3.1890869140625,0.9002685546875,6.9122314453125
2.3299999,0.2346317619085312,9.876082420349121,-0.3447650372982025,-1.1749267578125,0.4425048828125,9.21630859375
2.3499999,0.24420857429504395,9.84495735168457,-0.36152446269989014,0.1678466796875,-5.8746337890625,4.9285888671875
2.3699999,0.26815059781074524,9.75397777557373,-0.363918662071228,-4.180908203125,-3.5400390625,4.302978515625
2.3899999,0.2849099934101105,9.6989107131958,-0.40940847992897034,-4.486083984375,0.54931640625,2.5634765625
2.4099999,0.3064578175544739,9.655815124511719,-0.4381389021873474,-6.5460205078125,-1.15966796875,2.6702880859375
2.4299999,0.3232172429561615,9.653421401977539,-0.3974374830722809,-1.9073486328125,0.8544921875,1.52587890625
2.4499999,0.33758243918418884,9.674968719482422,-0.35673606395721436,4.791259765625,-1.190185546875,0.4730224609375
2.4699999,0.33518823981285095,9.713275909423828,-0.31364041566848755,-2.3193359375,-4.6539306640625,0.0152587890625
2.4899999,0.33518823981285095,9.742006301879883,-0.3016694188117981,-4.3182373046875,-1.5411376953125,2.0294189453125
2.5099999,0.3280056416988373,9.806650161743164,-0.31124621629714966,-1.800537109375,1.03759765625,0.152587890625
2.5299999,0.3256114423274994,9.849745750427246,-0.33279404044151306,2.6702880859375,1.4801025390625,0.91552734375
2.5499999,0.3423708379268646,9.892841339111328,-0.304063618183136,0.9613037109375,0.7476806640625,3.3721923828125
2.5699999,0.3423708379268646,9.916783332824707,-0.2825157940387726,2.166748046875,-0.2593994140625,3.204345703125
2.5899999,0.3663128614425659,9.883264541625977,-0.2513911724090576,-4.119873046875,-5.2337646484375,4.180908203125
2.6099999,0.3758896589279175,9.859322547912598,-0.26096799969673157,-3.387451171875,-6.4849853515625,1.28173828125
2.6299999,0.40462008118629456,9.847352027893066,-0.26575639843940735,-2.288818359375,-4.0130615234375,1.15966796875
2.6499999,0.4165911078453064,9.880870819091797,-0.27054479718208313,-1.5716552734375,-2.99072265625,4.486083984375
2.6699999,0.45010992884635925,9.983820915222168,-0.2537853717803955,-3.7841796875,-8.087158203125,7.4920654296875
2.6899999,0.47405192255973816,10.170568466186523,-0.19871874153614044,-4.5623779296875,-9.063720703125,10.8795166015625
2.7099999,0.49799394607543945,10.412383079528809,-0.1364694982767105,-6.65283203125,-8.8653564453125,21.91162109375
2.7299999,0.5267243981361389,10.627861022949219,-0.09816227108240128,-13.3819580078125,-15.411376953125,38.787841796875
2.7499999,0.5650315880775452,10.805032730102539,-0.038307227194309235,-14.7857666015625,-16.17431640625,47.36328125
2.7699999,0.6009446382522583,10.826580047607422,0.016759412363171577,-17.1356201171875,-17.5323486328125,52.0782470703125
2.7899999,0.6919242739677429,10.737994194030762,0.021547814831137657,-13.6260986328125,-26.7181396484375,57.7545166015625
2.8099999,0.7781155705451965,10.72602367401123,-0.12449848651885986,-9.002685546875,-28.99169921875,57.281494140625
2.8299999,0.8690952062606812,10.687716484069824,-0.3687070608139038,-11.566162109375,-16.845703125,72.357177734375
2.8499999,1.0271124839782715,10.524910926818848,-0.6320692300796509,-2.5787353515625,6.439208984375,96.954345703125
2.8699999,1.237802267074585,10.441113471984863,-0.9840168952941895,3.021240234375,6.9427490234375,84.77783203125
2.8899999,1.4269442558288574,10.42195987701416,-1.2114660739898682,-18.1884765625,6.3323974609375,71.7315673828125
2.9099999,1.678335428237915,10.256759643554688,-1.2186486721038818,-15.350341796875,39.031982421875,114.9139404296875
2.9299999,1.9704279899597168,10.374075889587402,-1.2473790645599365,10.8795166015625,44.49462890625,127.7008056640625
2.9499999,2.118868589401245,10.417171478271484,-1.0749965906143188,-15.31982421875,24.566650390625,111.724853515625
2.9699999,2.403778553009033,10.228029251098633,-1.0414776802062988,2.9296875,40.8935546875,142.4407958984375
2.9899999,2.650381326675415,9.830592155456543,-1.0606313943862915,22.5372314453125,75.8209228515625,160.858154296875
3.0099999,2.935291290283203,9.272743225097656,-1.235408067703247,15.0146484375,84.0606689453125,135.009765625
3.0299999,3.2393548488616943,8.406042098999023,-1.3287819623947144,3.7384033203125,95.1995849609375,117.4163818359375
3.0499999,3.6343982219696045,7.501033782958984,-1.3527239561080933,20.2178955078125,124.6337890625,116.9891357421875
3.0699999,3.912125587463379,6.892906665802002,-1.192312479019165,23.5137939453125,139.068603515625,77.63671875
3.0899999,4.20421838760376,6.270414352416992,-0.7469909191131592,16.17431640625,148.3612060546875,63.04931640625
3.1099999,4.431667327880859,5.801150798797607,-0.21547815203666687,37.445068359375,144.805908203125,57.4798583984375
3.1299999,4.534617900848389,5.298368453979492,0.2585737705230713,38.87939453125,134.0179443359375,18.6767578125
3.1499999,4.563348293304443,4.965574264526367,0.4620809257030487,27.4810791015625,151.06201171875,-31.951904296875
3.1699999,4.4508209228515625,4.920084476470947,0.6991068720817566,-17.791748046875,186.553955078125,-66.83349609375
3.1899999,4.280832767486572,5.183446884155273,1.316810965538025,-48.7213134765625,212.738037109375,-55.9539794921875
3.2099999,4.1395745277404785,5.430049419403076,2.3247697353363037,-10.3607177734375,179.962158203125,-51.8798828125
3.2299999,3.974374771118164,5.825092792510986,3.5865142345428467,24.3072509765625,133.575439453125,-109.4207763671875
3.2499999,3.773261785507202,6.253654956817627,4.699818134307861,13.85498046875,131.0882568359375,-148.956298828125
3.2699999,3.5170822143554688,6.744466304779053,5.303156852722168,-0.1983642578125,123.0316162109375,-112.945556640625
3.2899999,3.138798475265503,7.390900611877441,5.523423194885254,8.453369140625,108.551025390625,-102.3101806640625
3.3099999,2.715024709701538,7.781155586242676,5.623979568481445,13.0615234375,103.8665771484375,-126.6326904296875
3.3299999000000002,2.2577321529388428,7.771578788757324,5.530605792999268,29.7088623046875,82.7178955078125,-145.9197998046875
3.3499999,1.7286136150360107,7.6997528076171875,5.238513469696045,47.2412109375,53.64990234375,-173.553466796875
3.3699999,1.0869675874710083,7.769184589385986,4.831499099731445,34.271240234375,53.16162109375,-182.9986572265625
3.3899999,0.37828385829925537,8.061277389526367,4.1611223220825195,2.3345947265625,46.478271484375,-162.811279296875
3.4099999,-0.33758243918418884,8.487444877624512,3.507505416870117,-3.662109375,49.2095947265625,-140.9759521484375
3.4299999,-1.0199298858642578,8.683769226074219,3.1651346683502197,-20.5535888671875,61.4776611328125,-140.3350830078125
3.4499999,-1.5538369417190552,8.628703117370605,3.1459810733795166,-11.383056640625,53.5430908203125,-158.294677734375
3.4699999,-2.097320795059204,8.678980827331543,3.6367924213409424,-35.9649658203125,29.6783447265625,-188.690185546875
3.4899999,-2.5091233253479004,8.698134422302246,4.627991676330566,-49.1180419921875,18.6920166015625,-158.233642578125
3.5099999,-2.9664158821105957,8.880094528198242,5.992686748504639,-30.82275390625,-3.11279296875,-128.3111572265625
3.5299999,-3.4189200401306152,8.956708908081055,7.259219646453857,5.5084228515625,-68.4356689453125,-137.6190185546875
3.5499999,-3.909731388092041,8.844181060791016,8.001421928405762,37.078857421875,-117.5079345703125,-152.7862548828125
3.5699999,-4.4292731285095215,8.746018409729004,7.843404769897461,52.8411865234375,-121.002197265625,-149.0936279296875
3.5899999,-4.8937482833862305,8.765172004699707,6.868964672088623,42.8009033203125,-113.34228515625,-122.4212646484375
3.6099999,-5.260061264038086,8.96149730682373,5.70777702331543,30.8990478515625,-107.7423095703125,-97.0001220703125
3.6299999,-5.523423194885254,9.287108421325684,4.836287498474121,39.0777587890625,-113.4796142578125,-90.3778076171875
3.6499999,-5.657498836517334,9.615114212036133,4.127603530883789,76.5838623046875,-147.8424072265625,-70.465087890625
3.6699999,-5.717353820800781,9.823410034179688,3.6391866207122803,107.23876953125,-125.0457763671875,-38.51318359375
3.6899999,-5.623979568481445,9.835380554199219,3.1747114658355713,96.771240234375,-80.3375244140625,-16.5557861328125
3.7099999,-5.463568210601807,9.694122314453125,2.87064790725708,54.7332763671875,-81.7108154296875,-22.7508544921875
3.7299999,-5.22175407409668,9.366117477416992,2.695871114730835,40.7562255859375,-109.2071533203125,-12.1002197265625
3.7499999,-4.99669885635376,9.138668060302734,2.7988216876983643,49.1943359375,-100.433349609375,-1.7547607421875
3.7699999,-4.838681697845459,9.23443603515625,2.782062292098999,58.1207275390625,-84.686279296875,0.6561279296875
3.7899999,-4.685452938079834,9.464279174804688,2.892195701599121,70.281982421875,-76.11083984375,20.7672119140625
3.8099999,-4.525041103363037,9.835380554199219,3.1723172664642334,89.7369384765625,-72.9522705078125,52.1087646484375
3.8299999000000002,-4.388571739196777,10.27591323852539,3.5625722408294678,90.63720703125,-94.8638916015625,62.56103515625
3.8499999,-4.264073371887207,10.160991668701172,3.8355112075805664,89.6148681640625,-123.6724853515625,86.7767333984375
3.8699999,-3.950432777404785,9.68694019317627,3.268085241317749,132.62939453125,-130.8441162109375,95.0775146484375
3.8899999,-3.711012601852417,9.351752281188965,2.365471363067627,75.98876953125,-82.94677734375,44.43359375
3.9099999,-3.28963303565979,8.944737434387207,1.235408067703247,69.1375732421875,-24.2156982421875,61.5692138671875
3.9299999,-2.8443117141723633,8.975862503051758,0.5506663918495178,90.0726318359375,-29.2205810546875,91.7205810546875
3.9499999,-2.4899697303771973,9.23443603515625,0.4644751250743866,74.676513671875,-56.610107421875,84.930419921875
3.9699999,-2.070984363555908,9.30386734008789,0.6033388376235962,62.744140625,-60.546875,87.5701904296875
3.9899999,-1.802833914756775,9.339780807495117,0.5841852426528931,51.513671875,-42.5872802734375,83.6639404296875
4.0099999,-1.3838485479354858,8.927978515625,0.5051765441894531,58.349609375,-8.819580078125,88.8671875
4.029999900000001,-1.0558429956436157,8.753201484680176,0.3208230137825012,66.0247802734375,-3.0975341796875,53.3294677734375
4.0499999,-0.7374141216278076,8.710105895996094,0.021547814831137657,38.8336181640625,-32.65380859375,25.4364013671875
4.069999900000001,-0.4908113479614258,8.899248123168945,-0.2777273952960968,34.7137451171875,-5.0811767578125,60.7147216796875
4.0899999000000005,-0.33997663855552673,9.08838939666748,-0.47884035110473633,38.9404296875,47.821044921875,85.845947265625
4.1099999,-0.10773907601833344,8.96149730682373,-0.27054479718208313,19.1802978515625,52.5970458984375,62.4847412109375
4.1299999000000005,0.0933738648891449,8.7484130859375,0.1867477297782898,-7.4920654296875,-5.43212890625,-1.9378662109375
4.1499999,0.3663128614425659,8.398859977722168,0.730231523513794,-3.082275390625,-30.487060546875,1.708984375
4.1699999000000005,0.5722141861915588,8.291120529174805,1.0199298858642578,22.4151611328125,4.5013427734375,22.6898193359375
4.1899999,0.6847416758537292,8.422801971435547,0.8738836050033569,14.9078369140625,6.7596435546875,-2.7008056640625
4.209999900000001,0.7230489253997803,8.607154846191406,0.5937620401382446,0,-3.60107421875,-20.782470703125
4.2299999,0.7038952708244324,8.884882926940918,0.3902548849582672,0,7.7972412109375,-9.8419189453125
4.249999900000001,0.6272808313369751,9.251194953918457,0.26575639843940735,5.096435546875,10.9100341796875,-0.9002685546875
4.2699999,0.524330198764801,9.59835433959961,0.22505496442317963,11.199951171875,-0.6103515625,-8.1787109375
4.289999900000001,0.4429273009300232,9.792284965515137,0.22744916379451752,15.9759521484375,-1.8768310546875,-12.75634765625
4.3099999,0.36152446269989014,9.9000244140625,0.22026655077934265,8.819580078125,3.753662109375,-9.27734375
4.329999900000001,0.2968810200691223,9.945513725280762,0.10295066982507706,5.4168701171875,2.197265625,-4.3487548828125
4.3499999,0.24420857429504395,9.99339771270752,0.009576806798577309,-2.716064453125,3.1280517578125,-4.5623779296875
4.369999900000001,0.21547815203666687,10.005369186401367,-0.06464344263076782,-5.79833984375,8.4991455078125,-3.936767578125
4.3899999,0.2059013396501541,10.017339706420898,-0.05985504388809204,-7.537841796875,7.01904296875,-0.5645751953125
4.409999900000001,0.22026655077934265,9.998186111450195,0.016759412363171577,-5.5694580078125,4.2877197265625,1.5411376953125
4.4299999,0.23702596127986908,9.964667320251465,0.11252748221158981,-6.5765380859375,0.6256103515625,0.152587890625
4.449999900000001,0.26575639843940735,9.897629737854004,0.19153612852096558,-5.035400390625,2.6702880859375,-1.068115234375
4.4699999,0.28969839215278625,9.847352027893066,0.23702596127986908,-3.7078857421875,5.828857421875,-2.0599365234375
4.489999900000001,0.2992752194404602,9.84256362915039,0.2944868206977844,-6.1798095703125,6.622314453125,-3.0364990234375
4.5099999,0.2992752194404602,9.84495735168457,0.3208230137825012,-3.7689208984375,1.617431640625,0.244140625
4.529999900000001,0.28969839215278625,9.856928825378418,0.3471592366695404,-3.662109375,0.946044921875,2.44140625
4.5499999,0.272938996553421,9.854534149169922,0.36152446269989014,-3.692626953125,6.6070556640625,0
4.569999900000001,0.26096799969673157,9.832986831665039,0.3208230137825012,-0.3509521484375,4.0283203125,-0.823974609375
4.5899999000000005,0.24899697303771973,9.806650161743164,0.29209262132644653,-0.7171630859375,3.0059814453125,0.8544921875
4.609999900000001,0.2513911724090576,9.77791976928711,0.2561795711517334,-4.6234130859375,5.2490234375,0.5645751953125
4.6299999000000005,0.2561795711517334,9.761159896850586,0.2777273952960968,-6.77490234375,9.185791015625,-1.0833740234375
4.6499999,0.26815059781074524,9.732429504394531,0.31603461503982544,-4.8065185546875,6.6375732421875,-0.518798828125
4.6699999000000005,0.2849099934101105,9.713275909423828,0.4141969084739685,-1.983642578125,3.448486328125,0.244140625
4.6899999,0.28969839215278625,9.737217903137207,0.5506663918495178,-5.3558349609375,5.8135986328125,-2.5177001953125
4.709999900000001,0.28730419278144836,9.785101890563965,0.6272808313369751,-4.608154296875,1.495361328125,-1.64794921875
4.7299999,0.2777273952960968,9.835380554199219,0.667982280254364,-3.997802734375,-0.5340576171875,3.0364990234375
4.749999900000001,0.2753331959247589,9.861717224121094,0.6224924325942993,-2.7923583984375,2.288818359375,4.3487548828125
4.7699999,0.27054479718208313,9.86650562286377,0.5626373887062073,-3.204345703125,5.6915283203125,-0.42724609375
4.789999900000001,0.2825157940387726,9.81143856048584,0.5482721924781799,-2.99072265625,7.8277587890625,0.5950927734375
4.8099999,0.28730419278144836,9.797073364257812,0.5889736413955688,-2.197265625,2.50244140625,0.9765625
4.829999900000001,0.2968810200691223,9.770736694335938,0.6560112833976746,-1.678466796875,-1.52587890625,1.953125
4.8499999,0.3016694188117981,9.737217903137207,0.6823474764823914,-3.1585693359375,-0.0152587890625,3.7078857421875
4.869999900000001,0.30885201692581177,9.670180320739746,0.6727706789970398,-3.35693359375,4.8675537109375,1.9073486328125
4.8899999,0.31842881441116333,9.586383819580078,0.6655880808830261,-4.8675537109375,5.706787109375,-0.518798828125
4.909999900000001,0.3280056416988373,9.528923034667969,0.6631938815116882,-4.0740966796875,1.2359619140625,-2.0294189453125
4.9299999,0.33279404044151306,9.531316757202148,0.7158663272857666,-5.31005859375,0.8697509765625,-1.6326904296875
4.949999900000001,0.33518823981285095,9.569623947143555,0.7781155705451965,-3.35693359375,3.143310546875,1.15966796875
4.9699999,0.33279404044151306,9.639056205749512,0.7829039692878723,-1.6326904296875,-2.25830078125,0.7171630859375
4.989999900000001,0.3280056416988373,9.694122314453125,0.7829039692878723,-4.0740966796875,-3.021240234375,-1.03759765625
5.0099999,0.31603461503982544,9.758766174316406,0.727837324142456,-1.7242431640625,0.885009765625,-2.0751953125
5.029999900000001,0.304063618183136,9.818621635437012,0.6344634294509888,-2.6702880859375,0.091552734375,-0.335693359375
5.0499999,0.2849099934101105,9.892841339111328,0.5315127968788147,-4.1046142578125,0.1220703125,0.5035400390625
5.069999900000001,0.2777273952960968,9.947908401489258,0.49320554733276367,-5.9051513671875,5.0811767578125,1.0986328125
5.0899999000000005,0.2753331959247589,9.967061996459961,0.4884171485900879,-3.2196044921875,5.279541015625,2.838134765625
5.109999900000001,0.28969839215278625,9.921571731567383,0.5339069962501526,-2.6397705078125,0.244140625,4.7607421875
5.1299999000000005,0.3064578175544739,9.86650562286377,0.5889736413955688,-2.13623046875,2.0294189453125,2.716064453125
5.1499999,0.33039984107017517,9.787496566772461,0.6320692300796509,-4.058837890625,4.7454833984375,2.288818359375
5.1699999000000005,0.3447650372982025,9.75397777557373,0.6560112833976746,-2.38037109375,4.7607421875,3.4637451171875
5.1899999,0.36152446269989014,9.734824180603027,0.6799532771110535,-4.0283203125,0.9765625,4.69970703125
5.209999900000001,0.3758896589279175,9.718064308166504,0.689530074596405,-4.2877197265625,0.0762939453125,5.6610107421875
5.2299999,0.3974374830722809,9.68694019317627,0.6871358752250671,-3.90625,1.9683837890625,3.6773681640625
5.249999900000001,0.4141969084739685,9.648633003234863,0.6871358752250671,-1.77001953125,4.8370361328125,2.0294189453125
5.2699999,0.43335050344467163,9.612719535827637,0.6607996821403503,-1.312255859375,1.1749267578125,1.77001953125
5.289999900000001,0.4381389021873474,9.600749015808105,0.6655880808830261,-2.6397705078125,1.6632080078125,1.1749267578125
5.3099999,0.4405331015586853,9.607931137084961,0.6967126727104187,-2.899169921875,6.28662109375,0.6866455078125
5.329999900000001,0.43335050344467163,9.612719535827637,0.7206547260284424,-1.03759765625,2.13623046875,0.946044921875
5.3499999,0.4357447028160095,9.593565940856934,0.7781155705451965,1.312255859375,0.1678466796875,1.2969970703125
5.369999900000001,0.42377370595932007,9.607931137084961,0.8355764150619507,2.86865234375,3.1280517578125,-3.1585693359375
5.3899999,0.4165911078453064,9.59596061706543,0.8451532125473022,1.3580322265625,0.54931640625,-1.7852783203125
5.409999900000001,0.40940847992897034,9.59835433959961,0.8140285611152649,1.922607421875,-1.5106201171875,0.1220703125
5.4299999,0.3998316824436188,9.641449928283691,0.8020575642585754,0.732421875,5.035400390625,-3.5552978515625
5.449999900000001,0.395043283700943,9.68694019317627,0.768538773059845,2.74658203125,4.2572021484375,-4.7454833984375
5.4699999,0.3974374830722809,9.715670585632324,0.768538773059845,2.4261474609375,0.2899169921875,1.03759765625
5.489999900000001,0.3902548849582672,9.775525093078613,0.790086567401886,-0.0152587890625,1.0986328125,-0.579833984375
5.5099999,0.3878606855869293,9.787496566772461,0.811634361743927,-0.1220703125,2.1514892578125,-1.8310546875
5.529999900000001,0.3926490843296051,9.770736694335938,0.8044517636299133,2.0599365234375,-0.9307861328125,-0.6256103515625
5.5499999,0.38546648621559143,9.782708168029785,0.7805097699165344,3.1280517578125,-0.4425048828125,-3.47900390625
5.569999900000001,0.38067805767059326,9.799467086791992,0.7541735172271729,-0.67138671875,2.2430419921875,-3.143310546875
5.5899999000000005,0.37828385829925537,9.84256362915039,0.7445967197418213,0.06103515625,3.9825439453125,-0.213623046875
5.609999900000001,0.3687070608139038,9.895236015319824,0.7661445140838623,-0.6256103515625,0.1373291015625,0.5340576171875
5.6299999000000005,0.36152446269989014,9.923966407775879,0.7565677165985107,1.3427734375,-3.9520263671875,0.518798828125
5.6499999,0.3519476354122162,9.919178009033203,0.7254431247711182,-0.6866455078125,-0.5035400390625,1.03759765625
5.6699999000000005,0.3423708379268646,9.890447616577148,0.6751648783683777,-0.091552734375,5.615234375,0.4730224609375
5.6899999,0.33518823981285095,9.861717224121094,0.6416460275650024,1.5106201171875,4.2266845703125,-0.0762939453125
5.709999900000001,0.33758243918418884,9.816226959228516,0.6847416758537292,-0.762939453125,0.7781982421875,1.9683837890625
5.7299999,0.3447650372982025,9.75637149810791,0.7158663272857666,2.227783203125,-2.4261474609375,2.349853515625
5.749999900000001,0.35673606395721436,9.696516990661621,0.7254431247711182,-0.5340576171875,-1.6021728515625,0.1983642578125
5.7699999,0.363918662071228,9.63187313079834,0.6919242739677429,-1.129150390625,3.5247802734375,-0.6866455078125
5.789999900000001,0.3734954595565796,9.583989143371582,0.6560112833976746,-0.2899169921875,3.7384033203125,0.457763671875
5.8099999,0.3711012601852417,9.576807022094727,0.6560112833976746,0.8087158203125,2.7313232421875,-0.9002685546875
5.829999900000001,0.3758896589279175,9.583989143371582,0.706289529800415,-0.518798828125,1.0986328125,-0.6561279296875
5.8499999,0.37828385829925537,9.607931137084961,0.7733271718025208,0.2593994140625,0.5645751953125,-0.3509521484375
5.869999900000001,0.3758896589279175,9.617507934570312,0.7733271718025208,1.495361328125,-3.7994384765625,0.244140625
5.8899999,0.3711012601852417,9.639056205749512,0.7493851184844971,-1.2359619140625,-0.732421875,-1.03759765625
5.909999900000001,0.3663128614425659,9.646238327026367,0.7038952708244324,-3.204345703125,5.035400390625,-1.922607421875
5.9299999,0.3711012601852417,9.660603523254395,0.6871358752250671,-0.8697509765625,3.3721923828125,-0.9765625
5.949999900000001,0.363918662071228,9.710882186889648,0.7015010714530945,0.1068115234375,-2.7923583984375,-3.3721923828125
5.9699999,0.3663128614425659,9.746794700622559,0.7350199222564697,-0.885009765625,-2.5177001953125,-0.732421875
5.989999900000001,0.3495534360408783,9.81143856048584,0.7230489253997803,-2.0904541015625,-0.48828125,0.030517578125
6.0099999,0.3423708379268646,9.828198432922363,0.6871358752250671,-2.838134765625,0.8697509765625,1.434326171875
6.029999900000001,0.33279404044151306,9.840168952941895,0.6392518281936646,-1.52587890625,1.1138916015625,0.5340576171875
6.0499999,0.33039984107017517,9.859322547912598,0.6344634294509888,-3.5247802734375,1.861572265625,-1.6326904296875
6.069999900000001,0.33997663855552673,9.854534149169922,0.6799532771110535,-2.62451171875,1.9378662109375,1.7242431640625
6.0899999000000005,0.3495534360408783,9.847352027893066,0.706289529800415,2.0751953125,-2.8076171875,3.0059814453125
6.109999900000001,0.3519476354122162,9.832986831665039,0.6991068720817566,-1.190185546875,-3.8604736328125,-1.1749267578125
6.1299999000000005,0.36152446269989014,9.77791976928711,0.6751648783683777,-3.0059814453125,4.425048828125,-1.0986328125
6.149999900000001,0.35673606395721436,9.78989028930664,0.6488286852836609,-5.4473876953125,6.4544677734375,-1.8768310546875
6.1699999000000005,0.363918662071228,9.768342971801758,0.7038952708244324,-2.62451171875,2.0904541015625,1.28173828125
6.1899999,0.35913026332855225,9.792284965515137,0.7422025203704834,5.79833984375,-2.6702880859375,0.6256103515625
6.209999900000001,0.36152446269989014,9.775525093078613,0.7805097699165344,-3.3721923828125,-3.11279296875,-0.701904296875
6.2299999,0.3495534360408783,9.75397777557373,0.727837324142456,1.2664794921875,3.6773681640625,0.1220703125
6.249999900000001,0.3447650372982025,9.72285270690918,0.6703764796257019,-1.5106201171875,5.37109375,1.2969970703125
6.2699999,0.3423708379268646,9.701305389404297,0.6751648783683777,-1.2054443359375,7.2021484375,0.6256103515625
6.289999900000001,0.3471592366695404,9.674968719482422,0.7613561153411865,-0.3509521484375,5.1727294921875,0.1220703125
6.3099999,0.35913026332855225,9.660603523254395,0.8595184087753296,0.6561279296875,-2.4566650390625,-0.2593994140625
6.329999900000001,0.36152446269989014,9.667786598205566,0.9050082564353943,0.5950927734375,-4.9896240234375,-1.52587890625
6.3499999,0.36152446269989014,9.682151794433594,0.8858546018600464,-1.7852783203125,1.3275146484375,-0.732421875
6.369999900000001,0.35673606395721436,9.703699111938477,0.8331822156906128,-1.5716552734375,6.7901611328125,0.2288818359375
6.3899999,0.3519476354122162,9.713275909423828,0.8092401623725891,-1.2054443359375,4.150390625,0.30517578125
6.409999900000001,0.3519476354122162,9.710882186889648,0.849941611289978,-0.1373291015625,1.1444091796875,-0.2288818359375
6.4299999,0.35434186458587646,9.694122314453125,0.9026140570640564,-1.1444091796875,-2.288818359375,-1.3275146484375
6.449999900000001,0.3519476354122162,9.68933391571045,0.9026140570640564,1.251220703125,-2.8228759765625,-0.8087158203125
6.4699999,0.3447650372982025,9.696516990661621,0.8403648138046265,0.1220703125,-0.701904296875,-0.4730224609375
6.489999900000001,0.33279404044151306,9.725247383117676,0.7733271718025208,-0.946044921875,5.279541015625,-0.67138671875
6.5099999,0.3232172429561615,9.761159896850586,0.730231523513794,-1.8768310546875,4.9285888671875,-0.3509521484375
6.529999900000001,0.31842881441116333,9.785101890563965,0.7565677165985107,-2.105712890625,0.1678466796875,0.640869140625
6.5499999,0.31842881441116333,9.787496566772461,0.790086567401886,1.251220703125,-2.0294189453125,0.7171630859375
6.569999900000001,0.31842881441116333,9.794678688049316,0.7972691655158997,-2.3345947265625,-1.983642578125,-1.708984375
6.5899999000000005,0.3256114423274994,9.780313491821289,0.7972691655158997,-0.6103515625,4.6234130859375,0.274658203125
6.609999900000001,0.33997663855552673,9.773131370544434,0.8020575642585754,-0.1678466796875,4.791259765625,1.3580322265625
6.6299999000000005,0.3519476354122162,9.765948295593262,0.8355764150619507,1.220703125,-0.54931640625,-0.0457763671875
6.649999900000001,0.3687070608139038,9.758766174316406,0.8667010068893433,0.4425048828125,-3.021240234375,-0.6256103515625
6.6699999000000005,0.38307225704193115,9.732429504394531,0.8882488012313843,-2.3193359375,1.6937255859375,1.068115234375
6.6899999,0.38546648621559143,9.718064308166504,0.8667010068893433,0.8392333984375,2.838134765625,0.3662109375
6.709999900000001,0.38067805767059326,9.718064308166504,0.8379706144332886,-1.03759765625,-1.190185546875,-1.9989013671875
6.7299999,0.37828385829925537,9.694122314453125,0.8164227604866028,0.701904296875,0.6256103515625,0.67138671875
6.749999900000001,0.3687070608139038,9.691728591918945,0.8212111592292786,-1.373291015625,2.9449462890625,0.4425048828125
6.7699999,0.35913026332855225,9.6989107131958,0.8044517636299133,-0.1220703125,-0.7476806640625,-2.2430419921875
6.789999900000001,0.3519476354122162,9.710882186889648,0.790086567401886,0.0457763671875,-2.5482177734375,-1.2054443359375
6.8099999,0.3423708379268646,9.732429504394531,0.7589619159698486,0.6866455078125,2.3651123046875,1.2054443359375
6.829999900000001,0.3423708379268646,9.751583099365234,0.7445967197418213,-0.8544921875,4.08935546875,0.7476806640625
6.8499999,0.33997663855552673,9.758766174316406,0.730231523513794,1.739501953125,1.0986328125,-1.28173828125
6.869999900000001,0.3471592366695404,9.763554573059082,0.7565677165985107,-0.091552734375,-0.9307861328125,-0.9307861328125
6.8899999,0.3447650372982025,9.785101890563965,0.768538773059845,0.30517578125,1.7242431640625,-0.7781982421875
6.909999900000001,0.3447650372982025,9.775525093078613,0.751779317855835,0.8392333984375,1.3275146484375,2.349853515625
6.9299999,0.3471592366695404,9.75397777557373,0.7565677165985107,0.4425048828125,4.364013671875,1.3580322265625
6.949999900000001,0.3471592366695404,9.732429504394531,0.7924807667732239,-2.0599365234375,4.547119140625,-1.953125
6.9699999,0.35434186458587646,9.682151794433594,0.8451532125473022,-0.6561279296875,0.1678466796875,0.8544921875
6.989999900000001,0.35673606395721436,9.670180320739746,0.8882488012313843,0.396728515625,-3.021240234375,0.8697509765625
7.0099999,0.3519476354122162,9.670180320739746,0.9074024558067322,-0.2288818359375,1.52587890625,-1.4190673828125
7.029999900000001,0.3447650372982025,9.674968719482422,0.8690952062606812,1.251220703125,2.7618408203125,-0.6256103515625
7.0499999,0.3423708379268646,9.679757118225098,0.8475474119186401,-1.77001953125,2.13623046875,0.946044921875
7.069999900000001,0.33758243918418884,9.694122314453125,0.8571242094039917,0.9613037109375,2.4261474609375,-0.213623046875
7.0899999000000005,0.33758243918418884,9.710882186889648,0.8762778043746948,-0.9002685546875,-0.5645751953125,-1.15966796875
7.109999900000001,0.33758243918418884,9.715670585632324,0.871489405632019,0.091552734375,-2.3345947265625,0.579833984375
7.1299999000000005,0.33758243918418884,9.718064308166504,0.8547300100326538,-1.1444091796875,1.28173828125,0.5035400390625
7.149999900000001,0.33758243918418884,9.72285270690918,0.8236053586006165,-1.2054443359375,3.3416748046875,-1.678466796875
7.1699999000000005,0.3423708379268646,9.739612579345703,0.8259995579719543,-0.8087158203125,2.2125244140625,-2.1820068359375
7.1899999,0.3519476354122162,9.742006301879883,0.8690952062606812,0.0457763671875,0.6866455078125,1.007080078125
7.209999900000001,0.35434186458587646,9.768342971801758,0.8858546018600464,1.708984375,-3.4027099609375,0.030517578125
7.2299999,0.3519476354122162,9.794678688049316,0.8571242094039917,-1.5716552734375,-3.2958984375,-2.105712890625
7.249999900000001,0.3447650372982025,9.801861763000488,0.8140285611152649,-2.1514892578125,3.4942626953125,0.9765625
7.2699999,0.33997663855552673,9.785101890563965,0.7589619159698486,0.518798828125,3.814697265625,2.6702880859375
7.289999900000001,0.33039984107017517,9.780313491821289,0.7374141216278076,1.190185546875,-0.640869140625,-1.4801025390625
7.3099999,0.33518823981285095,9.751583099365234,0.7541735172271729,-1.2054443359375,-0.48828125,-1.5411376953125
7.329999900000001,0.33758243918418884,9.742006301879883,0.7661445140838623,0.4730224609375,2.2735595703125,1.434326171875
7.3499999,0.33997663855552673,9.732429504394531,0.7661445140838623,0.213623046875,1.007080078125,1.922607421875
7.369999900000001,0.3423708379268646,9.734824180603027,0.7805097699165344,-0.2593994140625,1.7242431640625,-0.6103515625
7.3899999,0.3471592366695404,9.715670585632324,0.8188169598579407,-0.335693359375,3.448486328125,-0.244140625
7.409999900000001,0.3471592366695404,9.6989107131958,0.8259995579719543,1.2969970703125,-0.518798828125,1.6326904296875
7.4299999,0.3471592366695404,9.68694019317627,0.8236053586006165,-0.9002685546875,-1.5869140625,0.5645751953125
7.449999900000001,0.3447650372982025,9.672574996948242,0.7852981686592102,-0.7781982421875,3.9825439453125,-0.0457763671875
7.4699999,0.3495534360408783,9.670180320739746,0.8092401623725891,-0.823974609375,1.9378662109375,0.946044921875
7.489999900000001,0.3519476354122162,9.684545516967773,0.849941611289978,1.1138916015625,0.640869140625,-0.67138671875
7.5099999,0.35673606395721436,9.706093788146973,0.8786720037460327,-1.0223388671875,-1.739501953125,-1.8310546875
7.529999900000001,0.35673606395721436,9.742006301879883,0.871489405632019,-1.373291015625,0.1220703125,-0.457763671875
7.5499999,0.35434186458587646,9.775525093078613,0.8547300100326538,-0.5645751953125,3.1585693359375,1.5411376953125
7.569999900000001,0.3471592366695404,9.799467086791992,0.8331822156906128,2.6397705078125,3.692626953125,0.885009765625
7.5899999000000005,0.3447650372982025,9.782708168029785,0.8403648138046265,-1.495361328125,0.54931640625,-0.1983642578125
7.609999900000001,0.3519476354122162,9.744400978088379,0.8427590131759644,-0.9918212890625,-0.1983642578125,0.030517578125
7.6299999000000005,0.35434186458587646,9.715670585632324,0.8451532125473022,-1.3580322265625,0.91552734375,-0.732421875
7.649999900000001,0.35434186458587646,9.713275909423828,0.8212111592292786,-0.5645751953125,1.4801025390625,-0.9613037109375
7.6699999000000005,0.3471592366695404,9.706093788146973,0.7876923680305481,-1.3427734375,1.40380859375,1.5106201171875
7.6899999,0.3447650372982025,9.701305389404297,0.7924807667732239,-2.3193359375,3.7384033203125,1.3580322265625
7.709999900000001,0.3423708379268646,9.694122314453125,0.7829039692878723,-0.0762939453125,1.922607421875,-1.3275146484375
7.7299999,0.3471592366695404,9.677363395690918,0.7829039692878723,-0.640869140625,-1.5869140625,-1.434326171875
7.749999900000001,0.3519476354122162,9.68933391571045,0.7948749661445618,-0.8392333984375,2.99072265625,-0.6256103515625
7.7699999,0.35673606395721436,9.713275909423828,0.7948749661445618,-1.4190673828125,3.021240234375,-0.1220703125
7.789999900000001,0.36152446269989014,9.72285270690918,0.811634361743927,0.030517578125,2.0599365234375,0.3814697265625
7.8099999,0.363918662071228,9.742006301879883,0.8307880163192749,-0.5035400390625,0.946044921875,-1.4495849609375
7.829999900000001,0.3663128614425659,9.746794700622559,0.871489405632019,-1.7547607421875,3.6163330078125,-0.91552734375
7.8499999,0.363918662071228,9.785101890563965,0.8930372595787048,-0.1373291015625,2.197265625,-0.396728515625
7.869999900000001,0.35913026332855225,9.823410034179688,0.9169792532920837,-2.01416015625,-0.4119873046875,0.3509521484375
7.8899999,0.3519476354122162,9.832986831665039,0.9169792532920837,0.67138671875,0.732421875,1.8310546875
7.909999900000001,0.3447650372982025,9.832986831665039,0.9217676520347595,-2.777099609375,2.25830078125,-0.0457763671875
7.9299999,0.33758243918418884,9.818621635437012,0.9145850539207458,-1.2664794921875,2.349853515625,-1.52587890625
7.949999900000001,0.33279404044151306,9.797073364257812,0.9457096457481384,-0.9002685546875,0.701904296875,0.885009765625
7.9699999,0.33279404044151306,9.770736694335938,0.9696516990661621,1.4495849609375,-0.4425048828125,2.2430419921875
7.989999900000001,0.33039984107017517,9.75397777557373,0.9552865028381348,-0.4425048828125,-3.11279296875,-0.6256103515625
8.0099999,0.33039984107017517,9.727641105651855,0.9193734526634216,-2.01416015625,1.007080078125,-1.007080078125
8.0299999,0.33039984107017517,9.706093788146973,0.871489405632019,-1.434326171875,3.5858154296875,1.7852783203125
8.049999900000001,0.33279404044151306,9.679757118225098,0.8595184087753296,0.6866455078125,2.838134765625,2.0294189453125
8.069999900000001,0.33997663855552673,9.610325813293457,0.8738836050033569,0.3814697265625,-0.3204345703125,0.6103515625
8.0899999,0.3495534360408783,9.555258750915527,0.8978256583213806,-1.64794921875,-0.7476806640625,-2.8076171875
8.1099999,0.3495534360408783,9.533711433410645,0.8810662031173706,-0.579833984375,0.3509521484375,-4.0283203125
8.129999900000001,0.3519476354122162,9.552865028381348,0.8690952062606812,-0.8544921875,3.631591796875,0.6103515625
8.149999900000001,0.3447650372982025,9.615114212036133,0.8690952062606812,1.40380859375,4.9285888671875,0.1068115234375
8.1699999,0.3447650372982025,9.643844604492188,0.8690952062606812,0.6561279296875,-0.1373291015625,-0.8544921875
8.1899999,0.33997663855552673,9.672574996948242,0.8810662031173706,-1.7547607421875,-1.373291015625,-3.0364990234375
8.2099999,0.33518823981285095,9.710882186889648,0.8571242094039917,0.8544921875,2.4566650390625,-4.45556640625
8.229999900000001,0.3256114423274994,9.770736694335938,0.7972691655158997,-0.48828125,2.2735595703125,-2.44140625
8.2499999,0.3208230137825012,9.847352027893066,0.7637503147125244,0.3662109375,5.5084228515625,-0.7781982421875
8.2699999,0.31842881441116333,9.904812812805176,0.7709329724311829,-1.617431640625,6.6680908203125,-0.274658203125
8.2899999,0.3232172429561615,9.921571731567383,0.8236053586006165,0,3.1280517578125,0.3814697265625
8.309999900000001,0.33279404044151306,9.9000244140625,0.9097966551780701,-0.3662109375,0.5035400390625,0.3814697265625
8.3299999,0.33279404044151306,9.864110946655273,0.9720458984375,-0.2899169921875,-1.0223388671875,-0.7476806640625
8.3499999,0.3280056416988373,9.830592155456543,0.9696516990661621,-0.5950927734375,-1.708984375,-0.335693359375
8.3699999,0.31364041566848755,9.81143856048584,0.912190854549408,-0.640869140625,0.06103515625,0.8697509765625
8.389999900000001,0.2968810200691223,9.785101890563965,0.8355764150619507,-1.6937255859375,3.47900390625,3.0059814453125
8.4099999,0.28969839215278625,9.730035781860352,0.7829039692878723,-0.6561279296875,4.058837890625,2.9296875
8.4299999,0.2944868206977844,9.646238327026367,0.7829039692878723,0.91552734375,2.716064453125,0.3662109375
8.4499999,0.3064578175544739,9.57201862335205,0.8355764150619507,-1.15966796875,1.8463134765625,-2.2735595703125
8.469999900000001,0.3232172429561615,9.533711433410645,0.9050082564353943,-1.068115234375,1.190185546875,-1.556396484375
8.4899999,0.33039984107017517,9.560047149658203,0.9385270476341248,1.6326904296875,-0.946044921875,-0.3509521484375
8.5099999,0.33518823981285095,9.607931137084961,0.9528923034667969,0.579833984375,0.7781982421875,0.54931640625
8.5299999,0.33518823981285095,9.658209800720215,0.9385270476341248,0.762939453125,3.9825439453125,-0.6256103515625
8.549999900000001,0.33279404044151306,9.684545516967773,0.9433154463768005,-1.0223388671875,2.716064453125,-1.129150390625
8.569999900000001,0.33039984107017517,9.706093788146973,0.9552865028381348,1.2969970703125,-0.1678466796875,-1.03759765625
8.5899999,0.3232172429561615,9.734824180603027,0.9648633003234863,-0.518798828125,-1.9073486328125,-1.068115234375
8.6099999,0.31842881441116333,9.749189376831055,0.950498104095459,0.06103515625,0.762939453125,0.0762939453125
8.629999900000001,0.31603461503982544,9.763554573059082,0.9385270476341248,-1.0223388671875,3.3416748046875,-0.335693359375
8.649999900000001,0.30885201692581177,9.782708168029785,0.9409212470054626,-1.0833740234375,2.0294189453125,-2.7313232421875
8.6699999,0.304063618183136,9.792284965515137,0.9289502501487732,0.79345703125,-3.41796875,-0.823974609375
8.6899999,0.2992752194404602,9.806650161743164,0.8834604024887085,0.030517578125,-2.5482177734375,1.40380859375
8.709999900000001,0.29209262132644653,9.801861763000488,0.8451532125473022,-2.01416015625,4.4708251953125,0.79345703125
8.729999900000001,0.2968810200691223,9.749189376831055,0.8092401623725891,0.152587890625,5.279541015625,0.91552734375
8.7499999,0.3016694188117981,9.68933391571045,0.8188169598579407,0.885009765625,-0.7171630859375,-1.3427734375
8.7699999,0.31124621629714966,9.641449928283691,0.8619126081466675,-1.89208984375,-1.6021728515625,-1.89208984375
8.7899999,0.31603461503982544,9.62947940826416,0.8834604024887085,-1.617431640625,0.8544921875,-1.3427734375
8.809999900000001,0.3208230137825012,9.66539192199707,0.8834604024887085,-0.091552734375,1.5411376953125,-0.3814697265625
8.8299999,0.31124621629714966,9.732429504394531,0.8690952062606812,0.0152587890625,1.4801025390625,-1.0986328125
8.8499999,0.31124621629714966,9.77791976928711,0.8667010068893433,-0.6866455078125,1.800537109375,1.129150390625
8.8699999,0.30885201692581177,9.794678688049316,0.871489405632019,0.823974609375,2.1820068359375,1.0986328125
8.889999900000001,0.30885201692581177,9.780313491821289,0.8762778043746948,0.5645751953125,0.274658203125,-0.4730224609375
8.9099999,0.304063618183136,9.761159896850586,0.8858546018600464,-0.335693359375,0.48828125,-1.9989013671875
8.9299999,0.2968810200691223,9.751583099365234,0.8810662031173706,0.4730224609375,1.5411376953125,-0.091552734375
8.9499999,0.28730419278144836,9.75637149810791,0.8786720037460327,0.7781982421875,2.5787353515625,1.5106201171875
8.969999900000001,0.2825157940387726,9.737217903137207,0.8667010068893433,2.0751953125,2.0294189453125,1.373291015625
8.9899999,0.2825157940387726,9.710882186889648,0.8858546018600464,-0.1220703125,2.4566650390625,-0.4425048828125
9.0099999,0.28969839215278625,9.674968719482422,0.9097966551780701,0,2.349853515625,-1.373291015625
9.0299999,0.2944868206977844,9.653421401977539,0.9265560507774353,1.2969970703125,-0.4425048828125,-0.091552734375
9.049999900000001,0.29209262132644653,9.646238327026367,0.9289502501487732,0.946044921875,-0.06103515625,0.244140625
9.069999900000001,0.28730419278144836,9.655815124511719,0.8858546018600464,0.640869140625,1.2969970703125,-0.5950927734375
9.0899999,0.2849099934101105,9.670180320739746,0.8595184087753296,-1.708984375,3.3111572265625,-1.3885498046875
9.1099999,0.2801215946674347,9.691728591918945,0.8331822156906128,0.0457763671875,3.0975341796875,-0.6103515625
9.129999900000001,0.2825157940387726,9.696516990661621,0.8595184087753296,-0.244140625,1.5106201171875,0.732421875
9.149999900000001,0.2849099934101105,9.720458984375,0.8978256583213806,0.640869140625,2.1209716796875,-1.617431640625
9.1699999,0.2825157940387726,9.75397777557373,0.9074024558067322,-2.1514892578125,-1.2054443359375,-2.655029296875
9.1899999,0.2801215946674347,9.785101890563965,0.933738648891449,-0.54931640625,2.593994140625,0.8087158203125
9.209999900000001,0.2777273952960968,9.823410034179688,0.9193734526634216,3.9825439453125,1.953125,1.15966796875
9.229999900000001,0.2753331959247589,9.837775230407715,0.9050082564353943,1.4495849609375,-1.2664794921875,-0.9002685546875
9.2499999,0.2777273952960968,9.816226959228516,0.8738836050033569,1.190185546875,0.6561279296875,-0.8697509765625
9.2699999,0.2753331959247589,9.816226959228516,0.8331822156906128,-1.495361328125,1.6326904296875,-0.9613037109375
9.2899999,0.27054479718208313,9.818621635437012,0.8068459630012512,-0.8544921875,2.777099609375,0.1678466796875
9.309999900000001,0.26815059781074524,9.804255485534668,0.8044517636299133,1.922607421875,1.8157958984375,2.0599365234375
9.3299999,0.26575639843940735,9.792284965515137,0.8188169598579407,1.46484375,0.9765625,0.244140625
9.3499999,0.26815059781074524,9.768342971801758,0.849941611289978,-0.885009765625,2.0599365234375,-0.8697509765625
9.3699999,0.272938996553421,9.725247383117676,0.8786720037460327,-0.2899169921875,1.708984375,1.77001953125
9.389999900000001,0.2777273952960968,9.703699111938477,0.8810662031173706,1.251220703125,-0.1373291015625,1.2969970703125
9.4099999,0.2801215946674347,9.691728591918945,0.8954314589500427,0.152587890625,1.8310546875,-1.6937255859375
9.4299999,0.2849099934101105,9.658209800720215,0.8786720037460327,0.0152587890625,2.593994140625,0.6103515625
9.4499999,0.28730419278144836,9.636661529541016,0.8810662031173706,-0.6866455078125,1.8768310546875,1.007080078125
9.469999900000001,0.28730419278144836,9.622296333312988,0.9217676520347595,-1.6632080078125,2.2125244140625,-1.5411376953125
9.4899999,0.28969839215278625,9.622296333312988,0.9361328482627869,1.46484375,-1.6021728515625,-2.288818359375
9.5099999,0.28730419278144836,9.655815124511719,0.9265560507774353,-0.1220703125,-2.99072265625,-0.8392333984375
9.5299999,0.2801215946674347,9.725247383117676,0.8930372595787048,-0.3204345703125,2.2430419921875,0.30517578125
9.549999900000001,0.2777273952960968,9.770736694335938,0.8619126081466675,-2.25830078125,4.0435791015625,1.40380859375
9.569999900000001,0.2777273952960968,9.78989028930664,0.849941611289978,1.068115234375,1.2969970703125,0.8544921875
9.5899999,0.2801215946674347,9.780313491821289,0.8619126081466675,-0.48828125,-2.593994140625,-1.0986328125
9.6099999,0.2849099934101105,9.758766174316406,0.8738836050033569,0.030517578125,1.5106201171875,-0.732421875
9.629999900000001,0.2849099934101105,9.765948295593262,0.8571242094039917,-1.9378662109375,0.6561279296875,-0.1068115234375
9.649999900000001,0.28969839215278625,9.761159896850586,0.8619126081466675,-0.885009765625,1.77001953125,1.52587890625
9.6699999,0.28969839215278625,9.773131370544434,0.8690952062606812,1.5106201171875,1.1749267578125,0.152587890625
9.6899999,0.29209262132644653,9.773131370544434,0.8786720037460327,-0.54931640625,-0.9307861328125,-1.2054443359375
9.709999900000001,0.29209262132644653,9.770736694335938,0.8762778043746948,-1.007080078125,-0.9307861328125,0.762939453125
9.729999900000001,0.28969839215278625,9.782708168029785,0.8667010068893433,-0.7781982421875,1.5106201171875,0.9307861328125
9.7499999,0.28730419278144836,9.770736694335938,0.8379706144332886,0.7171630859375,1.03759765625,1.1444091796875
9.7699999,0.29209262132644653,9.746794700622559,0.8188169598579407,0.701904296875,0.54931640625,0.67138671875
9.7899999,0.2968810200691223,9.725247383117676,0.828393816947937,-0.762939453125,2.3345947265625,-0.7781982421875
9.809999900000001,0.3016694188117981,9.691728591918945,0.8379706144332886,1.6632080078125,0.9765625,0.823974609375
9.8299999,0.3064578175544739,9.66299819946289,0.8523358106613159,1.129150390625,-1.6021728515625,1.556396484375
9.8499999,0.304063618183136,9.660603523254395,0.8595184087753296,0.9307861328125,0.885009765625,-1.4190673828125
9.8699999,0.3064578175544739,9.641449928283691,0.8690952062606812,1.1749267578125,3.265380859375,-0.6866455078125
9.889999900000001,0.30885201692581177,9.63187313079834,0.8762778043746948,2.8533935546875,2.197265625,1.2664794921875
9.9099999,0.3016694188117981,9.66539192199707,0.871489405632019,0.30517578125,-3.204345703125,-1.6937255859375
9.9299999,0.3016694188117981,9.696516990661621,0.8619126081466675,-0.244140625,-0.67138671875,-0.7476806640625
9.9499999,0.2992752194404602,9.749189376831055,0.8451532125473022,1.1749267578125,3.8299560546875,1.5716552734375
9.969999900000001,0.2944868206977844,9.84495735168457,0.828393816947937,1.64794921875,0.9307861328125,0.1983642578125
9.9899999,0.29209262132644653,9.955090522766113,0.828393816947937,0.3509521484375,-2.50244140625,2.2125244140625
10.0099999,0.304063618183136,10.137049674987793,0.8858546018600464,2.227783203125,1.1444091796875,7.659912109375
10.0299999,0.29209262132644653,10.486603736877441,0.9696516990661621,-0.2899169921875,-0.3509521484375,11.627197265625
10.049999900000001,0.31124621629714966,10.922348022460938,1.0247182846069336,6.6986083984375,-11.2457275390625,31.8756103515625
10.069999900000001,0.3064578175544739,11.420342445373535,1.0342950820922852,4.5928955078125,-16.2506103515625,53.924560546875
10.0899999,0.33518823981285095,11.73398208618164,0.9768342971801758,9.4146728515625,-11.65771484375,75.2105712890625
10.1099999,0.47405192255973816,11.614272117614746,0.8379706144332886,27.313232421875,-4.364013671875,92.6666259765625
10.129999900000001,0.6200982332229614,11.049241065979004,0.6919242739677429,8.697509765625,-11.77978515625,86.36474609375
10.149999900000001,0.933738648891449,10.15141487121582,0.608127236366272,3.23486328125,-5.4473876953125,70.0836181640625
10.1699999,1.2282254695892334,9.279925346374512,0.6655880808830261,6.744384765625,-3.173828125,51.1016845703125
10.1899999,1.5658079385757446,8.69095230102539,0.7493851184844971,10.2386474609375,-16.998291015625,45.59326171875
10.209999900000001,1.8315643072128296,8.647856712341309,0.828393816947937,10.25390625,-29.84619140625,42.205810546875
10.229999900000001,2.0398597717285156,8.98543930053711,0.7493851184844971,11.6729736328125,-26.885986328125,53.009033203125
10.2499999,2.1787235736846924,9.473855972290039,0.4620809257030487,23.2696533203125,-13.61083984375,72.021484375
10.2699999,2.296039342880249,10.02452278137207,-0.002394201699644327,25.482177734375,-6.7291259765625,75.74462890625
10.2899999,2.3582887649536133,10.467450141906738,-0.4644751250743866,13.5498046875,3.72314453125,79.58984375
10.309999900000001,2.473210334777832,10.766724586486816,-0.9457096457481384,21.42333984375,18.2952880859375,109.8480224609375
10.3299999,2.5330653190612793,11.075576782226562,-1.4293384552001953,19.439697265625,31.7840576171875,134.0179443359375
10.3499999,2.6168625354766846,11.02051067352295,-1.7286136150360107,-1.6326904296875,58.5784912109375,167.022705078125
10.3699999,2.846705913543701,10.414777755737305,-1.9153614044189453,8.941650390625,82.6263427734375,194.549560546875
10.389999900000001,3.1675288677215576,9.44752025604248,-1.8914192914962769,3.4637451171875,80.657958984375,166.2445068359375
10.4099999,3.627215623855591,8.200140953063965,-1.6663644313812256,-1.2054443359375,92.6055908203125,132.1563720703125
10.4299999,4.177882194519043,7.24485445022583,-1.278503656387329,-15.289306640625,109.588623046875,124.9237060546875
10.4499999,4.644751071929932,6.675034523010254,-0.5793967843055725,-30.8685302734375,118.6981201171875,126.556396484375
10.469999900000001,5.142745018005371,6.289567947387695,0.3711012601852417,-13.7481689453125,112.3504638671875,139.8468017578125
10.4899999,5.5760955810546875,5.990292549133301,1.4245500564575195,-5.31005859375,81.878662109375,114.1204833984375
10.5099999,5.980715751647949,5.559336185455322,2.3582887649536133,1.8463134765625,66.375732421875,80.5511474609375
10.5299999,6.344634532928467,5.015852451324463,2.8802247047424316,21.1181640625,69.0765380859375,71.502685546875
10.549999900000001,6.5912370681762695,4.563348293304443,2.889801502227783,31.158447265625,60.8978271484375,48.5687255859375
10.569999900000001,6.7061591148376465,4.242525577545166,2.5713725090026855,27.618408203125,65.85693359375,14.70947265625
10.5899999,6.72531270980835,4.206612586975098,2.049436569213867,18.9208984375,80.0323486328125,-5.584716796875
10.6099999,6.653486728668213,4.508281707763672,1.5825673341751099,19.683837890625,91.1407470703125,-10.7421875
10.629999900000001,6.5481414794921875,4.934449672698975,1.359906554222107,22.6287841796875,99.91455078125,-6.6070556640625
10.649999900000001,6.457161903381348,5.34625244140625,1.455674648284912,30.76171875,103.8970947265625,-19.8516845703125
10.6699999,6.347028732299805,5.6910176277160645,1.9129672050476074,18.6767578125,103.1646728515625,-45.10498046875
10.6899999,6.2416839599609375,5.801150798797607,2.6192567348480225,14.8162841796875,95.76416015625,-44.7845458984375
10.709999900000001,6.141127586364746,5.643133640289307,3.3255462646484375,36.6363525390625,81.35986328125,-45.2423095703125
10.729999900000001,5.95677375793457,5.52821159362793,3.7924153804779053,44.1436767578125,71.1822509765625,-90.4693603515625
10.7499999,5.7125654220581055,5.5114521980285645,3.8810009956359863,11.2152099609375,70.526123046875,-122.8179931640625
10.7699999,5.341464042663574,5.791574001312256,3.6176388263702393,2.960205078125,84.1217041015625,-104.6295166015625
10.7899999,4.924872875213623,6.165069580078125,3.313575267791748,5.1422119140625,99.54833984375,-83.0535888671875
10.809999900000001,4.46518611907959,6.279991149902344,3.251325845718384,20.599365234375,110.83984375,-117.156982421875
10.8299999,3.993528366088867,5.832275390625,3.5865142345428467,56.7169189453125,113.677978515625,-188.4613037109375
10.8499999,3.4620156288146973,5.348646640777588,4.235342979431152,73.5931396484375,95.8404541015625,-259.8419189453125
10.8699999,2.734178304672241,5.243301868438721,4.941632270812988,23.92578125,52.734375,-269.4091796875
10.889999900000001,1.4963760375976562,9.624691009521484,-0.24660277366638184,3.814697265625,-6.561279296875,0.4730224609375
10.9099999,1.4891934394836426,9.567230224609375,-0.35913026332855225,-5.2490234375,8.1787109375,-0.823974609375
10.9299999,1.4867992401123047,9.528923034667969,-0.5219359993934631,-4.0740966796875,10.1470947265625,1.77001953125
10.9499999,1.4963760375976562,9.514557838439941,-0.507570743560791,-5.645751953125,7.9498291015625,1.6937255859375
10.969999900000001,1.5131354331970215,9.519346237182617,-0.3734954595565796,1.617431640625,4.8675537109375,-0.274658203125
10.9899999,1.534683346748352,9.533711433410645,-0.2561795711517334,0.946044921875,-7.4920654296875,-1.52587890625
11.0099999,1.5394717454910278,9.5624418258667,-0.19632454216480255,1.3427734375,-4.4708251953125,-0.335693359375
11.0299999,1.534683346748352,9.605537414550781,-0.2561795711517334,-3.1585693359375,2.86865234375,0.1678466796875
11.049999900000001,1.522712230682373,9.641449928283691,-0.3447650372982025,-2.0751953125,4.730224609375,0.396728515625
11.069999900000001,1.5107412338256836,9.660603523254395,-0.4357447028160095,1.220703125,1.15966796875,1.1749267578125
11.0899999,1.5059528350830078,9.66299819946289,-0.4644751250743866,-3.2958984375,1.03759765625,1.4495849609375
11.1099999,1.501164436340332,9.672574996948242,-0.40462008118629456,-0.54931640625,8.575439453125,0.1678466796875
11.129999900000001,1.501164436340332,9.677363395690918,-0.40222588181495667,1.739501953125,-2.3345947265625,0.1068115234375
11.149999900000001,1.5107412338256836,9.653421401977539,-0.395043283700943,1.190185546875,-5.37109375,1.77001953125
11.1699999,1.5155296325683594,9.639056205749512,-0.3734954595565796,-4.33349609375,7.354736328125,-1.0528564453125
11.1899999,1.525106430053711,9.617507934570312,-0.42377370595932007,-4.119873046875,3.509521484375,-3.8604736328125
11.209999900000001,1.534683346748352,9.63187313079834,-0.4429273009300232,-0.091552734375,-1.953125,-1.2969970703125
11.229999900000001,1.5322890281677246,9.682151794433594,-0.3902548849582672,-3.021240234375,4.82177734375,1.800537109375
11.2499999,1.5322890281677246,9.720458984375,-0.3663128614425659,-1.52587890625,3.11279296875,3.3111572265625
11.2699999,1.5322890281677246,9.708487510681152,-0.35913026332855225,0.579833984375,-1.312255859375,2.7618408203125
11.2899999,1.5322890281677246,9.660603523254395,-0.3758896589279175,-1.8157958984375,1.922607421875,0.30517578125
11.309999900000001,1.5322890281677246,9.612719535827637,-0.4165911078453064,-3.6773681640625,6.1492919921875,-2.655029296875
11.3299999,1.53707754611969,9.59596061706543,-0.45010992884635925,-3.5247802734375,5.401611328125,-2.3651123046875
11.3499999,1.5275006294250488,9.636661529541016,-0.3998316824436188,-3.8909912109375,5.035400390625,-1.190185546875
11.3699999,1.534683346748352,9.677363395690918,-0.33758243918418884,-2.5787353515625,1.251220703125,2.01416015625
11.389999900000001,1.534683346748352,9.694122314453125,-0.2753331959247589,-0.7171630859375,0.7781982421875,2.99072265625
11.4099999,1.5442601442337036,9.648633003234863,-0.2777273952960968,0.67138671875,2.44140625,0.0152587890625
11.4299999,1.5418659448623657,9.615114212036133,-0.31124621629714966,-2.9296875,4.5166015625,-4.94384765625
11.4499999,1.534683346748352,9.59596061706543,-0.304063618183136,-5.157470703125,7.2174072265625,-3.326416015625
11.469999900000001,1.5298948287963867,9.581595420837402,-0.2753331959247589,1.1138916015625,4.180908203125,2.50244140625
11.4899999,1.5322890281677246,9.567230224609375,-0.23702596127986908,-5.645751953125,-1.4801025390625,-0.030517578125
11.5099999,1.53707754611969,9.564835548400879,-0.16519992053508759,-24.4903564453125,1.64794921875,-7.720947265625
11.5299999,1.534683346748352,9.579200744628906,-0.1364694982767105,-16.0980224609375,3.2501220703125,-7.415771484375
11.549999900000001,1.5275006294250488,9.622296333312988,-0.08858546614646912,-10.0860595703125,0.640869140625,-0.6256103515625
11.569999900000001,1.5083470344543457,9.682151794433594,-0.014365210197865963,-7.6904296875,1.5869140625,-1.2054443359375
11.5899999,1.4915876388549805,9.720458984375,0.05027823522686958,-6.5460205078125,0.030517578125,-5.1422119140625
11.6099999,1.4748282432556152,9.730035781860352,0.07661445438861847,-1.77001953125,-1.953125,-3.7078857421875
11.629999900000001,1.4628572463989258,9.730035781860352,0.090979665517807,1.220703125,0.3204345703125,-0.213623046875
11.649999900000001,1.4484920501708984,9.730035781860352,0.07182604819536209,1.9378662109375,0.8697509765625,-0.5645751953125
11.6699999,1.4437036514282227,9.720458984375,0.031124621629714966,1.983642578125,-0.0457763671875,-2.0599365234375
11.6899999,1.434126853942871,9.720458984375,0,0.79345703125,0.1068115234375,-1.64794921875
11.709999900000001,1.4389152526855469,9.713275909423828,-0.023942016065120697,4.1046142578125,1.373291015625,1.03759765625
11.729999900000001,1.4293384552001953,9.725247383117676,-0.05506663769483566,3.4027099609375,-0.30517578125,0.9002685546875
11.7499999,1.4269442558288574,9.734824180603027,-0.08379705995321274,0.4730224609375,-0.732421875,-0.3662109375
11.7699999,1.4317326545715332,9.703699111938477,-0.08379705995321274,1.7852783203125,3.4027099609375,1.800537109375
11.7899999,1.436521053314209,9.672574996948242,-0.11013327538967133,3.5552978515625,0.8392333984375,0.91552734375
11.809999900000001,1.4413094520568848,9.648633003234863,-0.09576806426048279,-0.0762939453125,0.48828125,-1.6021728515625
11.8299999,1.4508862495422363,9.593565940856934,-0.07900865375995636,-0.0457763671875,3.5858154296875,1.6937255859375
11.8499999,1.455674648284912,9.588777542114258,-0.05746084079146385,1.861572265625,0.91552734375,0.30517578125
11.8699999,1.4460978507995605,9.600749015808105,-0.038307227194309235,0.6561279296875,-1.312255859375,-3.0364990234375
11.889999900000001,1.4484920501708984,9.600749015808105,-0.05506663769483566,2.410888671875,-1.46484375,-0.1373291015625
11.9099999,1.4389152526855469,9.63187313079834,-0.0694318488240242,1.9073486328125,2.1820068359375,0.0152587890625
11.9299999,1.4293384552001953,9.658209800720215,-0.11971008777618408,1.6326904296875,2.105712890625,-0.6866455078125
11.9499999,1.4245500564575195,9.667786598205566,-0.13407529890537262,0.579833984375,0.8697509765625,0.79345703125
11.969999900000001,1.4269442558288574,9.655815124511719,-0.13407529890537262,0.1373291015625,1.1138916015625,0.4425048828125
11.9899999,1.4245500564575195,9.66299819946289,-0.14844051003456116,0.79345703125,-0.9918212890625,-2.6397705078125
12.0099999,1.4293384552001953,9.670180320739746,-0.16519992053508759,-2.288818359375,-0.1373291015625,-2.50244140625
12.0299999,1.436521053314209,9.68694019317627,-0.16759411990642548,-1.28173828125,3.9215087890625,0.7781982421875
12.049999900000001,1.434126853942871,9.734824180603027,-0.16519992053508759,-1.556396484375,1.8157958984375,0.0457763671875
12.069999900000001,1.4293384552001953,9.749189376831055,-0.1412578970193863,1.617431640625,0.0762939453125,0.2288818359375
12.0899999,1.4293384552001953,9.732429504394531,-0.1412578970193863,0.7476806640625,0.1220703125,1.3580322265625
12.1099999,1.4197616577148438,9.715670585632324,-0.15083470940589905,-1.983642578125,2.593994140625,-0.9765625
12.129999900000001,1.414973258972168,9.6989107131958,-0.16998831927776337,-1.708984375,4.45556640625,-1.5411376953125
12.149999900000001,1.414973258972168,9.691728591918945,-0.1843535304069519,-0.30517578125,2.960205078125,0.8697509765625
12.1699999,1.414973258972168,9.706093788146973,-0.16519992053508759,-3.0670166015625,4.791259765625,1.373291015625
12.1899999,1.4293384552001953,9.696516990661621,-0.08619125932455063,-2.3956298828125,6.2103271484375,1.4495849609375
12.209999900000001,1.434126853942871,9.715670585632324,-0.05506663769483566,2.288818359375,-0.244140625,-0.518798828125
12.229999900000001,1.4413094520568848,9.713275909423828,-0.004788403399288654,-1.373291015625,-1.739501953125,0.5950927734375
12.2499999,1.4389152526855469,9.696516990661621,0.038307227194309235,-0.701904296875,6.256103515625,3.265380859375
12.2699999,1.4293384552001953,9.677363395690918,-0.0454898327589035,1.7852783203125,-1.800537109375,0.732421875
12.289999900000002,1.4221558570861816,9.639056205749512,-0.07422025501728058,-2.777099609375,2.0294189453125,-0.4730224609375
12.309999900000001,1.4197616577148438,9.59835433959961,-0.09576806426048279,-3.4027099609375,10.4217529296875,0.8544921875
12.3299999,1.4317326545715332,9.5624418258667,-0.090979665517807,-1.739501953125,3.5400390625,0.8392333984375
12.3499999,1.436521053314209,9.57441234588623,-0.016759412363171577,-0.30517578125,-0.7171630859375,-3.41796875
12.3699999,1.4508862495422363,9.586383819580078,0.0454898327589035,0.2899169921875,-1.0986328125,-2.5177001953125
12.389999900000001,1.4460978507995605,9.624691009521484,0.06703764945268631,1.2054443359375,0.9002685546875,1.03759765625
12.4099999,1.4413094520568848,9.648633003234863,0.002394201699644327,1.0986328125,-0.6256103515625,0.946044921875
12.4299999,1.436521053314209,9.641449928283691,-0.0454898327589035,-1.9378662109375,3.2958984375,-0.9613037109375
12.4499999,1.436521053314209,9.615114212036133,-0.09576806426048279,-0.946044921875,5.55419921875,-2.2430419921875
12.469999900000001,1.434126853942871,9.607931137084961,-0.0933738648891449,-1.739501953125,2.5634765625,-2.62451171875
12.4899999,1.4317326545715332,9.619902610778809,-0.038307227194309235,-0.7171630859375,1.983642578125,-1.15966796875
12.5099999,1.4269442558288574,9.636661529541016,0,0.274658203125,-0.0457763671875,0.3814697265625
12.5299999,1.4245500564575195,9.636661529541016,0.004788403399288654,-0.5340576171875,0.244140625,0.030517578125
12.549999900000001,1.4221558570861816,9.639056205749512,-0.002394201699644327,-1.8463134765625,3.5400390625,-2.7008056640625
12.569999900000001,1.4245500564575195,9.660603523254395,-0.004788403399288654,-0.9307861328125,3.753662109375,-2.7008056640625
12.5899999,1.4245500564575195,9.703699111938477,0,1.0986328125,-0.1983642578125,0.42724609375
12.6099999,1.4269442558288574,9.734824180603027,0.014365210197865963,2.0904541015625,-1.5411376953125,2.410888671875
12.629999900000001,1.4221558570861816,9.758766174316406,-0.019153613597154617,1.1444091796875,-0.2899169921875,-0.1373291015625
12.649999900000001,1.4197616577148438,9.746794700622559,-0.08619125932455063,-0.823974609375,1.800537109375,-1.4495849609375
12.6699999,1.41257905960083,9.737217903137207,-0.1364694982767105,-1.312255859375,5.0201416015625,-0.1678466796875
12.6899999,1.41257905960083,9.715670585632324,-0.14365209639072418,-1.8310546875,4.4403076171875,1.068115234375
12.709999900000001,1.4221558570861816,9.6989107131958,-0.090979665517807,-0.885009765625,1.8157958984375,-0.1068115234375
12.729999900000001,1.4245500564575195,9.706093788146973,-0.026336219161748886,0.335693359375,-0.2288818359375,-1.9073486328125
12.7499999,1.4293384552001953,9.706093788146973,-0.011971008032560349,0.732421875,-1.7242431640625,1.03759765625
12.7699999,1.414973258972168,9.713275909423828,-0.043095629662275314,0.9918212890625,2.2430419921875,3.021240234375
12.789999900000002,1.414973258972168,9.68694019317627,-0.07900865375995636,-1.617431640625,5.584716796875,0.91552734375
12.809999900000001,1.4053963422775269,9.66539192199707,-0.08858546614646912,-1.3885498046875,3.9825439453125,-2.8839111328125
12.8299999,1.41257905960083,9.624691009521484,-0.06703764945268631,0.7476806640625,-1.03759765625,-1.2359619140625
12.8499999,1.4077905416488647,9.617507934570312,-0.05027823522686958,2.0599365234375,-0.030517578125,1.434326171875
12.8699999,1.403002142906189,9.627084732055664,-0.05267243832349777,-1.0986328125,2.99072265625,-0.030517578125
12.889999900000001,1.400607943534851,9.63187313079834,-0.0694318488240242,-1.5869140625,5.31005859375,-0.732421875
12.9099999,1.400607943534851,9.634267807006836,-0.0454898327589035,0.2288818359375,3.9520263671875,0.1678466796875
12.9299999,1.4077905416488647,9.641449928283691,-0.0071826050989329815,0.885009765625,0.9307861328125,0.0152587890625
12.9499999,1.4101848602294922,9.655815124511719,0.031124621629714966,0.06103515625,-0.2288818359375,-0.335693359375
12.969999900000001,1.4173674583435059,9.655815124511719,0.040701430290937424,-0.457763671875,1.9073486328125,0.274658203125
12.9899999,1.414973258972168,9.658209800720215,0.031124621629714966,0.457763671875,2.7923583984375,0.1068115234375
13.0099999,1.4077905416488647,9.651026725769043,0.019153613597154617,0.946044921875,2.0599365234375,-0.3814697265625
13.0299999,1.403002142906189,9.627084732055664,0.004788403399288654,-0.244140625,0.946044921875,-0.518798828125
13.049999900000001,1.3982137441635132,9.600749015808105,-0.004788403399288654,-1.64794921875,1.5869140625,-0.7476806640625
13.069999900000001,1.403002142906189,9.591172218322754,-0.021547814831137657,-2.7923583984375,2.5482177734375,-2.2735595703125
13.0899999,1.41257905960083,9.610325813293457,-0.026336219161748886,-1.922607421875,3.47900390625,-2.0751953125
13.1099999,1.4173674583435059,9.655815124511719,0.0071826050989329815,-2.5634765625,3.2806396484375,0.1678466796875
13.129999900000001,1.4173674583435059,9.701305389404297,0.038307227194309235,1.9989013671875,1.983642578125,1.861572265625
13.149999900000001,1.4077905416488647,9.715670585632324,0.05267243832349777,0.91552734375,-0.8392333984375,1.15966796875
13.1699999,1.3982137441635132,9.701305389404297,0.026336219161748886,-0.5035400390625,0.823974609375,-1.373291015625
13.1899999,1.3886369466781616,9.703699111938477,-0.023942016065120697,-1.5411376953125,3.387451171875,-3.4942626953125
13.209999900000001,1.37906014919281,9.744400978088379,-0.06224924325942993,-0.91552734375,3.3111572265625,-2.13623046875
13.229999900000001,1.37906014919281,9.797073364257812,-0.05027823522686958,1.8463134765625,2.0294189453125,1.922607421875
13.2499999,1.3766659498214722,9.821015357971191,-0.023942016065120697,4.9591064453125,-0.30517578125,2.8228759765625
13.2699999,1.3862427473068237,9.801861763000488,-0.019153613597154617,1.678466796875,-2.01416015625,-0.6103515625
13.289999900000002,1.3886369466781616,9.775525093078613,-0.021547814831137657,-2.3040771484375,1.03759765625,-3.2196044921875
13.309999900000001,1.3934253454208374,9.75637149810791,-0.05267243832349777,0.3662109375,2.5177001953125,0.1068115234375
13.3299999,1.3886369466781616,9.765948295593262,-0.08619125932455063,2.9296875,-0.06103515625,2.6702880859375
13.3499999,1.3886369466781616,9.75637149810791,-0.10534487664699554,0.3662109375,1.3427734375,2.1514892578125
13.3699999,1.3934253454208374,9.708487510681152,-0.10773907601833344,-0.6256103515625,3.5247802734375,1.0986328125
13.389999900000001,1.3982137441635132,9.646238327026367,-0.10773907601833344,-1.4190673828125,1.4801025390625,-0.3662109375
13.4099999,1.4077905416488647,9.591172218322754,-0.090979665517807,0.1373291015625,0.762939453125,-0.1678466796875
13.4299999,1.4101848602294922,9.583989143371582,-0.05985504388809204,-0.9613037109375,2.349853515625,-0.640869140625
13.4499999,1.414973258972168,9.607931137084961,-0.043095629662275314,-0.457763671875,2.471923828125,0.3509521484375
13.469999900000001,1.4197616577148438,9.648633003234863,-0.009576806798577309,0.0457763671875,1.77001953125,1.6021728515625
13.4899999,1.4221558570861816,9.68694019317627,0.011971008032560349,-0.67138671875,2.0294189453125,1.7852783203125
13.5099999,1.4293384552001953,9.670180320739746,0.05027823522686958,-1.0223388671875,1.7852783203125,2.349853515625
13.5299999,1.4245500564575195,9.646238327026367,0.043095629662275314,0.91552734375,0.1068115234375,-0.213623046875
13.549999900000001,1.4197616577148438,9.603142738342285,0.0071826050989329815,-2.9144287109375,-0.946044921875,-1.373291015625
13.569999900000001,1.414973258972168,9.57201862335205,0,-3.0517578125,6.134033203125,-0.244140625
13.5899999,1.4053963422775269,9.586383819580078,-0.043095629662275314,-2.4261474609375,2.3651123046875,-1.190185546875
13.6099999,1.41257905960083,9.605537414550781,-0.0071826050989329815,-2.7313232421875,0.335693359375,-0.335693359375
13.629999900000001,1.414973258972168,9.653421401977539,0.033518824726343155,1.0223388671875,2.349853515625,0.0457763671875
13.649999900000001,1.4245500564575195,9.691728591918945,0.05506663769483566,-0.30517578125,-1.495361328125,0.6256103515625
13.6699999,1.4317326545715332,9.710882186889648,0.043095629662275314,0.152587890625,-0.6866455078125,1.03759765625
13.6899999,1.4317326545715332,9.727641105651855,0.004788403399288654,-2.655029296875,1.1138916015625,-0.885009765625
13.709999900000001,1.4317326545715332,9.715670585632324,-0.043095629662275314,-2.166748046875,2.960205078125,-0.4425048828125
13.729999900000001,1.4293384552001953,9.703699111938477,-0.08140286058187485,-1.15966796875,0.9002685546875,0.823974609375
13.7499999,1.4269442558288574,9.691728591918945,-0.07900865375995636,-0.7476806640625,2.8228759765625,0.640869140625
13.7699999,1.4269442558288574,9.672574996948242,-0.0694318488240242,-0.9002685546875,1.708984375,0.1068115234375
13.789999900000002,1.4317326545715332,9.641449928283691,-0.038307227194309235,-1.0528564453125,2.2430419921875,0.79345703125
13.809999900000001,1.4389152526855469,9.617507934570312,-0.011971008032560349,-0.9765625,1.28173828125,0.030517578125
13.8299999,1.4413094520568848,9.627084732055664,0,-1.4190673828125,0.5645751953125,-2.2735595703125
13.8499999,1.4413094520568848,9.643844604492188,0.002394201699644327,-1.52587890625,1.52587890625,-0.579833984375
13.8699999,1.4389152526855469,9.667786598205566,-0.002394201699644327,0.152587890625,3.173828125,1.922607421875
13.889999900000001,1.4293384552001953,9.674968719482422,-0.021547814831137657,0.6103515625,1.6937255859375,0.8392333984375
13.9099999,1.4293384552001953,9.658209800720215,-0.023942016065120697,-0.8544921875,1.9073486328125,-1.2054443359375
13.9299999,1.4269442558288574,9.646238327026367,-0.023942016065120697,-0.7476806640625,2.8533935546875,-1.77001953125
13.9499999,1.4269442558288574,9.653421401977539,-0.009576806798577309,0.48828125,2.5482177734375,-0.5645751953125
13.969999900000001,1.4221558570861816,9.682151794433594,0.038307227194309235,-1.068115234375,2.6397705078125,-0.335693359375
13.9899999,1.4221558570861816,9.701305389404297,0.07661445438861847,1.1138916015625,1.1444091796875,0.1678466796875
14.0099999,1.414973258972168,9.720458984375,0.08379705995321274,0.823974609375,-1.8768310546875,-0.9002685546875
14.0299999,1.4101848602294922,9.734824180603027,0.08619125932455063,0.54931640625,1.9378662109375,-0.4730224609375
14.049999900000001,1.4101848602294922,9.739612579345703,0.047884032130241394,1.77001953125,1.9683837890625,0.9307861328125
14.069999900000001,1.4101848602294922,9.734824180603027,0.014365210197865963,0.06103515625,0.244140625,1.89208984375
14.0899999,1.4173674583435059,9.68694019317627,0.002394201699644327,-0.6561279296875,3.0975341796875,2.3956298828125
14.1099999,1.4245500564575195,9.624691009521484,0.023942016065120697,-2.3193359375,4.39453125,0.213623046875
14.129999900000001,1.4317326545715332,9.550470352172852,0.08140286058187485,0.579833984375,2.685546875,-0.9765625
14.149999900000001,1.4269442558288574,9.519346237182617,0.12689268589019775,0.7171630859375,-2.8839111328125,-1.64794921875
14.1699999,1.4245500564575195,9.512163162231445,0.14365209639072418,-1.03759765625,-1.46484375,0.244140625
14.1899999,1.4173674583435059,9.53849983215332,0.12928688526153564,-1.1138916015625,3.60107421875,0.7476806640625
14.209999900000001,1.41257905960083,9.576807022094727,0.090979665517807,-0.8087158203125,3.35693359375,-0.30517578125
14.229999900000001,1.414973258972168,9.610325813293457,0.06464344263076782,-0.8392333984375,-0.6561279296875,-0.030517578125
14.2499999,1.4173674583435059,9.63187313079834,0.05027823522686958,-1.28173828125,0.213623046875,0.54931640625
14.2699999,1.4269442558288574,9.655815124511719,0.009576806798577309,-2.5634765625,0.67138671875,-0.518798828125
14.289999900000002,1.4317326545715332,9.694122314453125,-0.026336219161748886,-2.7923583984375,3.3111572265625,-2.1514892578125
14.309999900000001,1.4413094520568848,9.742006301879883,-0.014365210197865963,-2.9144287109375,4.3487548828125,-0.79345703125
14.3299999,1.4484920501708984,9.775525093078613,0.014365210197865963,2.50244140625,1.7242431640625,2.2735595703125
14.3499999,1.4508862495422363,9.799467086791992,0.035913024097681046,1.6937255859375,-3.509521484375,0.6866455078125
14.3699999,1.4508862495422363,9.799467086791992,0.043095629662275314,-1.5106201171875,1.03759765625,-1.9683837890625
14.389999900000001,1.4437036514282227,9.78989028930664,0.023942016065120697,-2.4261474609375,5.1727294921875,-0.79345703125
14.4099999,1.434126853942871,9.775525093078613,0.026336219161748886,1.0833740234375,3.0364990234375,1.4190673828125
14.4299999,1.4245500564575195,9.765948295593262,0.028730420395731926,2.2735595703125,-1.5106201171875,1.251220703125
14.4499999,1.4221558570861816,9.739612579345703,0.05985504388809204,-0.3204345703125,0.3509521484375,0.6103515625
14.469999900000001,1.4173674583435059,9.713275909423828,0.08140286058187485,-0.06103515625,3.7841796875,1.4495849609375
14.4899999,1.4173674583435059,9.667786598205566,0.0694318488240242,1.9073486328125,0.1068115234375,2.716064453125
14.5099999,1.41257905960083,9.624691009521484,0.08619125932455063,0.1373291015625,0.3662109375,1.15966796875
14.5299999,1.41257905960083,9.557653427124023,0.07900865375995636,0.54931640625,2.3956298828125,-0.0152587890625
14.549999900000001,1.4173674583435059,9.50737476348877,0.07422025501728058,1.1138916015625,1.3427734375,-1.5411376953125
14.569999900000001,1.4173674583435059,9.500192642211914,0.07900865375995636,-0.030517578125,1.03759765625,-2.532958984375
14.5899999,1.4269442558288574,9.502586364746094,0.090979665517807,0,0.823974609375,0.0762939453125
14.6099999,1.4245500564575195,9.545681953430176,0.10295066982507706,1.5869140625,1.03759765625,-1.3275146484375
14.629999900000001,1.4173674583435059,9.593565940856934,0.10055647045373917,0.4119873046875,0.823974609375,-2.532958984375
14.649999900000001,1.4101848602294922,9.610325813293457,0.08140286058187485,1.77001953125,0.732421875,0.8087158203125
14.6699999,1.403002142906189,9.624691009521484,0.06224924325942993,0.0762939453125,1.861572265625,0.3509521484375
14.6899999,1.4053963422775269,9.624691009521484,0.038307227194309235,-2.2125244140625,1.0833740234375,-2.2430419921875
14.709999900000001,1.41257905960083,9.624691009521484,0.023942016065120697,-1.3580322265625,0.7476806640625,-2.044677734375
14.729999900000001,1.4197616577148438,9.641449928283691,0.014365210197865963,0.0457763671875,1.3275146484375,-0.701904296875
14.7499999,1.4197616577148438,9.667786598205566,0.021547814831137657,-1.5411376953125,2.7618408203125,-0.1220703125
14.7699999,1.4221558570861816,9.672574996948242,0.0454898327589035,-1.983642578125,2.0904541015625,-0.091552734375
14.789999900000002,1.4245500564575195,9.68694019317627,0.05746084079146385,0.2899169921875,-0.885009765625,-1.8157958984375
14.809999900000001,1.4197616577148438,9.715670585632324,0.06464344263076782,-1.3275146484375,-0.06103515625,-3.0059814453125
14.8299999,1.414973258972168,9.758766174316406,0.0454898327589035,-2.01416015625,1.77001953125,-0.7171630859375
14.8499999,1.400607943534851,9.813833236694336,-0.004788403399288654,-0.91552734375,1.190185546875,0.6561279296875
14.8699999,1.3910311460494995,9.840168952941895,-0.038307227194309235,-0.5340576171875,1.64794921875,0.67138671875
14.889999900000001,1.3886369466781616,9.830592155456543,-0.0454898327589035,-0.1068115234375,3.90625,0.2288818359375
14.9099999,1.3934253454208374,9.792284965515137,-0.023942016065120697,0.4730224609375,2.62451171875,-0.1373291015625
14.9299999,1.3934253454208374,9.768342971801758,0.016759412363171577,0.1220703125,0.2288818359375,-0.91552734375
14.9499999,1.3958195447921753,9.739612579345703,0.040701430290937424,0.2899169921875,-0.4119873046875,0.701904296875
14.969999900000001,1.3982137441635132,9.72285270690918,0.031124621629714966,0.213623046875,1.8463134765625,1.556396484375
14.9899999,1.3982137441635132,9.713275909423828,0.033518824726343155,-1.4801025390625,4.7607421875,0
15.0099999,1.403002142906189,9.684545516967773,0.047884032130241394,1.1138916015625,4.3487548828125,0.5950927734375
15.0299999,1.403002142906189,9.655815124511719,0.08379705995321274,1.1444091796875,0.152587890625,1.5106201171875
15.049999900000001,1.400607943534851,9.615114212036133,0.12449848651885986,-1.2054443359375,-0.274658203125,0.6103515625
15.069999900000001,1.3958195447921753,9.586383819580078,0.13407529890537262,0.0457763671875,2.6092529296875,-0.54931640625
15.0899999,1.3958195447921753,9.57201862335205,0.12928688526153564,-1.190185546875,1.800537109375,-0.457763671875
15.1099999,1.3910311460494995,9.560047149658203,0.12449848651885986,1.220703125,2.62451171875,1.1749267578125
15.129999900000001,1.3862427473068237,9.564835548400879,0.09816227108240128,-0.1678466796875,-0.1068115234375,-0.2593994140625
15.149999900000001,1.3910311460494995,9.536105155944824,0.10534487664699554,-1.28173828125,3.0975341796875,-0.6256103515625
15.1699999,1.3886369466781616,9.53849983215332,0.07422025501728058,-1.03759765625,1.678466796875,-2.2125244140625
15.1899999,1.3886369466781616,9.567230224609375,0.08619125932455063,-4.1046142578125,2.105712890625,-3.0517578125
15.209999900000001,1.3886369466781616,9.603142738342285,0.12689268589019775,-0.9002685546875,3.6163330078125,0.18310546875
15.229999900000001,1.3910311460494995,9.651026725769043,0.15562310814857483,3.173828125,-0.1983642578125,0.6103515625
15.2499999,1.3982137441635132,9.677363395690918,0.1843535304069519,0.6866455078125,-2.410888671875,-1.5869140625
15.2699999,1.4053963422775269,9.715670585632324,0.1867477297782898,-1.922607421875,-0.1678466796875,-2.7618408203125
15.289999900000002,1.4077905416488647,9.746794700622559,0.1388636976480484,-1.3275146484375,-0.8544921875,-0.18310546875
15.309999900000001,1.403002142906189,9.770736694335938,0.06703764945268631,1.312255859375,-1.5411376953125,1.1444091796875
15.3299999,1.3886369466781616,9.792284965515137,0.016759412363171577,-0.2593994140625,2.7313232421875,-1.5106201171875
15.3499999,1.37906014919281,9.768342971801758,-0.0071826050989329815,-0.579833984375,3.2501220703125,-0.91552734375
15.3699999,1.3766659498214722,9.739612579345703,0.014365210197865963,-0.5950927734375,-0.3204345703125,0.396728515625
15.389999900000001,1.3718775510787964,9.734824180603027,0.05027823522686958,1.2664794921875,-1.4190673828125,-1.373291015625
15.4099999,1.3670891523361206,9.742006301879883,0.06224924325942993,-0.5950927734375,-0.9613037109375,-1.5869140625
15.4299999,1.3670891523361206,9.730035781860352,0.038307227194309235,-0.2288818359375,2.227783203125,2.50244140625
15.4499999,1.3646949529647827,9.706093788146973,0.011971008032560349,-0.732421875,3.6468505859375,2.3651123046875
15.469999900000001,1.3718775510787964,9.655815124511719,0.038307227194309235,-1.7547607421875,3.90625,-1.2664794921875
15.4899999,1.37906014919281,9.612719535827637,0.07661445438861847,2.0599365234375,0.06103515625,-2.3193359375
15.5099999,1.3742717504501343,9.63187313079834,0.12689268589019775,-0.1068115234375,-2.105712890625,-1.678466796875
15.5299999,1.3766659498214722,9.641449928283691,0.15083470940589905,-0.2899169921875,0.91552734375,3.082275390625
15.549999900000001,1.3718775510787964,9.66299819946289,0.13168109953403473,1.52587890625,1.46484375,1.6937255859375
15.569999900000001,1.3718775510787964,9.648633003234863,0.09816227108240128,-0.1220703125,0.1068115234375,-1.5869140625
15.5899999,1.381454348564148,9.619902610778809,0.07422025501728058,0.9613037109375,1.983642578125,-1.0986328125
15.6099999,1.3862427473068237,9.634267807006836,0.05985504388809204,-1.1749267578125,1.3885498046875,-0.8697509765625
15.629999900000001,1.3886369466781616,9.658209800720215,0.05027823522686958,-0.42724609375,0.396728515625,0.6866455078125
15.649999900000001,1.400607943534851,9.66539192199707,0.0454898327589035,0.823974609375,0.579833984375,2.0599365234375
15.6699999,1.3958195447921753,9.682151794433594,0.05506663769483566,-0.3662109375,2.532958984375,-1.617431640625
15.6899999,1.3982137441635132,9.682151794433594,0.05746084079146385,-0.91552734375,1.3427734375,-1.495361328125
15.709999900000001,1.3934253454208374,9.677363395690918,0.0694318488240242,0.396728515625,0.213623046875,1.6021728515625
15.729999900000001,1.3862427473068237,9.696516990661621,0.07900865375995636,0.1983642578125,0.5950927734375,0.1678466796875
15.7499999,1.381454348564148,9.706093788146973,0.07422025501728058,-0.42724609375,0.5035400390625,-1.1749267578125
15.7699999,1.381454348564148,9.718064308166504,0.05985504388809204,1.8768310546875,1.2054443359375,0.5645751953125
15.789999900000002,1.381454348564148,9.746794700622559,0.0454898327589035,-0.244140625,1.1444091796875,0.640869140625
15.809999900000001,1.3862427473068237,9.775525093078613,0.05746084079146385,-1.2054443359375,2.0904541015625,1.1444091796875
15.8299999,1.3934253454208374,9.81143856048584,0.10534487664699554,1.5716552734375,1.2359619140625,2.1209716796875
15.8499999,1.4077905416488647,9.892841339111328,0.2106897532939911,0.579833984375,-3.60107421875,3.9215087890625
15.869999900000002,1.4413094520568848,10.041281700134277,0.3663128614425659,-6.134033203125,-9.1552734375,10.1318359375
15.889999900000001,1.4772224426269531,10.426748275756836,0.5602431893348694,-25.543212890625,-18.8751220703125,21.514892578125
15.9099999,1.479616641998291,11.094730377197266,0.6153098344802856,-39.55078125,-29.327392578125,48.675537109375
15.9299999,1.4676456451416016,11.84650993347168,0.5410895943641663,-24.2767333984375,-20.477294921875,104.339599609375
15.9499999,1.436521053314209,12.492944717407227,0.3758896589279175,-30.0140380859375,-9.124755859375,150.115966796875
15.969999900000001,1.50355863571167,12.665327072143555,-0.06703764945268631,-5.1727294921875,-16.9830322265625,169.8455810546875
15.9899999,1.6735470294952393,12.370840072631836,-0.4213795065879822,24.1241455078125,5.6915283203125,173.76708984375
16.0099999,1.9776105880737305,11.552022933959961,-0.5746083855628967,42.7093505859375,43.7469482421875,181.549072265625
16.0299999,2.5450363159179688,10.316615104675293,-0.5602431893348694,54.595947265625,35.33935546875,189.63623046875
16.0499999,3.1723172664642334,9.394847869873047,-0.3711012601852417,56.5032958984375,13.519287109375,141.5863037109375
16.0699999,3.751713991165161,8.762778282165527,-0.26815059781074524,59.3109130859375,22.979736328125,127.0904541015625
16.089999900000002,4.383783340454102,8.283937454223633,-0.19632454216480255,80.6121826171875,65.4754638671875,197.5555419921875
16.109999900000002,4.941632270812988,8.018181800842285,-0.26336219906806946,79.4830322265625,65.4754638671875,196.5789794921875
16.1299999,5.415684223175049,7.716512203216553,-0.5003881454467773,71.197509765625,35.5987548828125,138.18359375
16.1499999,5.863399982452393,7.247248649597168,-0.9911994934082031,72.723388671875,49.072265625,141.1590576171875
16.1699999,6.184223175048828,6.739677906036377,-1.702277421951294,73.9288330078125,108.33740234375,185.0433349609375
16.1899999,6.4164605140686035,6.0405707359313965,-2.2649147510528564,56.33544921875,156.7230224609375,181.915283203125
16.2099999,6.648698329925537,4.970362663269043,-2.3511061668395996,42.205810546875,152.6641845703125,133.6517333984375
16.2299999,6.933608055114746,3.6942532062530518,-1.9632453918457031,49.3927001953125,128.35693359375,90.88134765625
16.249999900000002,7.2113356590271,2.518700122833252,-1.37906014919281,48.3551025390625,129.913330078125,67.3980712890625
16.269999900000002,7.333439826965332,1.7286136150360107,-0.7781155705451965,29.23583984375,155.2276611328125,33.0657958984375
16.2899999,7.283161640167236,1.314416766166687,-0.3016694188117981,-2.0599365234375,161.9873046875,-6.134033203125
16.3099999,7.072471618652344,1.137245774269104,0.016759412363171577,-18.157958984375,148.1781005859375,-32.2113037109375
16.3299999,6.641515731811523,1.170764684677124,0.5291185975074768,-40.8477783203125,177.91748046875,-64.8651123046875
16.3499999,6.1770405769348145,1.3694833517074585,0.8619126081466675,-71.1212158203125,188.7054443359375,-102.1728515625
16.3699999,5.544970989227295,2.0207061767578125,1.4939818382263184,-115.234375,186.7523193359375,-136.9171142578125
16.3899999,4.948814868927002,2.96162748336792,2.5522189140319824,-117.1722412109375,217.7581787109375,-118.95751953125
16.4099999,4.405331134796143,3.869029998779297,3.8714241981506348,-66.58935546875,200.927734375,-82.2906494140625
16.429999900000002,4.003105163574219,4.364629745483398,5.370194435119629,-43.39599609375,171.0357666015625,-94.482421875
16.4499999,3.6822822093963623,4.750096321105957,6.555324077606201,-54.4586181640625,152.801513671875,-153.9154052734375
16.4699999,3.3423056602478027,5.190629482269287,7.223306655883789,-71.8536376953125,149.4598388671875,-156.9671630859375
16.4899999,2.9951462745666504,5.679046630859375,7.493851184844971,-33.935546875,177.3223876953125,-77.4993896484375
16.5099999,2.6024973392486572,6.04775333404541,7.709329605102539,-23.345947265625,187.164306640625,-54.0313720703125
16.5299999,2.2002713680267334,5.791574001312256,8.133103370666504,-31.5399169921875,162.1856689453125,-110.137939453125
16.5499999,1.8387469053268433,5.202600479125977,8.504204750061035,1.64794921875,122.0703125,-160.64453125
16.5699999,1.3120225667953491,5.032611846923828,8.702922821044922,10.2386474609375,103.7445068359375,-179.3670654296875
16.589999900000002,0.7661445140838623,5.082890033721924,8.916007041931152,3.4332275390625,134.063720703125,-135.284423828125
16.609999900000002,0.19393034279346466,5.39174222946167,9.028534889221191,49.7589111328125,122.86376953125,-133.880615234375
16.6299999,-0.40222588181495667,5.4875102043151855,9.516951560974121,52.7801513671875,66.6046142578125,-191.9403076171875
16.6499999,-0.9792284965515137,5.355829238891602,10.146626472473145,41.1529541015625,30.70068359375,-216.4306640625
16.6699999,-1.5873557329177856,5.231330871582031,10.690110206604004,44.0521240234375,-2.2125244140625,-219.0704345703125
16.6899999,-2.293645143508911,5.372588634490967,10.924742698669434,70.37353515625,-33.9813232421875,-232.9864501953125
16.7099999,-2.9544448852539062,5.729324817657471,10.733205795288086,90.789794921875,-78.91845703125,-257.32421875
16.7299999,-3.648763418197632,6.380547523498535,10.046070098876953,102.23388671875,-105.8349609375,-249.6337890625
16.749999900000002,-4.146757125854492,7.060500621795654,9.023746490478516,83.8165283203125,-102.081298828125,-202.911376953125
16.769999900000002,-4.575319290161133,7.910442352294922,7.924807548522949,57.8155517578125,-90.8966064453125,-176.849365234375
16.7899999,-4.776432514190674,8.374917984008789,7.060500621795654,61.004638671875,-98.2666015625,-159.1796875
16.8099999,-4.776432514190674,8.683769226074219,6.466738700866699,114.4866943359375,-108.82568359375,-139.862060546875
16.8299999,-4.821922302246094,9.040505409240723,5.95677375793457,109.344482421875,-124.2218017578125,-132.2479248046875
16.8499999,-4.618414878845215,8.829815864562988,6.112396717071533,93.5211181640625,-79.0252685546875,-69.1680908203125
16.8699999,-4.5154643058776855,9.009381294250488,6.196194171905518,119.9493408203125,-96.6796875,-69.183349609375
16.8899999,-4.4292731285095215,9.040505409240723,5.95677375793457,139.678955078125,-179.8858642578125,-77.63671875
16.9099999,-4.156333923339844,8.616731643676758,5.849034786224365,122.86376953125,-102.691650390625,-4.0740966796875
16.929999900000002,-4.039018154144287,8.633491516113281,5.374982833862305,80.56640625,-59.326171875,-25.7568359375
16.9499999,-3.8307228088378906,8.520963668823242,4.800374507904053,98.6785888671875,-109.6649169921875,-42.5872802734375
16.9699999,-3.600879430770874,8.501810073852539,4.659116744995117,129.4708251953125,-105.9722900390625,6.134033203125
16.9899999,-3.445256233215332,8.702922821044922,4.489128112792969,109.55810546875,-78.643798828125,25.6500244140625
17.0099999,-3.227383852005005,8.96389102935791,4.101267337799072,105.77392578125,-81.8939208984375,20.660400390625
17.0299999,-3.043030261993408,9.332598686218262,4.055777549743652,98.5870361328125,-67.230224609375,21.240234375
17.0499999,-2.827552318572998,9.567230224609375,4.010287761688232,117.7520751953125,-66.7724609375,60.2874755859375
17.0699999,-2.6623523235321045,10.070012092590332,3.691859006881714,137.664794921875,-94.2840576171875,78.3843994140625
17.089999900000002,-2.492363929748535,10.460267066955566,3.3662476539611816,107.513427734375,-59.478759765625,85.845947265625
17.109999900000002,-2.2864625453948975,10.723628997802734,2.896984100341797,89.66064453125,-25.970458984375,121.7193603515625
17.1299999,-2.051830768585205,10.896012306213379,2.255337953567505,102.935791015625,-54.0771484375,145.99609375
17.1499999,-1.7357962131500244,10.788272857666016,1.8339585065841675,101.1505126953125,-54.595947265625,156.3262939453125
17.1699999,-1.37906014919281,10.481815338134766,1.3838485479354858,67.5201416015625,-23.223876953125,155.4107666015625
17.1899999,-0.9145850539207458,9.703699111938477,0.7805097699165344,66.253662109375,-18.06640625,159.576416015625
17.2099999,-0.363918662071228,8.595184326171875,0.3256114423274994,75.897216796875,-2.3193359375,146.5606689453125
17.2299999,0.2944868206977844,7.484274387359619,0.028730420395731926,48.5992431640625,14.801025390625,86.334228515625
17.249999900000002,0.8858546018600464,6.627150535583496,-0.09576806426048279,30.2734375,16.6015625,39.3829345703125
17.269999900000002,1.5179238319396973,6.157886981964111,0.17477671802043915,28.9154052734375,33.538818359375,45.6085205078125
17.2899999,1.941697597503662,6.3518171310424805,0.6392518281936646,17.8680419921875,15.9149169921875,27.1148681640625
17.3099999,2.274491548538208,6.737283706665039,1.1516109704971313,16.1590576171875,-15.106201171875,0.2288818359375
17.3299999,2.470816135406494,7.223306655883789,1.6136919260025024,12.7410888671875,-12.420654296875,-10.009765625
17.3499999,2.535459518432617,7.694964408874512,1.6663644313812256,29.754638671875,-12.298583984375,-17.608642578125
17.3699999,2.499546527862549,8.121131896972656,1.4077905416488647,38.6962890625,-16.876220703125,-28.0609130859375
17.3899999,2.3582887649536133,8.609549522399902,0.9672574996948242,26.885986328125,-7.8887939453125,-40.6951904296875
17.409999900000003,2.1811177730560303,9.066842079162598,0.5003881454467773,21.5911865234375,1.953125,-31.646728515625
17.429999900000002,2.013523578643799,9.485827445983887,0.24899697303771973,20.5535888671875,6.89697265625,-17.5018310546875
17.4499999,1.8411411046981812,9.8784761428833,0.1604115068912506,21.1334228515625,-7.50732421875,-26.3214111328125
17.4699999,1.7142484188079834,10.041281700134277,0.16519992053508759,21.91162109375,-15.472412109375,-26.8707275390625
17.4899999,1.6400281190872192,10.04846477508545,0.1843535304069519,19.317626953125,-4.3487548828125,-18.5699462890625
17.5099999,1.5538369417190552,10.065223693847656,0.10055647045373917,16.4031982421875,0.9613037109375,-21.5301513671875
17.5299999,1.50355863571167,10.014945983886719,-0.040701430290937424,16.17431640625,-5.584716796875,-17.39501953125
17.5499999,1.45806884765625,10.038887977600098,-0.0694318488240242,4.608154296875,4.2572021484375,-9.1400146484375
17.5699999,1.3910311460494995,10.108319282531738,-0.035913024097681046,-4.21142578125,7.415771484375,-4.1046142578125
17.589999900000002,1.357512354850769,10.113107681274414,-0.033518824726343155,7.9803466796875,-3.0517578125,4.302978515625
17.609999900000002,1.335964560508728,10.0580415725708,-0.033518824726343155,9.9029541015625,-0.8392333984375,4.94384765625
17.6299999,1.3431471586227417,9.959878921508789,-0.07182604819536209,2.9449462890625,13.5650634765625,1.7547607421875
17.6499999,1.381454348564148,9.81143856048584,-0.20350714027881622,-0.30517578125,10.2386474609375,6.3018798828125
17.6699999,1.4269442558288574,9.710882186889648,-0.20111294090747833,4.94384765625,7.9803466796875,6.89697265625
17.6899999,1.4676456451416016,9.708487510681152,-0.0694318488240242,-0.48828125,10.9100341796875,1.922607421875
17.7099999,1.4963760375976562,9.775525093078613,0.06224924325942993,2.2125244140625,-1.9073486328125,3.6773681640625
17.7299999,1.522712230682373,9.856928825378418,0.2106897532939911,3.8909912109375,-3.997802734375,16.204833984375
17.749999900000002,1.5490485429763794,9.916783332824707,0.24420857429504395,1.5869140625,-0.54931640625,21.148681640625
17.769999900000002,1.577778935432434,9.871294021606445,0.13407529890537262,1.1444091796875,-1.007080078125,18.12744140625
17.7899999,1.6352397203445435,9.694122314453125,-0.08140286058187485,-1.77001953125,3.7078857421875,16.9677734375
17.8099999,1.680729627609253,9.524134635925293,-0.31603461503982544,-4.1046142578125,13.4124755859375,11.7645263671875
17.8299999,1.7381904125213623,9.337387084960938,-0.49799394607543945,-3.0059814453125,18.5089111328125,8.636474609375
17.8499999,1.7836803197860718,9.21288776397705,-0.5602431893348694,1.4190673828125,17.6239013671875,4.4708251953125
17.8699999,1.8148049116134644,9.17697525024414,-0.5027823448181152,3.570556640625,11.871337890625,-3.5552978515625
17.8899999,1.8291701078414917,9.2033109664917,-0.31842881441116333,2.7313232421875,9.27734375,-6.0577392578125
17.909999900000003,1.8267759084701538,9.296685218811035,-0.12210428714752197,5.1422119140625,5.43212890625,-6.5460205078125
17.929999900000002,1.800439715385437,9.44752025604248,-0.05985504388809204,10.1318359375,-5.9661865234375,-8.3465576171875
17.9499999,1.7764976024627686,9.560047149658203,-0.026336219161748886,4.9591064453125,1.5411376953125,-4.913330078125
17.9699999,1.745373010635376,9.672574996948242,-0.0694318488240242,-1.77001953125,9.6588134765625,-4.3792724609375
17.9899999,1.7142484188079834,9.727641105651855,-0.17477671802043915,2.2735595703125,-2.044677734375,-5.218505859375
18.0099999,1.6927006244659424,9.727641105651855,-0.22026655077934265,3.5858154296875,-0.518798828125,-1.64794921875
18.0299999,1.680729627609253,9.684545516967773,-0.21547815203666687,1.678466796875,7.3394775390625,-2.7618408203125
18.0499999,1.680729627609253,9.63187313079834,-0.2059013396501541,3.2958984375,3.997802734375,-5.523681640625
18.0699999,1.6759412288665771,9.624691009521484,-0.181959331035614,6.9580078125,-3.9215087890625,-6.683349609375
18.089999900000002,1.6735470294952393,9.639056205749512,-0.18914192914962769,4.8980712890625,-0.213623046875,-0.8087158203125
18.109999900000002,1.6711528301239014,9.651026725769043,-0.23702596127986908,-0.6256103515625,7.0953369140625,3.0364990234375
18.1299999,1.659181833267212,9.6989107131958,-0.33758243918418884,-2.4261474609375,6.6986083984375,-2.655029296875
18.1499999,1.6519991159439087,9.751583099365234,-0.40940847992897034,-3.8604736328125,5.7830810546875,-3.570556640625
18.1699999,1.644816517829895,9.801861763000488,-0.4429273009300232,-3.6468505859375,10.25390625,6.7901611328125
18.1899999,1.644816517829895,9.84495735168457,-0.363918662071228,-8.7127685546875,17.2576904296875,10.406494140625
18.2099999,1.647210717201233,9.852140426635742,-0.29209262132644653,-6.7138671875,6.622314453125,2.9754638671875
18.2299999,1.6543933153152466,9.794678688049316,-0.20350714027881622,-2.5482177734375,1.1138916015625,1.77001953125
18.249999900000002,1.6950948238372803,9.713275909423828,-0.10773907601833344,-3.692626953125,10.7879638671875,5.2490234375
18.269999900000002,1.7070658206939697,9.694122314453125,-0.0071826050989329815,-5.8135986328125,10.19287109375,-0.091552734375
18.2899999,1.745373010635376,9.651026725769043,0.09576806426048279,-1.28173828125,-0.9918212890625,-1.312255859375
18.3099999,1.7549498081207275,9.648633003234863,0.22505496442317963,2.01416015625,-6.16455078125,-0.1678466796875
18.3299999,1.7573440074920654,9.627084732055664,0.26575639843940735,0.5035400390625,-4.1656494140625,0.2899169921875
18.3499999,1.745373010635376,9.605537414550781,0.1604115068912506,3.997802734375,-4.1961669921875,-0.6103515625
18.3699999,1.7310078144073486,9.581595420837402,0.05746084079146385,2.288818359375,2.838134765625,-2.1209716796875
18.3899999,1.7166426181793213,9.564835548400879,-0.05746084079146385,1.0986328125,2.5177001953125,-0.8087158203125
18.409999900000003,1.6974890232086182,9.557653427124023,-0.11013327538967133,3.6468505859375,-2.8228759765625,-0.1373291015625
18.429999900000002,1.6855180263519287,9.526528358459473,-0.1149216815829277,3.1890869140625,-2.1209716796875,-0.3204345703125
18.4499999,1.680729627609253,9.469067573547363,-0.10534487664699554,0.2593994140625,-0.274658203125,-1.8768310546875
18.4699999,1.678335428237915,9.442731857299805,-0.1173158809542656,1.15966796875,-1.03759765625,-5.615234375
18.4899999,1.678335428237915,9.459490776062012,-0.13407529890537262,2.349853515625,-0.79345703125,-5.0201416015625
18.5099999,1.678335428237915,9.533711433410645,-0.15322890877723694,0.3509521484375,1.495361328125,-0.7476806640625
18.5299999,1.6711528301239014,9.617507934570312,-0.17477671802043915,-0.9918212890625,1.15966796875,0.67138671875
18.5499999,1.6615760326385498,9.677363395690918,-0.21547815203666687,-1.0833740234375,-0.7476806640625,-1.9378662109375
18.5699999,1.6424223184585571,9.696516990661621,-0.26096799969673157,-0.4730224609375,1.64794921875,-3.3721923828125
18.589999900000002,1.6112977266311646,9.6989107131958,-0.33279404044151306,4.0130615234375,7.293701171875,-3.4027099609375
18.609999900000002,1.6065093278884888,9.68694019317627,-0.3734954595565796,11.8408203125,12.176513671875,-2.197265625
18.6299999,1.599326729774475,9.6989107131958,-0.2825157940387726,11.1541748046875,17.63916015625,-3.3111572265625
18.6499999,1.6208745241165161,9.684545516967773,-0.13407529890537262,12.0697021484375,6.591796875,-0.6561279296875
18.6699999,1.6376339197158813,9.658209800720215,0.023942016065120697,16.143798828125,-2.8839111328125,0.7781982421875
18.6899999,1.6496049165725708,9.605537414550781,0.011971008032560349,13.3514404296875,-5.6610107421875,-1.5411376953125
18.7099999,1.647210717201233,9.557653427124023,-0.16759411990642548,4.4097900390625,0.6561279296875,-5.4473876953125
18.7299999,1.644816517829895,9.533711433410645,-0.38067805767059326,2.471923828125,12.7716064453125,-5.9967041015625
18.749999900000002,1.6304513216018677,9.59835433959961,-0.5530605912208557,3.1280517578125,7.598876953125,-5.0201416015625
18.769999900000002,1.6136919260025024,9.68694019317627,-0.5817909836769104,3.631591796875,-1.1444091796875,-1.8310546875
18.7899999,1.599326729774475,9.75397777557373,-0.5051765441894531,1.1138916015625,1.251220703125,1.52587890625
18.8099999,1.5945383310317993,9.761159896850586,-0.48602294921875,4.364013671875,-1.03759765625,-0.48828125
18.8299999,1.5873557329177856,9.72285270690918,-0.47884035110473633,4.364013671875,-0.6561279296875,-4.39453125
18.8499999,1.5873557329177856,9.639056205749512,-0.4908113479614258,1.6937255859375,5.1116943359375,-2.655029296875
18.8699999,1.580173134803772,9.588777542114258,-0.5291185975074768,-0.5340576171875,2.2430419921875,-3.1890869140625
18.8899999,1.5658079385757446,9.588777542114258,-0.5003881454467773,-2.7008056640625,2.4261474609375,-5.3863525390625
18.909999900000003,1.5538369417190552,9.607931137084961,-0.4381389021873474,-0.885009765625,3.0670166015625,-2.38037109375
18.929999900000002,1.5394717454910278,9.667786598205566,-0.38307225704193115,1.4801025390625,-2.4261474609375,-0.3204345703125
18.9499999,1.525106430053711,9.713275909423828,-0.33997663855552673,-1.251220703125,-4.364013671875,0.1220703125
18.9699999,1.5179238319396973,9.708487510681152,-0.3447650372982025,-2.7923583984375,-1.922607421875,0.91552734375
18.9899999,1.5107412338256836,9.674968719482422,-0.40940847992897034,-0.5035400390625,0.0762939453125,-0.5950927734375
19.0099999,1.501164436340332,9.653421401977539,-0.45010992884635925,-2.197265625,2.166748046875,-3.021240234375
19.0299999,1.4963760375976562,9.62947940826416,-0.4836287498474121,-1.312255859375,2.7313232421875,-0.06103515625
19.0499999,1.4915876388549805,9.651026725769043,-0.44771572947502136,-2.197265625,0.9307861328125,0.823974609375
19.0699999,1.4867992401123047,9.670180320739746,-0.40940847992897034,-0.54931640625,-1.6021728515625,-0.335693359375
19.089999900000002,1.4915876388549805,9.651026725769043,-0.395043283700943,0.732421875,-4.058837890625,0.67138671875
19.109999900000002,1.4963760375976562,9.62947940826416,-0.40222588181495667,-0.0457763671875,0.4425048828125,-0.518798828125
19.1299999,1.501164436340332,9.617507934570312,-0.4405331015586853,-0.2593994140625,2.227783203125,-2.13623046875
19.1499999,1.5059528350830078,9.624691009521484,-0.48602294921875,0.48828125,0.42724609375,-0.1983642578125
19.1699999,1.5083470344543457,9.658209800720215,-0.4836287498474121,-1.983642578125,2.01416015625,1.3885498046875
19.1899999,1.5131354331970215,9.682151794433594,-0.4381389021873474,-2.960205078125,3.143310546875,1.2969970703125
19.2099999,1.5179238319396973,9.68933391571045,-0.40940847992897034,0.48828125,-1.7242431640625,-0.18310546875
19.2299999,1.5155296325683594,9.706093788146973,-0.4189853072166443,-0.3662109375,-4.425048828125,-2.2125244140625
19.249999900000002,1.5083470344543457,9.694122314453125,-0.4644751250743866,-1.3427734375,2.9144287109375,0.8697509765625
19.269999900000002,1.501164436340332,9.701305389404297,-0.4908113479614258,-2.9754638671875,7.3699951171875,0.4425048828125
19.2899999,1.4891934394836426,9.710882186889648,-0.47405192255973816,0.30517578125,3.23486328125,-1.983642578125
19.3099999,1.4891934394836426,9.696516990661621,-0.40222588181495667,2.105712890625,-2.9296875,0.640869140625
19.3299999,1.482010841369629,9.66299819946289,-0.3447650372982025,0.946044921875,-1.861572265625,0.732421875
19.3499999,1.479616641998291,9.639056205749512,-0.38307225704193115,-2.0599365234375,1.4495849609375,-1.2664794921875
19.3699999,1.482010841369629,9.617507934570312,-0.4141969084739685,-1.0833740234375,4.6844482421875,-1.007080078125
19.3899999,1.482010841369629,9.624691009521484,-0.43335050344467163,1.2969970703125,-0.1983642578125,-0.18310546875
19.409999900000003,1.482010841369629,9.648633003234863,-0.40940847992897034,0.396728515625,-1.46484375,0.0152587890625
19.429999900000002,1.4844050407409668,9.648633003234863,-0.3902548849582672,0.5645751953125,0.67138671875,1.40380859375
19.4499999,1.4772224426269531,9.639056205749512,-0.4213795065879822,0.823974609375,-0.5950927734375,0.7171630859375
19.4699999,1.479616641998291,9.59596061706543,-0.4381389021873474,-0.1373291015625,2.4261474609375,-0.67138671875
19.4899999,1.4748282432556152,9.555258750915527,-0.45489832758903503,-2.349853515625,3.997802734375,-1.03759765625
19.5099999,1.479616641998291,9.528923034667969,-0.44771572947502136,-2.13623046875,1.861572265625,-0.9613037109375
19.5299999,1.4844050407409668,9.545681953430176,-0.4213795065879822,-2.685546875,0.6103515625,-1.1749267578125
19.5499999,1.4867992401123047,9.586383819580078,-0.395043283700943,-2.7618408203125,0.6256103515625,-0.2899169921875
19.5699999,1.4867992401123047,9.617507934570312,-0.3758896589279175,-2.197265625,0.7476806640625,1.678466796875
19.589999900000002,1.4772224426269531,9.62947940826416,-0.40222588181495667,-0.732421875,-0.4119873046875,-0.1678466796875
19.609999900000002,1.4724340438842773,9.624691009521484,-0.42856210470199585,-1.068115234375,1.6632080078125,-2.0751953125
19.6299999,1.4724340438842773,9.619902610778809,-0.4118026793003082,-2.5177001953125,7.0037841796875,-2.655029296875
19.6499999,1.4748282432556152,9.62947940826416,-0.40462008118629456,0.518798828125,0.213623046875,-1.678466796875
19.6699999,1.479616641998291,9.677363395690918,-0.3663128614425659,1.40380859375,-3.326416015625,-2.1514892578125
19.6899999,1.4748282432556152,9.727641105651855,-0.36152446269989014,0.1678466796875,-0.54931640625,-1.8463134765625
19.7099999,1.4724340438842773,9.765948295593262,-0.4118026793003082,-0.2899169921875,1.9683837890625,0.4730224609375
19.7299999,1.4628572463989258,9.78989028930664,-0.45489832758903503,-1.40380859375,3.0975341796875,-0.8392333984375
19.749999900000002,1.4652514457702637,9.792284965515137,-0.45489832758903503,-0.3509521484375,3.23486328125,-1.6632080078125
19.769999900000002,1.4652514457702637,9.787496566772461,-0.43095630407333374,1.3427734375,0.6103515625,-1.0833740234375
19.7899999,1.4652514457702637,9.77791976928711,-0.4213795065879822,1.5106201171875,-2.74658203125,0.396728515625
19.8099999,1.4652514457702637,9.765948295593262,-0.3998316824436188,-1.3885498046875,2.0294189453125,1.4495849609375
19.8299999,1.45806884765625,9.718064308166504,-0.42856210470199585,0.7171630859375,3.143310546875,1.190185546875
19.8499999,1.4652514457702637,9.648633003234863,-0.49559974670410156,4.0283203125,0.0457763671875,-0.9918212890625
19.8699999,1.4724340438842773,9.636661529541016,-0.45010992884635925,-0.030517578125,7.720947265625,-5.1116943359375
19.8899999,1.4676456451416016,9.708487510681152,-0.3734954595565796,1.495361328125,5.8746337890625,-2.8533935546875
19.909999900000003,1.4772224426269531,9.840168952941895,-0.26575639843940735,10.9710693359375,-9.3841552734375,5.584716796875
19.929999900000002,1.4652514457702637,10.098742485046387,-0.12689268589019775,9.09423828125,-11.7645263671875,7.049560546875
19.9499999,1.4748282432556152,10.390835762023926,-0.10773907601833344,7.568359375,-13.4124755859375,13.5040283203125
19.9699999,1.4987702369689941,10.81700325012207,-0.12928688526153564,4.57763671875,-14.83154296875,30.426025390625
19.9899999,1.5107412338256836,11.307814598083496,-0.06224924325942993,-2.99072265625,-15.3045654296875,55.48095703125
20.0099999,1.6112977266311646,11.726799964904785,-0.05027823522686958,4.6234130859375,-29.2205810546875,89.17236328125
20.0299999,1.6927006244659424,12.1194486618042,-0.08858546614646912,6.9580078125,-36.3922119140625,106.6741943359375
20.0499999,1.8124107122421265,12.169727325439453,-0.26096799969673157,9.58251953125,-24.5819091796875,133.8043212890625
20.0699999,2.027888774871826,11.808202743530273,-0.6368576288223267,29.6783447265625,-11.53564453125,162.4755859375
20.089999900000002,2.2697031497955322,11.262324333190918,-1.400607943534851,68.817138671875,-14.251708984375,151.8707275390625
20.109999900000002,2.557007312774658,10.615890502929688,-2.432508945465088,80.230712890625,15.106201171875,144.2108154296875
20.1299999,2.8610711097717285,10.046070098876953,-3.5410242080688477,80.87158203125,91.6595458984375,172.210693359375
20.1499999,3.162740468978882,9.564835548400879,-4.4532151222229,87.1124267578125,138.97705078125,193.6187744140625
20.1699999,3.4189200401306152,9.121908187866211,-4.917690277099609,82.1075439453125,147.7508544921875,182.2052001953125
20.1899999,3.6846764087677,8.336610794067383,-4.809951305389404,67.8253173828125,170.59326171875,177.30712890625
20.2099999,4.010287761688232,7.113173484802246,-4.211400985717773,68.3746337890625,209.5947265625,183.5174560546875
20.2299999,4.4723687171936035,5.590460777282715,-3.0526070594787598,39.3829345703125,221.160888671875,141.7694091796875
20.249999900000002,4.977545261383057,4.108449935913086,-1.699883222579956,9.58251953125,166.6107177734375,63.3544921875
20.269999900000002,5.521028995513916,2.892195701599121,-0.36152446269989014,4.150390625,128.1585693359375,29.815673828125
20.2899999,6.035782337188721,2.2194249629974365,0.7374141216278076,11.962890625,151.6571044921875,23.895263671875
20.3099999,6.294356346130371,2.205059766769409,1.3431471586227417,-13.153076171875,140.0146484375,-22.2320556640625
20.3299999,6.421248912811279,2.47560453414917,1.764526605606079,-14.4805908203125,120.758056640625,-53.22265625
20.3499999,6.385335922241211,2.9017724990844727,2.1308395862579346,11.5509033203125,123.3978271484375,-61.8896484375
20.3699999,6.203376770019531,3.35667085647583,2.408566951751709,15.228271484375,118.8201904296875,-88.1195068359375
20.3899999,5.875370979309082,3.6774938106536865,2.4899697303771973,-9.124755859375,96.7864990234375,-130.6304931640625
20.409999900000003,5.449203014373779,3.9839515686035156,2.3247697353363037,-9.94873046875,98.4344482421875,-161.407470703125
20.429999900000002,4.912901878356934,4.520252704620361,2.0039467811584473,-13.7786865234375,114.105224609375,-185.4095458984375
20.4499999,4.23773717880249,5.434837818145752,1.7932571172714233,-20.233154296875,136.627197265625,-192.7642822265625
20.4699999,3.622427225112915,6.342240333557129,2.006340980529785,-16.7388916015625,145.172119140625,-167.9229736328125
20.4899999,2.9927520751953125,7.259219646453857,2.801215887069702,-8.8043212890625,131.4544677734375,-173.3245849609375
