# Time (seconds),Accel_X,Accel_Y,Accel_Z,Gyro_X,Gyro_Y,Gyro_Z
0.0099999,-0.24899697303771973,-0.19153612852096558,9.904812812805176,-0.1068115234375,0.1220703125,-0.2288818359375
0.029999900000000003,-0.24899697303771973,-0.19153612852096558,9.909601211547852,-0.091552734375,0.2288818359375,-0.3204345703125
0.0499999,-0.24899697303771973,-0.19393034279346466,9.904812812805176,-0.0762939453125,0.1983642578125,-0.30517578125
0.0699999,-0.24899697303771973,-0.19393034279346466,9.9000244140625,-0.0457763671875,0.1373291015625,-0.3204345703125
0.08999990000000001,-0.24660277366638184,-0.19393034279346466,9.895236015319824,-0.0457763671875,0.152587890625,-0.244140625
0.10999990000000001,-0.24420857429504395,-0.19393034279346466,9.892841339111328,-0.1068115234375,0.1678466796875,-0.2593994140625
0.1299999,-0.24660277366638184,-0.19393034279346466,9.892841339111328,-0.1220703125,0.152587890625,-0.2899169921875
0.14999990000000002,-0.24899697303771973,-0.19393034279346466,9.890447616577148,-0.091552734375,0.1220703125,-0.2288818359375
0.1699999,-0.2513911724090576,-0.19393034279346466,9.892841339111328,-0.1068115234375,0.18310546875,-0.30517578125
0.1899999,-0.2537853717803955,-0.19393034279346466,9.892841339111328,-0.091552734375,0.152587890625,-0.30517578125
0.20999990000000002,-0.2561795711517334,-0.19393034279346466,9.895236015319824,-0.1068115234375,0.06103515625,-0.2288818359375
0.2299999,-0.2561795711517334,-0.19153612852096558,9.892841339111328,-0.091552734375,0.18310546875,-0.2593994140625
0.2499999,-0.2561795711517334,-0.18914192914962769,9.892841339111328,-0.0762939453125,0.2288818359375,-0.2899169921875
0.2699999,-0.2537853717803955,-0.1867477297782898,9.890447616577148,-0.0762939453125,0.1373291015625,-0.244140625
0.28999990000000003,-0.2537853717803955,-0.1867477297782898,9.890447616577148,-0.1068115234375,0.1068115234375,-0.274658203125
0.3099999,-0.24899697303771973,-0.1867477297782898,9.890447616577148,-0.06103515625,0.152587890625,-0.274658203125
0.3299999,-0.24899697303771973,-0.1867477297782898,9.892841339111328,-0.1220703125,0.18310546875,-0.274658203125
0.34999990000000003,-0.24660277366638184,-0.18914192914962769,9.892841339111328,-0.091552734375,0.18310546875,-0.244140625
0.3699999,-0.24420857429504395,-0.18914192914962769,9.890447616577148,-0.06103515625,0.1220703125,-0.2899169921875
0.3899999,-0.24420857429504395,-0.18914192914962769,9.890447616577148,-0.0457763671875,0.1678466796875,-0.3662109375
0.40999990000000003,-0.24420857429504395,-0.18914192914962769,9.890447616577148,-0.1220703125,0.213623046875,-0.30517578125
0.4299999,-0.24420857429504395,-0.1867477297782898,9.890447616577148,-0.0762939453125,0.2288818359375,-0.30517578125
0.4499999,-0.24660277366638184,-0.1843535304069519,9.890447616577148,-0.0457763671875,0.1373291015625,-0.274658203125
0.4699999,-0.24660277366638184,-0.181959331035614,9.890447616577148,-0.0762939453125,0.091552734375,-0.244140625
0.4899999,-0.24660277366638184,-0.181959331035614,9.890447616577148,0,0.18310546875,-0.244140625
0.5099999,-0.24899697303771973,-0.1843535304069519,9.890447616577148,-0.091552734375,0.152587890625,-0.2593994140625
0.5299999,-0.2513911724090576,-0.1843535304069519,9.890447616577148,-0.0762939453125,0.1068115234375,-0.2899169921875
0.5499999,-0.2537853717803955,-0.1867477297782898,9.892841339111328,-0.0457763671875,0.1068115234375,-0.2593994140625
0.5699999,-0.2513911724090576,-0.18914192914962769,9.892841339111328,-0.0762939453125,0.1220703125,-0.244140625
0.5899998999999999,-0.24660277366638184,-0.18914192914962769,9.895236015319824,-0.1220703125,0.1678466796875,-0.244140625
0.6099998999999999,-0.24420857429504395,-0.19153612852096558,9.895236015319824,-0.1068115234375,0.244140625,-0.2899169921875
0.6299999,-0.23942017555236816,-0.18914192914962769,9.895236015319824,-0.0762939453125,0.2593994140625,-0.3204345703125
0.6499999,-0.23942017555236816,-0.19153612852096558,9.892841339111328,-0.091552734375,0.1373291015625,-0.244140625
0.6699999,-0.24420857429504395,-0.19153612852096558,9.892841339111328,-0.1068115234375,0.1068115234375,-0.2288818359375
0.6899999,-0.24899697303771973,-0.19393034279346466,9.892841339111328,-0.1068115234375,0.1373291015625,-0.2899169921875
0.7099999,-0.2513911724090576,-0.19393034279346466,9.895236015319824,-0.0457763671875,0.152587890625,-0.274658203125
0.7299998999999999,-0.2537853717803955,-0.19153612852096558,9.895236015319824,-0.030517578125,0.213623046875,-0.2593994140625
0.7499998999999999,-0.2537853717803955,-0.19153612852096558,9.895236015319824,-0.0762939453125,0.1678466796875,-0.2593994140625
0.7699999,-0.2537853717803955,-0.19153612852096558,9.895236015319824,-0.0762939453125,0.091552734375,-0.244140625
0.7899999,-0.2537853717803955,-0.19153612852096558,9.895236015319824,-0.0457763671875,0.1068115234375,-0.274658203125
0.8099999,-0.2513911724090576,-0.19393034279346466,9.895236015319824,-0.091552734375,0.244140625,-0.30517578125
0.8299999,-0.2513911724090576,-0.19393034279346466,9.892841339111328,-0.06103515625,0.1678466796875,-0.2899169921875
0.8499998999999999,-0.24899697303771973,-0.19632454216480255,9.892841339111328,-0.091552734375,0.06103515625,-0.1983642578125
0.8699998999999999,-0.24660277366638184,-0.19632454216480255,9.892841339111328,-0.091552734375,0.1373291015625,-0.274658203125
0.8899999,-0.24181437492370605,-0.19632454216480255,9.892841339111328,-0.152587890625,0.274658203125,-0.30517578125
0.9099999,-0.23702596127986908,-0.19632454216480255,9.892841339111328,-0.091552734375,0.274658203125,-0.3509521484375
0.9299999,-0.2346317619085312,-0.19871874153614044,9.892841339111328,-0.0762939453125,0.18310546875,-0.335693359375
0.9499999,-0.2346317619085312,-0.20111294090747833,9.890447616577148,-0.1373291015625,0.18310546875,-0.274658203125
0.9699998999999999,-0.2346317619085312,-0.19871874153614044,9.888052940368652,-0.1068115234375,0.152587890625,-0.2288818359375
0.9899998999999999,-0.23942017555236816,-0.19871874153614044,9.885659217834473,-0.091552734375,0.1983642578125,-0.2899169921875
1.0099999,-0.24420857429504395,-0.19632454216480255,9.885659217834473,-0.1220703125,0.1983642578125,-0.2899169921875
1.0299999,-0.24660277366638184,-0.19393034279346466,9.888052940368652,-0.06103515625,0.1678466796875,-0.274658203125
1.0499999,-0.24899697303771973,-0.19393034279346466,9.890447616577148,-0.06103515625,0.1373291015625,-0.3204345703125
1.0699999,-0.24899697303771973,-0.19153612852096558,9.892841339111328,-0.091552734375,0.1068115234375,-0.2593994140625
1.0899999,-0.24899697303771973,-0.18914192914962769,9.895236015319824,-0.1220703125,0.091552734375,-0.2288818359375
1.1099999,-0.24899697303771973,-0.18914192914962769,9.895236015319824,-0.1373291015625,0.1220703125,-0.213623046875
1.1299999,-0.24899697303771973,-0.19153612852096558,9.895236015319824,-0.06103515625,0.091552734375,-0.213623046875
1.1499999,-0.24660277366638184,-0.19393034279346466,9.890447616577148,-0.091552734375,0.1678466796875,-0.2593994140625
1.1699998999999999,-0.24660277366638184,-0.19393034279346466,9.888052940368652,-0.1068115234375,0.244140625,-0.2593994140625
1.1899998999999999,-0.24660277366638184,-0.19632454216480255,9.885659217834473,-0.0152587890625,0.1373291015625,-0.2899169921875
1.2099999,-0.24420857429504395,-0.19393034279346466,9.888052940368652,-0.1220703125,0.091552734375,-0.2288818359375
1.2299999,-0.24660277366638184,-0.19393034279346466,9.890447616577148,-0.1068115234375,0.152587890625,-0.30517578125
1.2499999,-0.24420857429504395,-0.19153612852096558,9.892841339111328,-0.1220703125,0.18310546875,-0.30517578125
1.2699999,-0.24420857429504395,-0.19153612852096558,9.895236015319824,-0.1373291015625,0.1983642578125,-0.274658203125
1.2899999,-0.24660277366638184,-0.18914192914962769,9.895236015319824,-0.1220703125,0.1373291015625,-0.30517578125
1.3099999,-0.24899697303771973,-0.19153612852096558,9.895236015319824,0.0152587890625,0.06103515625,-0.3509521484375
1.3299999,-0.2513911724090576,-0.19153612852096558,9.892841339111328,-0.030517578125,0.1068115234375,-0.274658203125
1.3499999,-0.2513911724090576,-0.19393034279346466,9.895236015319824,-0.0762939453125,0.18310546875,-0.244140625
1.3699999,-0.24899697303771973,-0.19393034279346466,9.895236015319824,-0.152587890625,0.152587890625,-0.30517578125
1.3899999,-0.24420857429504395,-0.19393034279346466,9.895236015319824,-0.091552734375,0.1373291015625,-0.335693359375
1.4099999,-0.23942017555236816,-0.19393034279346466,9.897629737854004,-0.0762939453125,0.1373291015625,-0.2593994140625
1.4299998999999999,-0.23942017555236816,-0.19393034279346466,9.897629737854004,-0.0762939453125,0.152587890625,-0.2899169921875
1.4499999,-0.24181437492370605,-0.19393034279346466,9.897629737854004,-0.1220703125,0.1678466796875,-0.244140625
1.4699999,-0.24420857429504395,-0.19393034279346466,9.892841339111328,-0.091552734375,0.1220703125,-0.2593994140625
1.4899999,-0.24660277366638184,-0.19393034279346466,9.892841339111328,-0.1220703125,0.1220703125,-0.274658203125
1.5099999,-0.24660277366638184,-0.19153612852096558,9.892841339111328,-0.0762939453125,0.1678466796875,-0.2899169921875
1.5299999,-0.24660277366638184,-0.19153612852096558,9.890447616577148,-0.0152587890625,0.335693359375,-0.30517578125
1.5499999,-0.24899697303771973,-0.18914192914962769,9.892841339111328,-0.06103515625,0.3662109375,-0.2899169921875
1.5699999,-0.24899697303771973,-0.18914192914962769,9.892841339111328,-0.1220703125,0.3814697265625,-0.3814697265625
1.5899999,-0.24660277366638184,-0.18914192914962769,9.895236015319824,-0.1068115234375,0.1373291015625,-0.30517578125
1.6099999,-0.24420857429504395,-0.18914192914962769,9.9000244140625,-0.1068115234375,0.0152587890625,-0.2288818359375
1.6299999,-0.24420857429504395,-0.18914192914962769,9.9000244140625,-0.0457763671875,0.1678466796875,-0.274658203125
1.6499999,-0.24660277366638184,-0.18914192914962769,9.90241813659668,-0.091552734375,-0.1678466796875,-0.091552734375
1.6699999,-0.2537853717803955,-0.18914192914962769,9.9000244140625,-0.0762939453125,0.1220703125,-0.30517578125
1.6899998999999999,-0.2513911724090576,-0.19153612852096558,9.90241813659668,0,0.0152587890625,-0.2288818359375
1.7099999,-0.2513911724090576,-0.19871874153614044,9.90241813659668,0.0152587890625,0.06103515625,-0.1678466796875
1.7299999,-0.24420857429504395,-0.20350714027881622,9.907206535339355,0.0457763671875,0.1373291015625,-0.244140625
1.7499999,-0.23942017555236816,-0.20350714027881622,9.907206535339355,0.0152587890625,0.3662109375,-0.335693359375
1.7699999,-0.23942017555236816,-0.19632454216480255,9.904812812805176,-0.0762939453125,0.335693359375,-0.30517578125
1.7899999,-0.24420857429504395,-0.19153612852096558,9.895236015319824,0,0.274658203125,-0.335693359375
1.8099999,-0.2513911724090576,-0.1843535304069519,9.885659217834473,-0.0457763671875,0.091552734375,-0.2593994140625
1.8299999,-0.2561795711517334,-0.181959331035614,9.8784761428833,-0.030517578125,0.06103515625,-0.18310546875
1.8499999,-0.2513911724090576,-0.181959331035614,9.880870819091797,0,0.1068115234375,-0.244140625
1.8699999,-0.24420857429504395,-0.181959331035614,9.880870819091797,-0.1068115234375,0.2593994140625,-0.335693359375
1.8899999,-0.2346317619085312,-0.17477671802043915,9.885659217834473,-0.091552734375,0.2288818359375,-0.3509521484375
1.9099999,-0.23702596127986908,-0.17477671802043915,9.888052940368652,-0.0152587890625,0.1678466796875,-0.335693359375
1.9299998999999999,-0.24420857429504395,-0.17717093229293823,9.890447616577148,-0.091552734375,0.152587890625,-0.30517578125
1.9499999,-0.2585737705230713,-0.18914192914962769,9.892841339111328,-0.0457763671875,0.1983642578125,-0.244140625
1.9699999,-0.26815059781074524,-0.19871874153614044,9.895236015319824,-0.030517578125,0.213623046875,-0.213623046875
1.9899999,-0.27054479718208313,-0.20350714027881622,9.895236015319824,-0.1068115234375,0.1220703125,-0.2288818359375
2.0099999,-0.26336219906806946,-0.20111294090747833,9.892841339111328,-0.091552734375,0.1220703125,-0.2288818359375
2.0299999,-0.2513911724090576,-0.19393034279346466,9.892841339111328,-0.06103515625,0.1678466796875,-0.244140625
2.0499999,-0.23942017555236816,-0.18914192914962769,9.895236015319824,-0.0457763671875,0.213623046875,-0.274658203125
2.0699999,-0.23942017555236816,-0.1867477297782898,9.892841339111328,-0.1068115234375,0.152587890625,-0.335693359375
2.0899999,-0.23702596127986908,-0.1867477297782898,9.9000244140625,-0.06103515625,-0.9918212890625,0.030517578125
2.1099999,-0.24660277366638184,-0.19153612852096558,9.897629737854004,-0.1220703125,0.1678466796875,-0.4119873046875
2.1299999,-0.2513911724090576,-0.19393034279346466,9.904812812805176,-0.1220703125,0.2593994140625,-0.274658203125
2.1499999,-0.2537853717803955,-0.19393034279346466,9.904812812805176,-0.030517578125,0.2899169921875,-0.274658203125
2.1699999,-0.2513911724090576,-0.18914192914962769,9.907206535339355,-0.0457763671875,-0.396728515625,-0.152587890625
2.1899999,-0.24660277366638184,-0.1867477297782898,9.90241813659668,-0.06103515625,-0.1983642578125,-0.18310546875
2.2099999,-0.23702596127986908,-0.1843535304069519,9.90241813659668,-0.0152587890625,0.6103515625,-0.518798828125
2.2299999,-0.23942017555236816,-0.1867477297782898,9.9000244140625,-0.0762939453125,-0.030517578125,-0.1373291015625
2.2499999,-0.2513911724090576,-0.18914192914962769,9.897629737854004,-0.0152587890625,1.007080078125,-0.67138671875
2.2699999,-0.2561795711517334,-0.1867477297782898,9.895236015319824,-0.06103515625,0.1373291015625,-0.30517578125
2.2899999,-0.26096799969673157,-0.1843535304069519,9.888052940368652,-0.0762939453125,1.1444091796875,-0.762939453125
2.3099999,-0.24660277366638184,-0.1843535304069519,9.890447616577148,-0.06103515625,0.1983642578125,-0.42724609375
2.3299999,-0.22744916379451752,-0.181959331035614,9.895236015319824,-0.0457763671875,-0.518798828125,0
2.3499999,-0.22266076505184174,-0.1867477297782898,9.895236015319824,0.0152587890625,0.7476806640625,-0.6866455078125
2.3699999,-0.22266076505184174,-0.17956513166427612,9.9000244140625,-0.0762939453125,-0.7476806640625,0.06103515625
2.3899999,-0.24420857429504395,-0.181959331035614,9.895236015319824,-0.06103515625,1.1444091796875,-0.823974609375
2.4099999,-0.304063618183136,-0.1867477297782898,9.909601211547852,0.0152587890625,1.8463134765625,-0.0152587890625
2.4299999,-0.2801215946674347,-0.18914192914962769,9.897629737854004,0.244140625,6.4544677734375,3.173828125
2.4499999,-0.30885201692581177,-0.1867477297782898,9.90241813659668,-0.244140625,0.79345703125,-0.762939453125
2.4699999,-0.3016694188117981,-0.14365209639072418,9.883264541625977,-0.18310546875,-0.2899169921875,-3.72314453125
2.4899999,-0.3711012601852417,-0.07661445438861847,9.86650562286377,0.6103515625,-0.823974609375,-17.1661376953125
2.5099999,-0.48602294921875,0.033518824726343155,9.859322547912598,1.15966796875,-1.8157958984375,-31.158447265625
2.5299999,-0.6512228846549988,0.15322890877723694,9.849745750427246,1.28173828125,-2.227783203125,-40.130615234375
2.5499999,-0.7876923680305481,0.26575639843940735,9.856928825378418,1.4190673828125,-1.9378662109375,-44.189453125
2.5699999,-0.8882488012313843,0.3663128614425659,9.86889934539795,1.0986328125,-2.899169921875,-47.9736328125
2.5899999,-0.950498104095459,0.4572925269603729,9.895236015319824,1.5869140625,1.1138916015625,-52.5054931640625
2.6099999,-0.9720458984375,0.5267243981361389,9.888052940368652,2.0294189453125,-2.410888671875,-54.718017578125
2.6299999,-0.9720458984375,0.6009446382522583,9.876082420349121,1.5106201171875,1.739501953125,-57.5408935546875
2.6499999,-0.9648633003234863,0.6655880808830261,9.86650562286377,1.617431640625,-1.373291015625,-61.553955078125
2.6699999,-0.9600749015808105,0.7398083209991455,9.864110946655273,2.25830078125,4.57763671875,-64.0869140625
2.6899999,-0.5602431893348694,0.646434485912323,9.72285270690918,1.708984375,14.739990234375,-58.3953857421875
2.7099999,0.3687070608139038,-0.33997663855552673,9.526528358459473,1.434326171875,-67.19970703125,-41.839599609375
2.7299999,0.9002198576927185,-0.8906430602073669,9.406818389892578,-2.38037109375,-66.741943359375,-60.05859375
2.7499999,1.403002142906189,-1.6160861253738403,9.3828763961792,1.373291015625,16.78466796875,-48.309326171875
2.7699999,1.015141487121582,-1.460463047027588,9.533711433410645,0.213623046875,46.56982421875,-17.9290771484375
2.7899999,0.1388636976480484,-0.6440402865409851,9.62947940826416,-0.885009765625,50.567626953125,-10.5133056640625
2.8099999,-0.667982280254364,0.2561795711517334,9.823410034179688,0.518798828125,-33.4625244140625,-8.4228515625
2.8299999,-1.2665326595306396,0.9361328482627869,9.773131370544434,0.640869140625,-2.3345947265625,-19.9127197265625
2.8499999,-1.556231141090393,1.259350061416626,9.739612579345703,-0.152587890625,9.9334716796875,-19.53125
2.8699999,-1.2114660739898682,1.0031704902648926,9.856928825378418,0.7171630859375,-51.605224609375,0.8697509765625
2.8899999,-0.6033388376235962,0.23942017555236816,10.012551307678223,-0.885009765625,-36.8499755859375,1.373291015625
2.9099999,-0.07661445438861847,-0.8044517636299133,10.283096313476562,-2.99072265625,-81.207275390625,-5.5084228515625
2.9299999,0.49559974670410156,-2.0877439975738525,10.362105369567871,-1.8463134765625,-141.326904296875,1.6937255859375
2.9499999,0.7733271718025208,-2.9041666984558105,10.065223693847656,-3.265380859375,-65.7501220703125,-23.4832763671875
2.9699999,0.7015010714530945,-2.9520506858825684,9.765948295593262,-7.415771484375,70.068359375,-82.03125
2.9899999,1.3503297567367554,-2.190694570541382,9.35654067993164,-6.683349609375,50.1708984375,-94.451904296875
3.0099999,1.4748282432556152,-0.6033388376235962,9.334992408752441,-5.43212890625,-9.521484375,-82.4127197265625
3.0299999,1.8626888990402222,1.039083480834961,9.514557838439941,-2.044677734375,-5.2642822265625,-21.209716796875
3.0499999,1.802833914756775,2.212242364883423,9.636661529541016,1.2054443359375,7.2174072265625,20.32470703125
3.0699999,1.4413094520568848,2.4420857429504395,9.725247383117676,2.197265625,24.169921875,35.46142578125
3.0899999,0.9241618514060974,1.7693150043487549,9.785101890563965,2.3345947265625,39.0625,39.97802734375
3.1099999,0.3423708379268646,0.7469909191131592,9.880870819091797,0.8392333984375,34.393310546875,13.0615234375
3.1299999,0.011971008032560349,-0.043095629662275314,9.86650562286377,-0.48828125,8.758544921875,-13.0462646484375
3.1499999,-0.05746084079146385,-0.5123591423034668,9.864110946655273,0.4730224609375,29.47998046875,15.19775390625
3.1699999,-0.2059013396501541,-0.5363011956214905,9.983820915222168,3.326416015625,57.6019287109375,21.1639404296875
3.1899999,-0.31603461503982544,-0.5626373887062073,10.022128105163574,6.6070556640625,26.214599609375,1.8463134765625
3.2099999,-0.6129156351089478,-0.6153098344802856,10.314221382141113,28.533935546875,10.8184814453125,-14.1754150390625
3.2299999,-0.8882488012313843,-0.3734954595565796,10.72841739654541,81.085205078125,9.307861328125,-64.63623046875
3.2499999,-1.072602391242981,0.26096799969673157,11.374852180480957,155.5938720703125,5.096435546875,-72.418212890625
3.2699999,-1.1037269830703735,1.216254472732544,12.24155330657959,101.1199951171875,-33.3404541015625,-37.384033203125
3.2899999,-1.137245774269104,2.2457611560821533,12.926295280456543,-26.6876220703125,-90.3167724609375,-17.8985595703125
3.3099999,-1.1492167711257935,2.8586769104003906,13.199234008789062,-106.2774658203125,-94.7265625,-5.950927734375
3.3299999000000002,-1.1204863786697388,3.043030261993408,12.856863021850586,-90.33203125,-77.81982421875,-1.9989013671875
3.3499999,-1.0630255937576294,2.8658595085144043,12.0021333694458,23.8800048828125,-76.6143798828125,-9.7198486328125
3.3699999,-0.8379706144332886,2.494758129119873,10.982203483581543,119.81201171875,-83.526611328125,-6.9427490234375
3.3899999,-0.5841852426528931,2.054224967956543,10.409989356994629,113.5101318359375,-47.4090576171875,-9.09423828125
3.4099999,-0.1388636976480484,1.644816517829895,10.189722061157227,71.563720703125,-46.1273193359375,-11.0321044921875
3.4299999,0.3447650372982025,1.3551181554794312,10.38844108581543,13.6260986328125,-71.1822509765625,-0.30517578125
3.4499999,0.6368576288223267,1.1037269830703735,10.704475402832031,-28.50341796875,-68.511962890625,13.3819580078125
3.4699999,0.9050082564353943,0.6584054827690125,10.711658477783203,-29.754638671875,-69.1986083984375,18.9208984375
3.4899999,0.9193734526634216,0.42377370595932007,10.079588890075684,-62.103271484375,-65.6585693359375,1.8310546875
3.5099999,1.0749965906143188,0.14844051003456116,9.064447402954102,-19.8974609375,-48.7213134765625,-1.2664794921875
3.5299999,1.280897855758667,0.2825157940387726,8.018181800842285,41.32080078125,-6.8206787109375,-4.638671875
3.5499999,1.6160861253738403,0.5410895943641663,7.194576263427734,56.0150146484375,-11.1236572265625,-19.47021484375
3.5699999,1.9536685943603516,0.8140285611152649,7.15387487411499,-1.4801025390625,-14.8773193359375,-27.740478515625
3.5899999,2.190694570541382,0.9050082564353943,7.352593421936035,-70.068359375,-25.5889892578125,-23.62060546875
3.6099999,2.3942017555236816,0.9624691009521484,7.666234016418457,-145.2789306640625,-18.524169921875,-16.05224609375
3.6299999,2.4588451385498047,0.8906430602073669,7.716512203216553,-167.0379638671875,19.287109375,1.46484375
3.6499999,2.513911724090576,0.7996633648872375,7.407660007476807,-118.4844970703125,45.2117919921875,13.8702392578125
3.6699999,2.494758129119873,0.7110779285430908,7.026981830596924,-63.2476806640625,71.929931640625,18.6767578125
3.6899999,2.4851813316345215,0.4357447028160095,6.8809356689453125,-103.0426025390625,99.395751953125,40.52734375
3.7099999,2.341529369354248,-0.05506663769483566,7.046135425567627,-116.3330078125,88.2568359375,36.4837646484375
3.7299999,2.0829553604125977,-0.8738836050033569,7.314286231994629,-30.120849609375,54.473876953125,9.9945068359375
3.7499999,1.764526605606079,-1.8507179021835327,7.4770917892456055,-23.92578125,65.0634765625,-12.2833251953125
3.7699999,1.3623007535934448,-2.5522189140319824,7.785943984985352,-50.2166748046875,140.4876708984375,-40.985107421875
3.7899999,1.0558429956436157,-2.7509377002716064,8.439560890197754,-91.0491943359375,142.669677734375,-26.947021484375
3.8099999,0.8475474119186401,-2.6240451335906982,9.440337181091309,-84.8388671875,30.7769775390625,20.7977294921875
3.8299999000000002,0.6320692300796509,-2.31758713722229,10.261548042297363,-26.7333984375,-61.767578125,12.4359130859375
3.8499999,0.5746083855628967,-2.3487119674682617,10.223240852355957,64.910888671875,-53.985595703125,-33.5693359375
3.8699999,0.5793967843055725,-2.604891538619995,9.516951560974121,78.9642333984375,50.78125,-42.4652099609375
3.8899999,0.689530074596405,-2.5953147411346436,8.671798706054688,-7.354736328125,105.28564453125,-70.1141357421875
3.9099999,0.9313444495201111,-2.1284453868865967,8.494627952575684,-59.2041015625,72.81494140625,-66.0247802734375
3.9299999,1.1659762859344482,-1.070208191871643,9.02135181427002,28.8238525390625,20.7672119140625,-5.8135986328125
3.9499999,1.158793568611145,-0.009576806798577309,9.995792388916016,52.6123046875,13.031005859375,76.1566162109375
3.9699999,1.0845733880996704,0.26575639843940735,11.05402946472168,-118.0267333984375,-21.7437744140625,91.1407470703125
3.9899999,0.790086567401886,-0.5147533416748047,11.798625946044922,-17.7154541015625,-143.6614990234375,38.1317138671875
4.0099999,0.8523358106613159,-2.0901381969451904,12.05959415435791,172.149658203125,-229.1412353515625,-18.1121826171875
4.029999900000001,1.2066776752471924,-3.5242648124694824,11.614272117614746,48.27880859375,-199.1729736328125,-67.8558349609375
4.0499999,1.9608511924743652,-4.177882194519043,10.486603736877441,-37.200927734375,-110.015869140625,-86.8988037109375
4.069999900000001,2.6623523235321045,-3.7205893993377686,9.105149269104004,-50.7049560546875,-14.7247314453125,-106.0028076171875
4.0899999000000005,3.112462282180786,-2.846705913543701,8.106766700744629,-65.948486328125,56.7626953125,-91.3543701171875
4.1099999,3.318363666534424,-2.0231003761291504,7.5417351722717285,-26.8707275390625,61.9354248046875,-50.7354736328125
4.1299999000000005,3.179499864578247,-1.4628572463989258,7.783549785614014,-81.8328857421875,101.6387939453125,-74.0509033203125
4.1499999,3.1531636714935303,-1.381454348564148,8.307879447937012,-118.072509765625,117.2332763671875,-72.113037109375
4.1699999000000005,2.920926094055176,-1.436521053314209,8.89445972442627,-109.3902587890625,101.50146484375,-59.26513671875
4.1899999,2.873042106628418,-1.659181833267212,9.351752281188965,-96.923828125,88.6993408203125,-31.707763671875
4.209999900000001,2.3535003662109375,-2.1499931812286377,9.739612579345703,-50.1708984375,96.7864990234375,7.75146484375
4.2299999,1.8938134908676147,-2.319981336593628,9.835380554199219,2.410888671875,85.235595703125,25.69580078125
4.249999900000001,1.2497732639312744,-2.473210334777832,9.916783332824707,-22.705078125,45.623779296875,53.16162109375
4.2699999,0.4812345504760742,-2.2218191623687744,9.667786598205566,10.7574462890625,5.126953125,91.6595458984375
4.289999900000001,-0.05985504388809204,-2.183511972427368,9.799467086791992,54.74853515625,26.9317626953125,100.311279296875
4.3099999,-0.4429273009300232,-2.6384103298187256,10.42195987701416,-84.503173828125,8.6212158203125,56.9000244140625
4.329999900000001,-0.8571242094039917,-3.045424461364746,11.30063247680664,-143.12744140625,-102.8289794921875,-40.191650390625
4.3499999,-0.7948749661445618,-3.0310592651367188,11.824962615966797,-52.459716796875,-182.769775390625,-72.3419189453125
4.369999900000001,-0.5817909836769104,-2.626439332962036,11.192893028259277,57.7850341796875,-133.7738037109375,41.107177734375
4.3899999,-0.12928688526153564,-2.1045033931732178,9.615114212036133,77.94189453125,-23.590087890625,138.092041015625
4.409999900000001,0.3974374830722809,-2.2673089504241943,7.960720539093018,-39.398193359375,68.603515625,116.14990234375
4.4299999,0.7206547260284424,-3.205836057662964,7.259219646453857,-83.1298828125,89.4012451171875,48.9959716796875
4.449999900000001,0.8978256583213806,-4.2951979637146,7.486668586730957,22.8729248046875,29.9835205078125,6.9427490234375
4.4699999,0.9289502501487732,-5.054159641265869,8.257601737976074,56.671142578125,-11.90185546875,7.476806640625
4.489999900000001,0.8619126081466675,-5.214571475982666,8.813055992126465,32.6385498046875,0.0457763671875,12.4053955078125
4.5099999,0.7996633648872375,-4.874594688415527,8.789113998413086,19.561767578125,16.17431640625,2.349853515625
4.529999900000001,0.8451532125473022,-4.000710964202881,8.65982723236084,11.1541748046875,40.3594970703125,2.838134765625
4.5499999,0.7613561153411865,-2.894589900970459,8.880094528198242,-19.04296875,57.2357177734375,31.6009521484375
4.569999900000001,0.790086567401886,-1.9177556037902832,9.095572471618652,37.7655029296875,-13.6260986328125,68.7713623046875
4.5899999000000005,0.6703764796257019,-1.6903064250946045,9.334992408752441,97.9766845703125,-41.7938232421875,79.5440673828125
4.609999900000001,0.4836287498474121,-1.889025092124939,9.193734169006348,31.0516357421875,20.32470703125,5.2642822265625
4.6299999000000005,0.22505496442317963,-2.6839001178741455,8.913613319396973,-34.85107421875,61.9354248046875,-21.942138671875
4.6499999,-0.05506663769483566,-3.2297780513763428,8.987833023071289,-27.9083251953125,41.0003662109375,5.9967041015625
4.6699999000000005,-0.31603461503982544,-3.1316158771514893,9.47146224975586,50.78125,-21.728515625,23.5595703125
4.6899999,-0.4812345504760742,-2.6360161304473877,10.393229484558105,83.31298828125,-58.2427978515625,56.9000244140625
4.709999900000001,-0.47405192255973816,-2.276885747909546,10.867281913757324,185.150146484375,-96.435546875,101.4251708984375
4.7299999,-0.22266076505184174,-2.3511061668395996,11.05402946472168,276.06201171875,-82.09228515625,94.024658203125
4.749999900000001,0.038307227194309235,-2.7557260990142822,10.896012306213379,324.462890625,-30.0750732421875,17.547607421875
4.7699999,0.3902548849582672,-3.442862033843994,10.797849655151367,145.6756591796875,-11.444091796875,-25.4058837890625
4.789999900000001,0.43335050344467163,-3.5865142345428467,10.656591415405273,-25.20751953125,-14.0228271484375,-19.805908203125
4.8099999,0.5937620401382446,-2.985569477081299,10.556035041809082,-88.3941650390625,-24.0478515625,-44.73876953125
4.829999900000001,0.6033388376235962,-1.7357962131500244,10.098742485046387,-112.060546875,3.4332275390625,-58.013916015625
4.8499999,0.7350199222564697,-0.181959331035614,9.35893440246582,-84.3658447265625,41.839599609375,-48.5076904296875
4.869999900000001,0.8259995579719543,0.9600749015808105,8.860940933227539,-49.530029296875,99.639892578125,-24.9786376953125
4.8899999,0.7757213711738586,1.3120225667953491,9.155426979064941,-36.31591796875,134.1705322265625,-8.1024169921875
4.909999900000001,0.5650315880775452,0.8882488012313843,9.95748519897461,-7.6751708984375,55.908203125,-16.2506103515625
4.9299999,0.27054479718208313,0.07182604819536209,10.857705116271973,-59.4482421875,-41.7327880859375,-28.74755859375
4.949999900000001,-0.014365210197865963,-0.6248866319656372,11.154585838317871,-65.1702880859375,-24.871826171875,-7.6904296875
4.9699999,-0.1173158809542656,-0.8403648138046265,10.340557098388672,-65.2618408203125,45.8831787109375,22.613525390625
4.989999900000001,-0.5027823448181152,-0.7398083209991455,8.69095230102539,-167.5567626953125,124.053955078125,27.191162109375
5.0099999,-0.9720458984375,-0.8834604024887085,7.247248649597168,-212.4176025390625,221.160888671875,82.489013671875
5.029999900000001,-2.006340980529785,-1.256955862045288,6.385335922241211,-13.9923095703125,247.13134765625,126.7547607421875
5.0499999,-3.205836057662964,-2.2170307636260986,7.058106422424316,-148.895263671875,248.779296875,82.6416015625
5.069999900000001,-4.400542736053467,-3.512293815612793,8.882488250732422,-167.66357421875,176.849365234375,34.7747802734375
5.0899999000000005,-5.295974254608154,-4.953603267669678,11.21204662322998,-32.1044921875,27.8472900390625,21.7742919921875
5.109999900000001,-5.870582580566406,-6.169857978820801,13.172897338867188,10.528564453125,-80.50537109375,-16.204833984375
5.1299999000000005,-6.090848922729492,-6.94079065322876,14.070723533630371,-61.1114501953125,-123.5198974609375,-73.0743408203125
5.1499999,-5.980715751647949,-7.151480674743652,13.872004508972168,-120.6512451171875,-137.3748779296875,-112.457275390625
5.1699999000000005,-5.609614372253418,-6.658275127410889,12.85207462310791,-106.1553955078125,-137.75634765625,-122.6348876953125
5.1899999,-4.9152960777282715,-5.604825973510742,11.319786071777344,-73.6083984375,-132.2174072265625,-100.9674072265625
5.209999900000001,-4.046200752258301,-4.331110954284668,9.550470352172852,-36.2548828125,-88.6383056640625,-45.1202392578125
5.2299999,-3.1531636714935303,-3.354276657104492,7.843404769897461,19.53125,-2.86865234375,34.4696044921875
5.249999900000001,-2.535459518432617,-3.043030261993408,6.754043102264404,77.362060546875,87.249755859375,87.890625
5.2699999,-2.274491548538208,-3.6990416049957275,7.228095054626465,159.1339111328125,127.960205078125,78.399658203125
5.289999900000001,-2.346317768096924,-4.659116744995117,8.911218643188477,194.27490234375,14.6942138671875,10.986328125
5.3099999,-2.6168625354766846,-5.719748020172119,11.362881660461426,133.6212158203125,-103.851318359375,-6.072998046875
5.329999900000001,-2.8131868839263916,-6.217741966247559,13.433865547180176,147.2320556640625,-151.9927978515625,24.9481201171875
5.3499999,-2.784456491470337,-6.088454723358154,14.226346969604492,157.3486328125,-150.45166015625,31.1431884765625
5.369999900000001,-2.583343744277954,-5.590460777282715,13.651738166809082,117.889404296875,-137.1917724609375,31.707763671875
5.3899999,-2.183511972427368,-4.857835292816162,12.15296745300293,68.8629150390625,-113.128662109375,19.22607421875
5.409999900000001,-1.6759412288665771,-4.125209331512451,10.098742485046387,34.271240234375,-66.7572021484375,-18.6309814453125
5.4299999,-1.1228805780410767,-3.4404678344726562,8.468291282653809,-28.50341796875,26.641845703125,-58.563232421875
5.449999900000001,-0.6991068720817566,-3.0310592651367188,7.671022415161133,-95.733642578125,77.7740478515625,-62.2406005859375
5.4699999,-0.31124621629714966,-2.8586769104003906,7.491456985473633,-68.511962890625,15.1824951171875,-58.6700439453125
5.489999900000001,0.15801730751991272,-3.0190882682800293,7.6782050132751465,-64.8956298828125,-14.4500732421875,-72.509765625
5.5099999,0.4908113479614258,-3.093308687210083,7.850587368011475,-167.388916015625,60.1043701171875,-117.4163818359375
5.529999900000001,0.7254431247711182,-3.045424461364746,7.623138427734375,-157.5927734375,92.22412109375,-84.8236083984375
5.5499999,0.7038952708244324,-2.8419175148010254,7.723694801330566,-98.1292724609375,109.3902587890625,-22.2015380859375
5.569999900000001,0.2346317619085312,-2.7557260990142822,8.35336971282959,-67.1234130859375,116.3482666015625,-7.50732421875
5.5899999000000005,-0.3711012601852417,-2.868253707885742,9.275136947631836,-53.6956787109375,66.2841796875,-30.242919921875
5.609999900000001,-1.0103530883789062,-3.201047658920288,10.113107681274414,-103.790283203125,6.561279296875,-49.31640625
5.6299999000000005,-1.5753847360610962,-3.557783842086792,10.378864288330078,-80.078125,-18.49365234375,-28.5491943359375
5.6499999,-1.9321208000183105,-3.8570590019226074,10.15141487121582,-61.737060546875,-0.8392333984375,-18.2647705078125
5.6699999000000005,-2.0853497982025146,-4.14915132522583,9.670180320739746,-100.128173828125,40.802001953125,-32.562255859375
5.6899999,-2.070984363555908,-4.54419469833374,9.282320022583008,-121.7498779296875,31.7840576171875,-41.2445068359375
5.709999900000001,-1.9752163887023926,-4.841075897216797,8.887276649475098,-121.52099609375,-6.0882568359375,-37.078857421875
5.7299999,-1.7693150043487549,-5.123591423034668,8.501810073852539,-168.8995361328125,-16.815185546875,-31.73828125
5.749999900000001,-1.4628572463989258,-5.547365188598633,7.819462776184082,-149.8870849609375,-18.37158203125,-6.561279296875
5.7699999,-0.9648633003234863,-6.186617374420166,7.048529624938965,-123.687744140625,5.37109375,-5.828857421875
5.789999900000001,-0.4189853072166443,-6.75883150100708,6.327875137329102,-117.950439453125,31.585693359375,-49.9114990234375
5.8099999,0.12689268589019775,-7.082048416137695,5.702988624572754,-48.6297607421875,12.3443603515625,-65.36865234375
5.829999900000001,0.4668693244457245,-6.897695064544678,5.494692802429199,-61.0198974609375,21.66748046875,-52.2918701171875
5.8499999,0.6823474764823914,-6.248866558074951,5.674258232116699,-116.0888671875,31.280517578125,-49.7283935546875
5.869999900000001,0.7613561153411865,-5.542576789855957,6.3302693367004395,-103.729248046875,16.7083740234375,-39.215087890625
5.8899999,0.7996633648872375,-5.0685248374938965,7.053318023681641,-20.5841064453125,-29.9530029296875,-16.7999267578125
5.909999900000001,0.7493851184844971,-5.037400245666504,7.594407558441162,18.6767578125,-68.695068359375,2.2125244140625
5.9299999,0.6488286852836609,-5.530605792999268,7.752425193786621,23.590087890625,-98.08349609375,7.3394775390625
5.949999900000001,0.507570743560791,-6.323086738586426,7.450755596160889,-5.0506591796875,-122.467041015625,-12.4969482421875
5.9699999,0.4165911078453064,-7.029376029968262,6.7061591148376465,-26.06201171875,-111.7095947265625,-39.0472412109375
5.989999900000001,0.38307225704193115,-7.457938194274902,5.916072368621826,-52.8717041015625,-45.5474853515625,-38.1927490234375
6.0099999,0.4668693244457245,-7.489062786102295,5.051765441894531,8.5296630859375,-18.9361572265625,-12.8326416015625
6.029999900000001,0.5770025849342346,-7.3023152351379395,4.503493309020996,21.2554931640625,-22.5677490234375,-0.518798828125
6.0499999,0.6871358752250671,-6.919242858886719,4.173093795776367,-6.2408447265625,-20.294189453125,-10.3912353515625
6.069999900000001,0.7565677165985107,-6.507440090179443,4.2544965744018555,11.016845703125,-4.364013671875,-7.38525390625
6.0899999000000005,0.7805097699165344,-6.1315507888793945,4.637568473815918,45.5322265625,12.0391845703125,19.59228515625
6.109999900000001,0.8523358106613159,-6.076483726501465,5.34625244140625,89.6453857421875,-6.6680908203125,37.7197265625
6.1299999000000005,0.8834604024887085,-6.447585105895996,6.1315507888793945,106.2164306640625,-34.97314453125,35.4461669921875
6.149999900000001,0.8930372595787048,-6.983886241912842,6.708553314208984,69.0765380859375,-44.1131591796875,7.476806640625
6.1699999000000005,0.8930372595787048,-7.304709434509277,6.754043102264404,-6.3018798828125,-36.2091064453125,-6.2713623046875
6.1899999,0.8738836050033569,-7.570465564727783,6.370970726013184,37.7349853515625,-37.078857421875,38.7115478515625
6.209999900000001,0.8020575642585754,-7.819462776184082,5.674258232116699,138.3209228515625,-36.6058349609375,66.3604736328125
6.2299999,0.7469909191131592,-7.9846625328063965,5.023035049438477,74.4476318359375,-5.0811767578125,4.4097900390625
6.249999900000001,0.608127236366272,-7.881711959838867,4.821922302246094,-9.4757080078125,45.1202392578125,-43.5791015625
6.2699999,0.48602294921875,-7.225700855255127,5.190629482269287,-19.3634033203125,51.8035888671875,-5.5389404296875
6.289999900000001,0.33039984107017517,-6.3733649253845215,6.042964935302734,28.99169921875,11.8408203125,68.328857421875
6.3099999,0.1364694982767105,-5.9304375648498535,7.015010833740234,83.4503173828125,-22.0489501953125,86.1663818359375
6.329999900000001,-0.14604631066322327,-6.268020153045654,7.7428483963012695,94.8333740234375,-20.0347900390625,45.9442138671875
6.3499999,-0.4620809257030487,-7.0557122230529785,8.169015884399414,29.60205078125,7.6446533203125,-3.2501220703125
6.369999900000001,-0.7206547260284424,-7.6111674308776855,8.31985092163086,0.1373291015625,23.9410400390625,-21.026611328125
6.3899999,-0.7829039692878723,-7.553706169128418,8.389283180236816,10.009765625,24.566650390625,-6.65283203125
6.409999900000001,-0.6727706789970398,-7.026981830596924,8.379706382751465,16.1590576171875,20.843505859375,18.0206298828125
6.4299999,-0.45010992884635925,-6.354211330413818,8.17141056060791,-5.6610107421875,15.7928466796875,26.8402099609375
6.449999900000001,-0.24420857429504395,-5.913678169250488,7.747636795043945,-40.679931640625,17.974853515625,21.30126953125
6.4699999,-0.17956513166427612,-5.851428985595703,6.94079065322876,-42.144775390625,28.564453125,23.2696533203125
6.489999900000001,-0.3016694188117981,-6.157886981964111,5.949591159820557,-34.271240234375,68.634033203125,21.575927734375
6.5099999,-0.6033388376235962,-6.71334171295166,5.238513469696045,-53.40576171875,127.4566650390625,8.23974609375
6.529999900000001,-0.9720458984375,-7.3238630294799805,5.219359874725342,-81.4361572265625,141.9677734375,-14.984130859375
6.5499999,-1.3287819623947144,-7.903259754180908,5.839457988739014,-67.230224609375,82.5042724609375,-15.5029296875
6.569999900000001,-1.5945383310317993,-8.33182144165039,6.780379295349121,-1.5106201171875,31.5704345703125,-1.0833740234375
6.5899999000000005,-1.7549498081207275,-8.219294548034668,7.359776020050049,-25.2532958984375,37.65869140625,-23.6663818359375
6.609999900000001,-1.7549498081207275,-7.778761386871338,7.247248649597168,-75.9735107421875,48.3245849609375,-20.477294921875
6.6299999000000005,-1.7525556087493896,-7.314286231994629,6.646304130554199,-46.3104248046875,52.490234375,46.20361328125
6.649999900000001,-1.7357962131500244,-7.141903877258301,6.00226354598999,-59.0667724609375,78.9642333984375,65.948486328125
6.6699999000000005,-1.8291701078414917,-7.438784599304199,5.7341132164001465,-87.2802734375,92.4072265625,16.4031982421875
6.6899999,-2.03507137298584,-7.8529815673828125,5.9088897705078125,-45.166015625,60.9283447265625,-19.805908203125
6.709999900000001,-2.2840683460235596,-8.157045364379883,6.260837554931641,-37.17041015625,11.77978515625,7.4310302734375
6.7299999,-2.5905263423919678,-8.300697326660156,6.433219909667969,-44.7845458984375,-16.357421875,50.6744384765625
6.749999900000001,-2.8227639198303223,-8.422801971435547,6.2632317543029785,-55.11474609375,6.9122314453125,39.5965576171875
6.7699999,-3.0382418632507324,-8.729259490966797,5.987898349761963,-81.8634033203125,31.6314697265625,15.2740478515625
6.789999900000001,-2.9664158821105957,-9.062053680419922,5.384559631347656,-34.1339111328125,-2.044677734375,21.087646484375
6.8099999,-2.8107926845550537,-9.306262016296387,4.991910457611084,-50.262451171875,7.598876953125,18.5546875
6.829999900000001,-2.6575639247894287,-9.428366661071777,4.903325080871582,-23.406982421875,48.126220703125,-12.5274658203125
6.8499999,-2.5115175247192383,-9.385271072387695,5.118803024291992,37.0025634765625,12.51220703125,-27.4200439453125
6.869999900000001,-2.628833532333374,-9.117119789123535,5.398924827575684,33.1573486328125,-65.6280517578125,-13.36669921875
6.8899999,-2.8443117141723633,-8.856152534484863,5.415684223175049,-2.7618408203125,-77.3468017578125,22.27783203125
6.909999900000001,-3.1459810733795166,-8.777143478393555,4.838681697845459,-22.247314453125,-4.2877197265625,52.9632568359375
6.9299999,-3.4524388313293457,-9.011775016784668,4.153939723968506,-28.350830078125,49.713134765625,17.08984375
6.949999900000001,-3.7636849880218506,-8.932766914367676,3.955221176147461,-54.7943115234375,41.4276123046875,-57.4188232421875
6.9699999,-3.794809579849243,-8.365341186523438,3.971980571746826,-28.38134765625,-31.5093994140625,-51.300048828125
6.989999900000001,-3.7158010005950928,-7.347805023193359,3.756502389907837,-2.655029296875,-51.483154296875,32.7911376953125
7.0099999,-3.4979286193847656,-6.291962146759033,3.0166940689086914,48.5076904296875,44.43359375,77.423095703125
7.029999900000001,-3.4356794357299805,-6.179434776306152,2.2218191623687744,138.458251953125,147.6593017578125,84.4573974609375
7.0499999,-3.536235809326172,-6.979097843170166,2.1978771686553955,103.21044921875,163.39111328125,40.985107421875
7.069999900000001,-3.8522706031799316,-7.706935405731201,3.7445313930511475,82.794189453125,70.8160400390625,-35.1715087890625
7.0899999000000005,-4.113238334655762,-7.572859764099121,6.078877925872803,141.632080078125,-74.0814208984375,-31.2957763671875
7.109999900000001,-4.527435302734375,-6.5265936851501465,8.214506149291992,258.087158203125,-198.6083984375,120.025634765625
7.1299999000000005,-4.841075897216797,-5.5114521980285645,9.17936897277832,155.8380126953125,-199.9359130859375,224.12109375
7.149999900000001,-4.987122058868408,-5.540182590484619,8.513781547546387,38.1927490234375,-145.99609375,174.5147705078125
7.1699999000000005,-4.888959884643555,-7.223306655883789,7.079654216766357,-12.054443359375,-7.2021484375,41.290283203125
7.1899999,-4.491522312164307,-9.509769439697266,6.224924564361572,-105.499267578125,138.5955810546875,-94.4976806640625
7.209999900000001,-3.9624037742614746,-10.51054573059082,5.846640586853027,-123.6419677734375,59.3719482421875,-187.408447265625
7.2299999,-3.3638534545898438,-9.847352027893066,6.098031520843506,-74.64599609375,-18.4326171875,-129.058837890625
7.249999900000001,-3.201047658920288,-7.967903137207031,6.9024834632873535,-47.027587890625,30.548095703125,7.4920654296875
7.2699999,-3.023876667022705,-6.028599739074707,7.726089000701904,26.5655517578125,23.956298828125,84.3963623046875
7.289999900000001,-3.2585084438323975,-4.819528102874756,8.53532886505127,-159.515380859375,-125.9613037109375,-4.3487548828125
7.3099999,-3.4572272300720215,-4.520252704620361,8.633491516113281,-135.2386474609375,-238.5406494140625,-38.9862060546875
7.329999900000001,-3.56017804145813,-4.484339714050293,7.247248649597168,-33.7677001953125,-190.1702880859375,13.9923095703125
7.3499999,-3.603273630142212,-4.527435302734375,4.587290287017822,-40.0543212890625,-7.8125,47.882080078125
7.369999900000001,-3.60566782951355,-4.845864295959473,1.9129672050476074,-27.7099609375,151.7486572265625,74.2645263671875
7.3899999,-3.7660791873931885,-5.549759387969971,0.9600749015808105,-46.9207763671875,188.90380859375,82.6416015625
7.409999900000001,-4.197035789489746,-6.912060260772705,2.3942017555236816,-143.9361572265625,103.485107421875,84.869384765625
7.4299999,-4.730942726135254,-8.348581314086914,5.085284233093262,-160.369873046875,-102.7069091796875,43.4722900390625
7.449999900000001,-5.185841083526611,-10.280701637268066,7.675810813903809,12.664794921875,-257.01904296875,28.564453125
7.4699999,-5.489904403686523,-11.683704376220703,8.257601737976074,50.10986328125,-264.6636962890625,-17.181396484375
7.489999900000001,-5.360617637634277,-12.397176742553711,6.8378400802612305,-37.4603271484375,-151.3671875,-113.525390625
7.5099999,-4.611232280731201,-11.793837547302246,5.394136428833008,-75.8819580078125,26.519775390625,-168.5943603515625
7.529999900000001,-3.584120035171509,-10.043676376342773,3.9600095748901367,-71.6552734375,-12.115478515625,-124.4964599609375
7.5499999,-2.456450939178467,-8.343792915344238,3.375824451446533,-64.8193359375,-90.7440185546875,-17.51708984375
7.569999900000001,-1.8052281141281128,-7.352593421936035,3.667917013168335,-68.66455078125,41.6259765625,16.326904296875
7.5899999000000005,-1.6136919260025024,-7.484274387359619,3.648763418197632,-65.826416015625,76.6754150390625,-35.5987548828125
7.609999900000001,-1.7597382068634033,-8.307879447937012,3.7421371936798096,-75.897216796875,27.191162109375,-47.8515625
7.6299999000000005,-1.9033904075622559,-8.810662269592285,3.8498764038085938,-85.0372314453125,5.67626953125,-31.7535400390625
7.649999900000001,-1.7477672100067139,-8.7484130859375,3.9169139862060547,-48.9959716796875,37.506103515625,5.5999755859375
7.6699999000000005,-1.4963760375976562,-8.135497093200684,3.7181951999664307,-23.193359375,53.8482666015625,45.501708984375
7.6899999,-1.3910311460494995,-7.4770917892456055,3.1962592601776123,12.6190185546875,23.8037109375,105.6671142578125
7.709999900000001,-1.5849615335464478,-7.510610580444336,2.233790159225464,82.244873046875,37.0941162109375,176.025390625
7.7299999,-2.212242364883423,-8.396465301513672,1.3192051649093628,-29.205322265625,190.7196044921875,132.2021484375
7.749999900000001,-3.758896589279175,-10.287884712219238,1.4700398445129395,-16.78466796875,172.36328125,-7.6751708984375
7.7699999,-4.225766181945801,-10.469843864440918,2.6192567348480225,-31.005859375,25.57373046875,18.7225341796875
7.789999900000001,-4.364629745483398,-9.557653427124023,5.544970989227295,-1.0528564453125,-26.5960693359375,-41.5191650390625
7.8099999,-4.094084739685059,-8.62391471862793,6.619967937469482,445.648193359375,-249.32861328125,28.86962890625
7.829999900000001,-4.108449935913086,-7.785943984985352,6.586448669433594,245.208740234375,-297.393798828125,112.701416015625
7.8499999,-3.9647979736328125,-7.405265808105469,4.479551315307617,-85.235595703125,-54.229736328125,39.825439453125
7.869999900000001,-3.93367338180542,-7.872135162353516,1.5610195398330688,-72.6318359375,204.0557861328125,-36.7279052734375
7.8899999,-3.9193081855773926,-8.453926086425781,-0.028730420395731926,-52.6123046875,276.91650390625,-71.1212158203125
7.909999900000001,-3.825934410095215,-8.662221908569336,0.6560112833976746,-0.701904296875,137.847900390625,-52.4444580078125
7.9299999,-3.624821424484253,-8.712499618530273,2.829946517944336,-15.0299072265625,-26.947021484375,15.3656005859375
7.949999900000001,-3.4189200401306152,-8.822632789611816,5.0900726318359375,-20.56884765625,-61.0504150390625,40.924072265625
7.9699999,-3.2417490482330322,-8.669404029846191,6.430825710296631,-13.702392578125,-47.3785400390625,-6.9732666015625
7.989999900000001,-3.1316158771514893,-8.5903959274292,6.672640323638916,-1.8463134765625,-86.97509765625,-11.5203857421875
8.0099999,-3.155557870864868,-8.60236644744873,6.519411087036133,-6.805419921875,-111.26708984375,41.3818359375
8.0299999,-3.1651346683502197,-8.257601737976074,5.657498836517334,-121.1090087890625,-106.7657470703125,5.706787109375
8.049999900000001,-3.3446998596191406,-7.979874134063721,3.885789394378662,-23.895263671875,-88.43994140625,-63.629150390625
8.069999900000001,-3.5266590118408203,-7.857769966125488,2.542642116546631,50.7659912109375,38.14697265625,-0.9613037109375
8.0899999,-3.6727054119110107,-7.886500358581543,1.6903064250946045,92.7886962890625,79.132080078125,21.270751953125
8.1099999,-3.7876269817352295,-8.504204750061035,2.300827741622925,85.8612060546875,7.9803466796875,12.3443603515625
8.129999900000001,-3.751713991165161,-9.229647636413574,4.10366153717041,-70.6634521484375,-75.2410888671875,-41.656494140625
8.149999900000001,-3.8139634132385254,-10.493785858154297,5.834669589996338,-157.684326171875,-140.0299072265625,-42.877197265625
8.1699999,-3.7158010005950928,-11.832144737243652,5.9735331535339355,-151.7181396484375,-162.628173828125,-67.5506591796875
8.1899999,-3.5410242080688477,-11.717223167419434,5.513846397399902,16.021728515625,24.5361328125,-125.4119873046875
8.2099999,-3.028665065765381,-11.45146656036377,3.8522706031799316,110.1837158203125,74.798583984375,-135.4522705078125
8.229999900000001,-2.3965959548950195,-10.08198356628418,2.942473888397217,79.010009765625,88.19580078125,-42.8466796875
8.2499999,-1.7357962131500244,-8.683769226074219,2.7317841053009033,10.772705078125,84.5489501953125,-59.2498779296875
8.2699999,-1.2641384601593018,-8.17380428314209,3.2417490482330322,-8.6822509765625,36.1480712890625,-79.559326171875
8.2899999,-1.036689281463623,-8.305485725402832,3.9384617805480957,-11.9171142578125,8.6822509765625,-82.122802734375
8.309999900000001,-0.8882488012313843,-8.492233276367188,4.422090530395508,0.3204345703125,0.701904296875,-64.2242431640625
8.3299999,-0.7374141216278076,-8.554482460021973,4.458003520965576,21.453857421875,2.960205078125,-19.378662109375
8.3499999,-0.646434485912323,-8.334216117858887,4.175487995147705,-41.290283203125,21.0113525390625,22.88818359375
8.3699999,-0.5793967843055725,-8.192957878112793,4.129997730255127,-101.2420654296875,43.609619140625,39.581298828125
8.389999900000001,-0.6584054827690125,-8.252813339233398,3.909731388092041,-102.9815673828125,16.7999267578125,49.4537353515625
8.4099999,-0.8188169598579407,-8.504204750061035,3.950432777404785,-48.4466552734375,-0.1373291015625,45.8831787109375
8.4299999,-0.9720458984375,-8.638279914855957,3.9240965843200684,4.1351318359375,6.8359375,48.03466796875
8.4499999,-1.1324573755264282,-8.492233276367188,3.60566782951355,33.935546875,1.800537109375,67.44384765625
8.469999900000001,-1.3527239561080933,-8.391676902770996,3.287238836288452,103.302001953125,27.52685546875,101.8524169921875
8.4899999,-1.7094600200653076,-8.856152534484863,3.469198226928711,94.970703125,71.4874267578125,105.8502197265625
8.5099999,-2.118868589401245,-9.318233489990234,4.132391929626465,-12.8173828125,55.4962158203125,21.148681640625
8.5299999,-2.5546131134033203,-10.204087257385254,4.551377296447754,-97.6409912109375,-48.004150390625,-25.0701904296875
8.549999900000001,-2.7054479122161865,-10.374075889587402,5.324704647064209,-57.2509765625,-18.85986328125,-17.27294921875
8.569999900000001,-2.6360161304473877,-9.99100399017334,4.994304656982422,-20.99609375,-5.92041015625,-9.3841552734375
8.5899999,-2.382230758666992,-9.174580574035645,4.836287498474121,-42.54150390625,3.0670166015625,-6.9427490234375
8.6099999,-2.233790159225464,-8.89685344696045,4.422090530395508,-25.8331298828125,-1.8463134765625,14.3890380859375
8.629999900000001,-2.1475989818573,-8.827422142028809,4.321534156799316,-6.561279296875,-0.2593994140625,-7.26318359375
8.649999900000001,-2.2816741466522217,-9.41400146484375,4.644751071929932,-4.6234130859375,18.1427001953125,-32.04345703125
8.6699999,-2.406172752380371,-10.043676376342773,4.6734819412231445,-42.6025390625,-23.2391357421875,-40.435791015625
8.6899999,-2.4851813316345215,-10.213664054870605,5.039794445037842,-89.1571044921875,-48.7518310546875,-53.7872314453125
8.709999900000001,-2.4851813316345215,-10.14902114868164,4.955997467041016,-101.4556884765625,-62.3779296875,-38.0859375
8.729999900000001,-2.4181437492370605,-9.976638793945312,4.46518611907959,-134.4451904296875,-79.681396484375,-24.7650146484375
8.7499999,-2.449268341064453,-10.417171478271484,3.8977603912353516,-63.079833984375,-28.533935546875,-41.9769287109375
8.7699999,-2.3774423599243164,-10.742782592773438,3.1507694721221924,0.9002685546875,12.26806640625,-112.213134765625
8.7899999,-2.2146365642547607,-11.070788383483887,2.2170307636260986,-34.3170166015625,14.9688720703125,-137.939453125
8.809999900000001,-1.7932571172714233,-10.522516250610352,1.647210717201233,-67.8863525390625,70.3582763671875,-100.738525390625
8.8299999,-1.1994950771331787,-9.660603523254395,1.0989385843276978,-44.3878173828125,95.6878662109375,-51.513671875
8.8499999,-0.5339069962501526,-8.702922821044922,0.9840168952941895,-16.5557861328125,68.6798095703125,-29.7698974609375
8.8699999,-0.028730420395731926,-8.271966934204102,1.2425906658172607,-8.6517333984375,44.769287109375,-22.6898193359375
8.889999900000001,0.22744916379451752,-8.432378768920898,1.644816517829895,-13.1988525390625,34.97314453125,-0.18310546875
8.9099999,0.2849099934101105,-8.825027465820312,1.8579005002975464,-27.099609375,20.294189453125,5.584716796875
8.9299999,0.2298433631658554,-9.155426979064941,1.7860745191574097,-38.330078125,21.1334228515625,-8.4381103515625
8.9499999,0.06703764945268631,-9.622296333312988,1.5897499322891235,-35.5682373046875,35.46142578125,19.4549560546875
8.969999900000001,-0.14844051003456116,-9.828198432922363,1.192312479019165,-34.2559814453125,18.829345703125,25.299072265625
8.9899999,-0.40462008118629456,-10.04846477508545,0.7254431247711182,-41.7633056640625,6.072998046875,4.8675537109375
9.0099999,-0.6512228846549988,-10.230423927307129,0.6631938815116882,-21.270751953125,33.447265625,-12.115478515625
9.0299999,-0.8427590131759644,-10.29746150970459,0.4812345504760742,-3.35693359375,21.453857421875,-9.246826171875
9.049999900000001,-0.8858546018600464,-10.134655952453613,0.6703764796257019,-12.664794921875,-4.852294921875,-18.5394287109375
9.069999900000001,-0.8690952062606812,-10.101137161254883,0.8403648138046265,-12.237548828125,-10.5133056640625,-12.8173828125
9.0899999,-0.7781155705451965,-9.775525093078613,0.8762778043746948,-13.4735107421875,-17.4407958984375,-25.8941650390625
9.1099999,-0.6607996821403503,-9.624691009521484,0.8475474119186401,-7.9803466796875,-8.5296630859375,-23.3001708984375
9.129999900000001,-0.545877993106842,-9.430760383605957,0.5889736413955688,-16.1285400390625,-13.641357421875,-13.2293701171875
9.149999900000001,-0.4141969084739685,-9.227252960205078,0.42616790533065796,-6.256103515625,-19.1192626953125,-18.98193359375
9.1699999,-0.2992752194404602,-8.968679428100586,0.20111294090747833,-3.1585693359375,-26.6571044921875,-24.4903564453125
9.1899999,-0.2106897532939911,-8.841787338256836,0.009576806798577309,-15.655517578125,-24.0478515625,-5.3558349609375
9.209999900000001,-0.15322890877723694,-8.908824920654297,-0.23702596127986908,-7.62939453125,-15.6097412109375,9.8419189453125
9.229999900000001,-0.090979665517807,-8.990227699279785,-0.5554547905921936,2.0904541015625,-12.1002197265625,-5.1727294921875
9.2499999,-0.07661445438861847,-9.279925346374512,-0.871489405632019,-10.4522705078125,-4.0435791015625,-7.99560546875
9.2699999,-0.05506663769483566,-9.406818389892578,-1.05105459690094,-9.5367431640625,4.669189453125,3.936767578125
9.2899999,-0.026336219161748886,-9.342175483703613,-1.0438719987869263,-7.476806640625,3.8909912109375,4.5166015625
9.309999900000001,-0.021547814831137657,-9.26795482635498,-0.9313444495201111,-9.7808837890625,-1.800537109375,6.6680908203125
9.3299999,-0.028730420395731926,-9.332598686218262,-0.7206547260284424,4.180908203125,-0.06103515625,7.965087890625
9.3499999,-0.023942016065120697,-9.459490776062012,-0.6105214357376099,7.293701171875,0.030517578125,2.5787353515625
9.3699999,-0.009576806798577309,-9.588777542114258,-0.5602431893348694,-10.498046875,4.486083984375,0.9002685546875
9.389999900000001,0.016759412363171577,-9.75637149810791,-0.5434837937355042,-10.955810546875,7.4310302734375,8.4075927734375
9.4099999,0.0071826050989329815,-9.907206535339355,-0.47884035110473633,15.716552734375,7.99560546875,11.7645263671875
9.4299999,-0.033518824726343155,-10.070012092590332,-0.38067805767059326,26.611328125,1.434326171875,3.2196044921875
9.4499999,-0.08619125932455063,-10.216058731079102,-0.14604631066322327,22.03369140625,1.2664794921875,-1.28173828125
9.469999900000001,-0.1604115068912506,-10.299856185913086,0.0694318488240242,0.030517578125,-3.1585693359375,1.6937255859375
9.4899999,-0.20111294090747833,-10.316615104675293,0.20350714027881622,0.5035400390625,-3.5552978515625,2.6397705078125
9.5099999,-0.22026655077934265,-10.14902114868164,0.1628057211637497,-1.220703125,-0.79345703125,-1.46484375
9.5299999,-0.23702596127986908,-9.974244117736816,0.10055647045373917,9.307861328125,6.622314453125,3.204345703125
9.549999900000001,-0.30885201692581177,-9.885659217834473,0.05985504388809204,15.411376953125,5.18798828125,16.11328125
9.569999900000001,-0.3974374830722809,-9.828198432922363,0.10534487664699554,13.0157470703125,-2.0904541015625,7.0343017578125
9.5899999,-0.45489832758903503,-9.955090522766113,0.19632454216480255,14.923095703125,0.3204345703125,-5.218505859375
9.6099999,-0.5147533416748047,-10.036493301391602,0.363918662071228,-12.8326416015625,6.7901611328125,-6.5765380859375
9.629999900000001,-0.49320554733276367,-10.134655952453613,0.43335050344467163,-19.012451171875,0.67138671875,-2.3345947265625
9.649999900000001,-0.4692635238170624,-10.065223693847656,0.5434837937355042,-10.55908203125,-8.8958740234375,-3.448486328125
9.6699999,-0.4381389021873474,-9.971850395202637,0.5339069962501526,-10.3607177734375,-6.4697265625,-6.7901611328125
9.6899999,-0.38307225704193115,-9.983820915222168,0.3998316824436188,-0.3662109375,-4.3792724609375,-0.6103515625
9.709999900000001,-0.30885201692581177,-9.854534149169922,0.2585737705230713,11.9781494140625,-4.5013427734375,-7.2784423828125
9.729999900000001,-0.26815059781074524,-9.835380554199219,0.12210428714752197,14.373779296875,-13.1378173828125,-8.148193359375
9.7499999,-0.2537853717803955,-9.78989028930664,0.15562310814857483,10.6964111328125,-13.36669921875,-4.94384765625
9.7699999,-0.3016694188117981,-9.72285270690918,0.3256114423274994,5.31005859375,-11.2762451171875,-5.6610107421875
9.7899999,-0.3687070608139038,-9.804255485534668,0.5626373887062073,10.43701171875,-20.56884765625,-4.119873046875
9.809999900000001,-0.4213795065879822,-9.976638793945312,0.8571242094039917,13.2598876953125,-25.4058837890625,-8.8958740234375
9.8299999,-0.4381389021873474,-10.20648193359375,1.137245774269104,8.9111328125,-29.96826171875,-19.317626953125
9.8499999,-0.44532153010368347,-10.309432983398438,1.5083470344543457,6.011962890625,-33.233642578125,-23.8189697265625
9.8699999,-0.4692635238170624,-10.383652687072754,1.9752163887023926,14.9078369140625,-46.69189453125,-6.683349609375
9.889999900000001,-0.4405331015586853,-10.460267066955566,2.3774423599243164,20.8740234375,-67.626953125,4.0435791015625
9.9099999,-0.4620809257030487,-10.340557098388672,2.80361008644104,2.62451171875,-68.939208984375,-15.9149169921875
9.9299999,-0.5482721924781799,-10.438719749450684,3.0526070594787598,-11.23046875,-65.0787353515625,-10.5743408203125
9.9499999,-0.7015010714530945,-10.6925048828125,3.0885202884674072,-17.7764892578125,-68.4814453125,11.1236572265625
9.969999900000001,-0.8523358106613159,-10.864887237548828,3.2393548488616943,-19.439697265625,-64.453125,-15.716552734375
9.9899999,-0.9241618514060974,-11.116278648376465,2.8778305053710938,-16.510009765625,-90.6982421875,-36.1175537109375
10.0099999,-0.7709329724311829,-10.955866813659668,2.3942017555236816,-18.157958984375,-99.6856689453125,-36.224365234375
10.0299999,-0.4357447028160095,-10.493785858154297,1.3910311460494995,-9.5367431640625,-87.7838134765625,-18.0816650390625
10.049999900000001,-0.033518824726343155,-9.921571731567383,0.33997663855552673,-1.220703125,-66.83349609375,-5.4779052734375
10.069999900000001,0.33279404044151306,-9.57441234588623,-0.5722141861915588,0.457763671875,-60.85205078125,-5.5694580078125
10.0899999,0.6200982332229614,-9.560047149658203,-1.1468225717544556,-1.7547607421875,-67.0318603515625,-14.5721435546875
10.1099999,0.8092401623725891,-9.622296333312988,-1.3862427473068237,-2.9296875,-63.4002685546875,-22.6593017578125
10.129999900000001,0.9600749015808105,-9.593565940856934,-1.4628572463989258,0.9765625,-56.5185546875,-20.111083984375
10.149999900000001,1.0582371950149536,-9.433155059814453,-1.4293384552001953,2.5787353515625,-49.2401123046875,-2.3345947265625
10.1699999,1.0845733880996704,-9.30386734008789,-1.3096283674240112,-2.5787353515625,-45.318603515625,6.9580078125
10.1899999,1.0797849893569946,-9.327810287475586,-1.1492167711257935,0.2288818359375,-44.4793701171875,0.48828125
10.209999900000001,1.01753568649292,-9.409213066101074,-0.9983820915222168,-0.06103515625,-46.9818115234375,-13.092041015625
10.229999900000001,0.9528923034667969,-9.5624418258667,-0.9169792532920837,4.8980712890625,-46.3104248046875,-6.927490234375
10.2499999,0.9193734526634216,-9.550470352172852,-0.9026140570640564,5.5999755859375,-39.764404296875,1.40380859375
10.2699999,0.9002198576927185,-9.495404243469238,-0.8475474119186401,1.3427734375,-31.67724609375,2.7008056640625
10.2899999,0.8667010068893433,-9.524134635925293,-0.751779317855835,1.4801025390625,-34.4085693359375,7.3699951171875
10.309999900000001,0.8355764150619507,-9.6989107131958,-0.5961562395095825,3.2958984375,-37.139892578125,5.462646484375
10.3299999,0.8188169598579407,-9.883264541625977,-0.4668693244457245,7.4310302734375,-37.29248046875,-5.55419921875
10.3499999,0.8164227604866028,-10.031704902648926,-0.40701428055763245,-0.518798828125,-33.7371826171875,-8.575439453125
10.3699999,0.828393816947937,-10.11550235748291,-0.42856210470199585,-8.026123046875,-28.6407470703125,-0.8697509765625
10.389999900000001,0.8451532125473022,-10.199298858642578,-0.4668693244457245,-2.227783203125,-25.726318359375,4.8980712890625
10.4099999,0.8690952062606812,-10.1753568649292,-0.49320554733276367,4.45556640625,-27.34375,-8.11767578125
10.4299999,0.912190854549408,-10.158597946166992,-0.5051765441894531,4.058837890625,-28.4881591796875,-12.0697021484375
10.4499999,0.9792284965515137,-10.096348762512207,-0.646434485912323,-11.0321044921875,-26.824951171875,-0.518798828125
10.469999900000001,1.070208191871643,-9.84256362915039,-0.6991068720817566,-13.0462646484375,-13.8092041015625,-2.7313232421875
10.4899999,1.1085153818130493,-9.734824180603027,-0.8475474119186401,0.8544921875,-17.791748046875,1.495361328125
10.5099999,1.0893617868423462,-9.701305389404297,-0.8044517636299133,6.9122314453125,-19.5159912109375,4.9285888671875
10.5299999,0.9959878921508789,-9.782708168029785,-0.5770025849342346,2.8228759765625,-19.134521484375,-2.105712890625
10.549999900000001,0.8810662031173706,-9.945513725280762,-0.38307225704193115,-1.190185546875,-29.6173095703125,-6.591796875
10.569999900000001,0.7948749661445618,-10.022128105163574,-0.19393034279346466,10.19287109375,-31.7840576171875,-10.711669921875
10.5899999,0.7709329724311829,-9.959878921508789,-0.2968810200691223,4.0435791015625,-27.008056640625,-7.232666015625
10.6099999,0.8044517636299133,-9.818621635437012,-0.40222588181495667,-1.3580322265625,-11.505126953125,1.068115234375
10.629999900000001,0.8571242094039917,-9.684545516967773,-0.6177040338516235,5.2337646484375,-13.092041015625,4.82177734375
10.649999900000001,0.8906430602073669,-9.586383819580078,-0.667982280254364,9.33837890625,-14.801025390625,-1.1444091796875
10.6699999,0.8882488012313843,-9.653421401977539,-0.5506663918495178,6.1798095703125,-7.2784423828125,-0.7171630859375
10.6899999,0.8762778043746948,-9.684545516967773,-0.47405192255973816,-0.2899169921875,-13.9312744140625,-1.2054443359375
10.709999900000001,0.8451532125473022,-9.701305389404297,-0.33518823981285095,1.190185546875,-13.6260986328125,-3.3111572265625
10.729999900000001,0.811634361743927,-9.715670585632324,-0.26336219906806946,7.8125,-7.4462890625,2.8076171875
10.7499999,0.7924807667732239,-9.706093788146973,-0.30885201692581177,4.8980712890625,-8.026123046875,4.1046142578125
10.7699999,0.7829039692878723,-9.684545516967773,-0.33039984107017517,-2.74658203125,-2.3956298828125,0.4119873046875
10.7899999,0.7781155705451965,-9.75637149810791,-0.31842881441116333,-0.54931640625,0.0762939453125,1.52587890625
10.809999900000001,0.7829039692878723,-9.78989028930664,-0.3064578175544739,3.7384033203125,-8.5296630859375,1.220703125
10.8299999,0.7876923680305481,-9.849745750427246,-0.2298433631658554,2.3040771484375,-9.70458984375,-1.129150390625
10.8499999,0.7852981686592102,-9.904812812805176,-0.1412578970193863,4.2724609375,-5.79833984375,1.129150390625
10.8699999,0.8020575642585754,-9.931148529052734,-0.09576806426048279,2.7618408203125,-5.7220458984375,-0.18310546875
10.889999900000001,0.8307880163192749,-9.93354320526123,-0.038307227194309235,1.77001953125,-4.5928955078125,-1.7547607421875
10.9099999,0.8595184087753296,-9.940725326538086,0.019153613597154617,3.0364990234375,-3.6468505859375,0.79345703125
10.9299999,0.8834604024887085,-9.99339771270752,0.08619125932455063,3.692626953125,-3.662109375,1.7242431640625
10.9499999,0.9074024558067322,-9.998186111450195,0.14604631066322327,-0.2899169921875,-8.0108642578125,-3.143310546875
10.969999900000001,0.9361328482627869,-10.012551307678223,0.12449848651885986,-0.579833984375,-9.2620849609375,-3.23486328125
10.9899999,0.9624691009521484,-9.96945571899414,0.12449848651885986,-6.591796875,-1.3885498046875,2.0751953125
11.0099999,0.9720458984375,-9.93593692779541,0.011971008032560349,-6.195068359375,0.030517578125,4.7454833984375
11.0299999,0.9576807022094727,-9.93593692779541,-0.021547814831137657,-1.495361328125,-2.6702880859375,1.6326904296875
11.049999900000001,0.9289502501487732,-9.974244117736816,-0.002394201699644327,2.44140625,-2.8076171875,-1.495361328125
11.069999900000001,0.8978256583213806,-9.967061996459961,0.026336219161748886,4.08935546875,-8.6517333984375,-1.3427734375
11.0899999,0.8858546018600464,-9.909601211547852,0.1149216815829277,4.547119140625,-9.796142578125,3.7841796875
11.1099999,0.8810662031173706,-9.825803756713867,0.12210428714752197,5.0201416015625,-12.5732421875,7.26318359375
11.129999900000001,0.8762778043746948,-9.768342971801758,0.0933738648891449,7.476806640625,-13.4429931640625,4.974365234375
11.149999900000001,0.8619126081466675,-9.742006301879883,0.0933738648891449,8.8348388671875,-8.8958740234375,1.556396484375
11.1699999,0.8403648138046265,-9.758766174316406,0.07661445438861847,6.8511962890625,-10.8489990234375,2.7618408203125
11.1899999,0.8044517636299133,-9.81143856048584,0.13407529890537262,8.30078125,-11.8408203125,5.340576171875
11.209999900000001,0.7781155705451965,-9.914389610290527,0.26096799969673157,12.8173828125,-8.6822509765625,3.5858154296875
11.229999900000001,0.7541735172271729,-9.974244117736816,0.4213795065879822,11.199951171875,-11.4288330078125,-2.5482177734375
11.2499999,0.7445967197418213,-10.077195167541504,0.6392518281936646,5.950927734375,-18.768310546875,0.48828125
11.2699999,0.7230489253997803,-10.158597946166992,0.849941611289978,10.3759765625,-24.5361328125,5.9051513671875
11.2899999,0.7254431247711182,-10.237606048583984,1.0630255937576294,12.176513671875,-21.728515625,0.640869140625
11.309999900000001,0.7445967197418213,-10.26394271850586,1.2234370708465576,0.823974609375,-20.050048828125,-3.7384033203125
11.3299999,0.7829039692878723,-10.194510459899902,1.3670891523361206,-17.51708984375,-31.646728515625,-0.1373291015625
11.3499999,0.8236053586006165,-10.08198356628418,1.280897855758667,-14.83154296875,-44.158935546875,10.0250244140625
11.3699999,0.8762778043746948,-9.888052940368652,1.2066776752471924,-5.67626953125,-32.501220703125,9.2315673828125
11.389999900000001,0.8834604024887085,-9.775525093078613,0.9433154463768005,-7.110595703125,-26.5960693359375,4.7607421875
11.4099999,0.8906430602073669,-9.727641105651855,0.6560112833976746,-15.411376953125,-33.7371826171875,4.8065185546875
11.4299999,0.8810662031173706,-9.682151794433594,0.3687070608139038,-15.8843994140625,-30.94482421875,4.82177734375
11.4499999,0.828393816947937,-9.715670585632324,0.009576806798577309,-8.4686279296875,-26.7333984375,5.859375
11.469999900000001,0.7541735172271729,-9.835380554199219,-0.24181437492370605,3.1280517578125,-16.3726806640625,5.92041015625
11.4899999,0.6655880808830261,-9.909601211547852,-0.48602294921875,-1.129150390625,-19.0277099609375,-0.244140625
11.5099999,0.586579442024231,-10.014945983886719,-0.5267243981361389,-3.3416748046875,-18.6920166015625,-0.9918212890625
11.5299999,0.5123591423034668,-10.11550235748291,-0.5171475410461426,-4.6844482421875,-19.195556640625,2.4566650390625
11.549999900000001,0.47884035110473633,-10.065223693847656,-0.5602431893348694,-6.439208984375,-25.5889892578125,-5.8746337890625
11.569999900000001,0.45250412821769714,-9.962273597717285,-0.6536170840263367,0.030517578125,-22.0794677734375,-7.2479248046875
11.5899999,0.4405331015586853,-9.880870819091797,-0.6823474764823914,-0.5645751953125,-11.444091796875,5.43212890625
11.6099999,0.40940847992897034,-9.797073364257812,-0.7398083209991455,-16.2811279296875,-21.881103515625,6.2103271484375
11.629999900000001,0.3687070608139038,-9.804255485534668,-0.768538773059845,-11.1846923828125,-31.951904296875,-2.166748046875
11.649999900000001,0.31124621629714966,-9.914389610290527,-0.7637503147125244,0.579833984375,-20.904541015625,-3.173828125
11.6699999,0.28730419278144836,-9.945513725280762,-0.8858546018600464,-8.0108642578125,-15.594482421875,-0.1373291015625
11.6899999,0.2753331959247589,-9.940725326538086,-1.0295066833496094,-21.1639404296875,-21.78955078125,2.8533935546875
11.709999900000001,0.2561795711517334,-10.110713958740234,-1.216254472732544,-6.40869140625,-19.3634033203125,6.8206787109375
11.729999900000001,0.31842881441116333,-10.132261276245117,-1.2689268589019775,0.244140625,-2.38037109375,-6.7291259765625
11.7499999,0.3711012601852417,-10.204087257385254,-1.3503297567367554,-24.8870849609375,-0.579833984375,-7.7056884765625
11.7699999,0.42856210470199585,-10.26394271850586,-1.3670891523361206,-35.64453125,-12.51220703125,4.33349609375
11.7899999,0.43335050344467163,-10.278307914733887,-1.3958195447921753,-9.735107421875,-12.847900390625,0.9002685546875
11.809999900000001,0.3926490843296051,-10.225635528564453,-1.5873557329177856,3.2501220703125,-12.3748779296875,-14.129638671875
11.8299999,0.28730419278144836,-10.182539939880371,-1.6735470294952393,-0.42724609375,-1.6021728515625,-9.1400146484375
11.8499999,0.12689268589019775,-10.041281700134277,-1.8962076902389526,-12.6190185546875,-4.69970703125,2.44140625
11.8699999,-0.07182604819536209,-9.751583099365234,-2.1715409755706787,-24.5361328125,-5.4931640625,-1.9683837890625
11.889999900000001,-0.3447650372982025,-9.349357604980469,-2.6599581241607666,-31.646728515625,14.7247314453125,-2.6397705078125
11.9099999,-0.7326257228851318,-9.002198219299316,-3.4117374420166016,-34.210205078125,33.355712890625,12.9547119140625
11.9299999,-1.2401964664459229,-8.69095230102539,-4.541800498962402,-40.2374267578125,34.5611572265625,20.6756591796875
11.9499999,-1.8842366933822632,-8.47547435760498,-5.904101371765137,-37.6739501953125,46.2188720703125,9.765625
11.969999900000001,-2.6408045291900635,-8.35097599029541,-7.433996200561523,-20.56884765625,77.850341796875,6.7596435546875
11.9899999,-3.5266590118408203,-8.413225173950195,-8.920795440673828,-6.591796875,105.255126953125,27.3284912109375
12.0099999,-4.458003520965576,-8.542511940002441,-10.034099578857422,1.495361328125,125.8697509765625,32.0587158203125
12.0299999,-5.394136428833008,-8.83939266204834,-10.630255699157715,-2.471923828125,152.7252197265625,22.8118896484375
12.049999900000001,-6.282385349273682,-9.165003776550293,-10.697293281555176,-16.6168212890625,174.5452880859375,18.829345703125
12.069999900000001,-7.096413612365723,-9.402029991149902,-10.359710693359375,-7.3394775390625,196.2432861328125,28.594970703125
12.0899999,-7.872135162353516,-9.667786598205566,-9.516951560974121,19.7906494140625,220.76416015625,42.236328125
12.1099999,-8.619126319885254,-10.168174743652344,-8.238448143005371,22.979736328125,243.34716796875,39.520263671875
12.129999900000001,-9.299078941345215,-10.78348445892334,-6.931213855743408,-26.91650390625,235.687255859375,19.71435546875
12.149999900000001,-9.897629737854004,-11.544840812683105,-5.808333396911621,-56.5032958984375,246.124267578125,15.68603515625
12.1699999,-10.342951774597168,-11.908759117126465,-5.2265424728393555,-15.0909423828125,272.308349609375,16.265869140625
12.1899999,-10.685321807861328,-11.84650993347168,-4.888959884643555,34.5916748046875,298.52294921875,13.916015625
12.209999900000001,-10.99896240234375,-11.528080940246582,-4.424484729766846,20.721435546875,310.48583984375,19.195556640625
12.229999900000001,-11.291055679321289,-11.341333389282227,-3.7660791873931885,-11.41357421875,304.595947265625,17.8375244140625
12.2499999,-11.44907283782959,-10.795455932617188,-2.8107926845550537,-11.260986328125,314.666748046875,-10.8184814453125
12.2699999,-11.408370971679688,-10.228029251098633,-1.1851298809051514,32.3944091796875,356.9793701171875,-10.43701171875
12.289999900000002,-11.042057991027832,-9.457097053527832,1.1204863786697388,19.4854736328125,354.7210693359375,20.6146240234375
12.309999900000001,-10.407594680786133,-8.71728801727295,3.8594532012939453,-21.4385986328125,284.1644287109375,32.196044921875
12.3299999,-9.528923034667969,-8.29830265045166,7.139509677886963,-6.1492919921875,261.962890625,22.216796875
12.3499999,-8.640673637390137,-8.473079681396484,9.78989028930664,10.894775390625,246.03271484375,30.9906005859375
12.3699999,-7.6997528076171875,-8.96389102935791,12.313379287719727,10.040283203125,234.6038818359375,39.031982421875
12.389999900000001,-6.780379295349121,-9.691728591918945,13.895946502685547,-27.3895263671875,179.168701171875,27.0233154296875
12.4099999,-5.793968200683594,-10.587160110473633,14.698003768920898,-55.0537109375,130.706787109375,20.08056640625
12.4299999,-4.654327869415283,-11.135432243347168,14.245500564575195,-36.4837646484375,109.31396484375,5.401611328125
12.4499999,-3.428496837615967,-11.281478881835938,12.75870132446289,-8.5296630859375,94.818115234375,8.7738037109375
12.469999900000001,-2.2888567447662354,-11.322179794311523,10.556035041809082,-3.631591796875,70.2056884765625,28.167724609375
12.4899999,-1.2521674633026123,-11.104307174682617,8.413225173950195,3.875732421875,59.7686767578125,11.505126953125
12.5099999,-0.4405331015586853,-10.862493515014648,6.385335922241211,3.7689208984375,50.2471923828125,-13.7786865234375
12.5299999,0.17238251864910126,-10.611102104187012,4.821922302246094,8.4686279296875,45.8831787109375,-4.425048828125
12.549999900000001,0.6344634294509888,-10.072406768798828,3.754108190536499,17.486572265625,42.4957275390625,6.9122314453125
12.569999900000001,0.9169792532920837,-9.677363395690918,3.1076738834381104,12.8326416015625,36.8804931640625,11.6424560546875
12.5899999,1.015141487121582,-9.351752281188965,2.8371291160583496,2.44140625,32.3638916015625,3.1280517578125
12.6099999,0.9600749015808105,-9.363722801208496,2.7246015071868896,4.8675537109375,26.6265869140625,4.5166015625
12.629999900000001,0.8140285611152649,-9.50498104095459,2.7485435009002686,12.1307373046875,18.829345703125,9.9029541015625
12.649999900000001,0.6560112833976746,-9.576807022094727,2.8107926845550537,16.387939453125,13.336181640625,2.9449462890625
12.6699999,0.47644615173339844,-9.813833236694336,2.8562827110290527,15.2587890625,5.37109375,7.965087890625
12.6899999,0.33039984107017517,-10.034099578857422,2.8227639198303223,10.406494140625,-1.6021728515625,9.124755859375
12.709999900000001,0.26096799969673157,-10.225635528564453,2.6575639247894287,5.4168701171875,0.030517578125,-0.6561279296875
12.729999900000001,0.24660277366638184,-10.438719749450684,2.3511061668395996,5.8746337890625,-2.197265625,-5.0506591796875
12.7499999,0.30885201692581177,-10.491392135620117,2.0254945755004883,13.1683349609375,-0.6866455078125,-2.044677734375
12.7699999,0.4213795065879822,-10.357316970825195,1.6735470294952393,9.7198486328125,-4.791259765625,-1.739501953125
12.789999900000002,0.5123591423034668,-10.247182846069336,1.4628572463989258,6.622314453125,-0.6561279296875,4.2266845703125
12.809999900000001,0.5722141861915588,-10.160991668701172,1.3335703611373901,0.7781982421875,-2.8839111328125,4.5928955078125
12.8299999,0.5913678407669067,-10.129867553710938,1.2545616626739502,-4.150390625,-8.1329345703125,-1.9073486328125
12.8499999,0.5841852426528931,-10.098742485046387,1.1635819673538208,2.2735595703125,-11.3372802734375,-1.3275146484375
12.8699999,0.5482721924781799,-10.11550235748291,1.0271124839782715,8.7432861328125,-7.87353515625,10.25390625
12.889999900000001,0.4692635238170624,-10.259154319763184,0.8188169598579407,6.3018798828125,-9.1705322265625,12.9241943359375
12.9099999,0.35434186458587646,-10.436325073242188,0.6775590777397156,3.9520263671875,-9.6435546875,-2.9449462890625
12.9299999,0.2106897532939911,-10.587160110473633,0.5674257874488831,1.03759765625,-11.5203857421875,-15.1214599609375
12.9499999,0.0694318488240242,-10.620678901672363,0.5434837937355042,8.4381103515625,-11.65771484375,-4.39453125
12.969999900000001,-0.002394201699644327,-10.424354553222656,0.5913678407669067,8.0718994140625,-8.636474609375,0.335693359375
12.9899999,-0.004788403399288654,-10.192116737365723,0.6727706789970398,2.5634765625,-6.927490234375,-1.9989013671875
13.0099999,0.047884032130241394,-10.134655952453613,0.6584054827690125,2.655029296875,-15.2740478515625,0.457763671875
13.0299999,0.17238251864910126,-10.096348762512207,0.6607996821403503,9.429931640625,-9.8419189453125,-5.31005859375
13.049999900000001,0.31842881441116333,-10.0580415725708,0.6105214357376099,10.223388671875,-3.9825439453125,-10.6353759765625
13.069999900000001,0.4596867263317108,-10.072406768798828,0.6033388376235962,9.765625,-5.859375,-0.518798828125
13.0899999,0.5578489899635315,-9.950302124023438,0.6799532771110535,8.026123046875,-9.490966796875,0.030517578125
13.1099999,0.5817909836769104,-9.909601211547852,0.7948749661445618,9.246826171875,-8.2550048828125,0.54931640625
13.129999900000001,0.5386953949928284,-9.93354320526123,0.9624691009521484,7.3089599609375,-5.7373046875,2.4566650390625
13.149999900000001,0.4572925269603729,-9.93593692779541,1.072602391242981,2.74658203125,-11.6424560546875,-1.9378662109375
13.1699999,0.3711012601852417,-10.000580787658691,1.213860273361206,9.4757080078125,-12.8326416015625,-2.1514892578125
13.1899999,0.3208230137825012,-10.012551307678223,1.2330138683319092,9.8876953125,-12.420654296875,-0.3662109375
13.209999900000001,0.3016694188117981,-10.007762908935547,1.278503656387329,1.220703125,-7.0343017578125,-2.1820068359375
13.229999900000001,0.31364041566848755,-9.947908401489258,1.2521674633026123,-7.2021484375,-9.0484619140625,-0.79345703125
13.2499999,0.33997663855552673,-9.837775230407715,1.2186486721038818,-11.23046875,-13.4735107421875,1.8310546875
13.2699999,0.3519476354122162,-9.773131370544434,1.1563993692398071,-1.800537109375,-11.29150390625,6.195068359375
13.289999900000002,0.35673606395721436,-9.732429504394531,1.0654197931289673,4.974365234375,-8.1024169921875,1.5411376953125
13.309999900000001,0.31364041566848755,-9.854534149169922,0.9672574996948242,-7.1258544921875,-7.080078125,0.244140625
13.3299999,0.2801215946674347,-9.983820915222168,0.8523358106613159,-6.5765380859375,-10.25390625,-2.5177001953125
13.3499999,0.24181437492370605,-9.998186111450195,0.8068459630012512,2.105712890625,-6.4239501953125,-6.7291259765625
13.3699999,0.20350714027881622,-10.007762908935547,0.8212111592292786,2.2430419921875,-4.5623779296875,2.410888671875
13.389999900000001,0.16519992053508759,-9.971850395202637,0.9169792532920837,-1.7242431640625,-6.9122314453125,2.8228759765625
13.4099999,0.14604631066322327,-9.940725326538086,1.0462661981582642,-6.2408447265625,-12.5885009765625,-5.06591796875
13.4299999,0.12928688526153564,-10.029311180114746,1.072602391242981,-5.3863525390625,-12.8021240234375,-4.119873046875
13.4499999,0.15322890877723694,-10.153809547424316,0.9481038451194763,-1.46484375,-9.9639892578125,0.640869140625
13.469999900000001,0.2082955539226532,-10.201693534851074,0.7948749661445618,0.762939453125,-2.044677734375,-6.6070556640625
13.4899999,0.2513911724090576,-10.283096313476562,0.5482721924781799,-0.1678466796875,-7.843017578125,-6.7596435546875
13.5099999,0.2849099934101105,-10.3549222946167,0.3687070608139038,7.62939453125,-7.2021484375,-5.2490234375
13.5299999,0.31124621629714966,-10.254365921020508,0.2992752194404602,13.275146484375,2.593994140625,-12.02392578125
13.549999900000001,0.3208230137825012,-10.223240852355957,0.36152446269989014,7.6904296875,4.180908203125,-5.6304931640625
13.569999900000001,0.33758243918418884,-10.120290756225586,0.5578489899635315,2.4566650390625,-2.6702880859375,-1.3275146484375
13.5899999,0.3519476354122162,-10.010157585144043,0.8619126081466675,3.0364990234375,-7.3394775390625,-5.3558349609375
13.6099999,0.33279404044151306,-9.99339771270752,1.0893617868423462,7.38525390625,-8.514404296875,-3.4942626953125
13.629999900000001,0.31364041566848755,-10.012551307678223,1.2401964664459229,6.0577392578125,-9.5672607421875,-1.6632080078125
13.649999900000001,0.29209262132644653,-9.979032516479492,1.3072341680526733,5.37109375,-10.6658935546875,-6.8817138671875
13.6699999,0.27054479718208313,-10.070012092590332,1.3215993642807007,9.4451904296875,-15.5487060546875,-0.9307861328125
13.6899999,0.27054479718208313,-10.17296314239502,1.3072341680526733,12.3291015625,-17.51708984375,-0.640869140625
13.709999900000001,0.272938996553421,-10.237606048583984,1.2018892765045166,15.0909423828125,-20.69091796875,-11.16943359375
13.729999900000001,0.2944868206977844,-10.338163375854492,1.091755986213684,16.1285400390625,-20.0958251953125,-10.07080078125
13.7499999,0.35913026332855225,-10.345345497131348,0.8619126081466675,10.9100341796875,-18.768310546875,-8.453369140625
13.7699999,0.47165772318840027,-10.122684478759766,0.629675030708313,4.0435791015625,-14.6026611328125,-15.3961181640625
13.789999900000002,0.6200982332229614,-9.892841339111328,0.38546648621559143,6.072998046875,-9.9334716796875,-8.8958740234375
13.809999900000001,0.7637503147125244,-9.622296333312988,0.2561795711517334,8.9569091796875,-7.354736328125,1.800537109375
13.8299999,0.8882488012313843,-9.481039047241211,0.2561795711517334,1.312255859375,-8.1329345703125,0.885009765625
13.8499999,0.9672574996948242,-9.425971984863281,0.2777273952960968,-13.824462890625,-11.8255615234375,-5.767822265625
13.8699999,0.9983820915222168,-9.543288230895996,0.26336219906806946,-6.7596435546875,-12.176513671875,-2.3193359375
13.889999900000001,1.0055646896362305,-9.634267807006836,0.20111294090747833,11.1236572265625,-5.37109375,-0.885009765625
13.9099999,0.9720458984375,-9.701305389404297,0.1364694982767105,13.580322265625,-3.35693359375,-4.3792724609375
13.9299999,0.9385270476341248,-9.744400978088379,0.2082955539226532,6.072998046875,-4.669189453125,-0.946044921875
13.9499999,0.9241618514060974,-9.694122314453125,0.33279404044151306,1.953125,-7.50732421875,2.593994140625
13.969999900000001,0.9097966551780701,-9.636661529541016,0.45250412821769714,1.2664794921875,-5.8441162109375,6.7901611328125
13.9899999,0.8978256583213806,-9.619902610778809,0.5339069962501526,3.2501220703125,0.8697509765625,9.033203125
14.0099999,0.8786720037460327,-9.655815124511719,0.6560112833976746,8.5906982421875,3.753662109375,7.537841796875
14.0299999,0.8475474119186401,-9.75397777557373,0.8690952062606812,15.289306640625,-1.4801025390625,6.1187744140625
14.049999900000001,0.8140285611152649,-9.856928825378418,1.2306196689605713,13.916015625,-7.3699951171875,5.9661865234375
14.069999900000001,0.7852981686592102,-9.8784761428833,1.6328455209732056,3.47900390625,-9.5672607421875,5.035400390625
14.0899999,0.7374141216278076,-9.873687744140625,1.944091796875,4.7454833984375,-12.115478515625,6.988525390625
14.1099999,0.667982280254364,-9.832986831665039,2.1954829692840576,26.79443359375,-8.636474609375,7.080078125
14.129999900000001,0.5793967843055725,-9.856928825378418,2.2625205516815186,25.238037109375,-13.6871337890625,7.9193115234375
14.149999900000001,0.5003881454467773,-9.854534149169922,2.3295583724975586,18.06640625,-17.02880859375,6.2103271484375
14.1699999,0.4213795065879822,-9.995792388916016,2.276885747909546,22.4761962890625,-24.200439453125,10.3607177734375
14.1899999,0.3974374830722809,-10.031704902648926,2.315192937850952,26.6571044921875,-27.252197265625,3.4332275390625
14.209999900000001,0.42856210470199585,-10.029311180114746,2.279279947280884,33.8592529296875,-35.736083984375,-3.3416748046875
14.229999900000001,0.47165772318840027,-9.96945571899414,2.2361843585968018,31.31103515625,-38.8641357421875,4.425048828125
14.2499999,0.5219359993934631,-9.861717224121094,2.3295583724975586,25.45166015625,-29.541015625,7.049560546875
14.2699999,0.545877993106842,-9.770736694335938,2.432508945465088,37.261962890625,-37.0330810546875,4.547119140625
14.289999900000002,0.524330198764801,-9.634267807006836,2.669534921646118,46.051025390625,-49.1485595703125,-0.42724609375
14.309999900000001,0.4908113479614258,-9.461885452270508,2.9903578758239746,60.8062744140625,-51.1627197265625,8.1939697265625
14.3299999,0.4429273009300232,-9.342175483703613,3.28963303565979,65.9942626953125,-52.642822265625,18.218994140625
14.3499999,0.42856210470199585,-9.32302188873291,3.4548330307006836,56.0760498046875,-59.356689453125,14.34326171875
14.3699999,0.43335050344467163,-9.332598686218262,3.5960910320281982,48.1109619140625,-56.57958984375,1.2054443359375
14.389999900000001,0.47884035110473633,-9.3828763961792,3.708618402481079,37.628173828125,-48.614501953125,3.0059814453125
14.4099999,0.5051765441894531,-9.287108421325684,3.7277719974517822,14.2364501953125,-57.2052001953125,10.650634765625
14.4299999,0.5650315880775452,-9.11233139038086,3.7636849880218506,20.782470703125,-65.1397705078125,6.6680908203125
14.4499999,0.5722141861915588,-9.02135181427002,3.600879430770874,39.5965576171875,-62.286376953125,11.7950439453125
14.469999900000001,0.6200982332229614,-8.983044624328613,3.5266590118408203,36.407470703125,-47.4090576171875,12.786865234375
14.4899999,0.6631938815116882,-8.968679428100586,3.4620156288146973,21.6064453125,-46.7987060546875,11.1236572265625
14.5099999,0.7015010714530945,-8.858546257019043,3.4739866256713867,9.9029541015625,-60.302734375,11.71875
14.5299999,0.706289529800415,-8.731653213500977,3.56017804145813,22.9339599609375,-57.2662353515625,22.5677490234375
14.549999900000001,0.6512228846549988,-8.671798706054688,3.641580820083618,28.656005859375,-48.4771728515625,31.829833984375
14.569999900000001,0.569819986820221,-8.681375503540039,3.734954595565796,30.7464599609375,-53.5736083984375,24.71923828125
14.5899999,0.4692635238170624,-8.786720275878906,3.8067808151245117,27.8472900390625,-67.6422119140625,18.646240234375
14.6099999,0.3734954595565796,-9.040505409240723,3.88818359375,12.481689453125,-65.4144287109375,26.031494140625
14.629999900000001,0.33518823981285095,-9.165003776550293,3.773261785507202,17.3187255859375,-59.600830078125,22.2930908203125
14.649999900000001,0.3471592366695404,-9.2033109664917,3.5865142345428467,37.5823974609375,-58.77685546875,14.2059326171875
14.6699999,0.38307225704193115,-9.157821655273438,3.464409828186035,45.10498046875,-54.046630859375,26.2451171875
14.6899999,0.4644751250743866,-8.951920509338379,3.49314022064209,37.4908447265625,-50.750732421875,32.5775146484375
14.709999900000001,0.5003881454467773,-8.774748802185059,3.5697548389434814,26.06201171875,-59.2193603515625,32.8369140625
14.729999900000001,0.47884035110473633,-8.825027465820312,3.6966474056243896,33.9202880859375,-65.4296875,38.299560546875
14.7499999,0.4165911078453064,-8.822632789611816,3.8067808151245117,52.154541015625,-59.7991943359375,32.04345703125
14.7699999,0.3232172429561615,-8.860940933227539,3.909731388092041,82.2296142578125,-60.791015625,34.1339111328125
14.789999900000002,0.17956513166427612,-8.923190116882324,4.055777549743652,59.1278076171875,-61.3250732421875,49.041748046875
14.809999900000001,0.014365210197865963,-9.162610054016113,4.163516521453857,22.64404296875,-60.48583984375,52.8564453125
14.8299999,-0.1628057211637497,-9.524134635925293,4.199429988861084,22.0794677734375,-54.1839599609375,33.0047607421875
14.8499999,-0.26575639843940735,-9.715670585632324,4.201824188232422,24.749755859375,-43.76220703125,11.16943359375
14.8699999,-0.2968810200691223,-9.75397777557373,4.244919776916504,34.7900390625,-44.0826416015625,26.336669921875
14.889999900000001,-0.2753331959247589,-9.564835548400879,4.323928356170654,27.435302734375,-52.581787109375,44.0216064453125
14.9099999,-0.2537853717803955,-9.53849983215332,4.46518611907959,9.033203125,-45.867919921875,40.7562255859375
14.9299999,-0.23942017555236816,-9.560047149658203,4.548983097076416,6.683349609375,-43.853759765625,21.0113525390625
14.9499999,-0.22505496442317963,-9.473855972290039,4.599261283874512,16.3726806640625,-49.0570068359375,15.93017578125
14.969999900000001,-0.17238251864910126,-9.255983352661133,4.699818134307861,24.90234375,-42.9229736328125,37.4755859375
14.9899999,-0.11971008777618408,-9.078812599182129,4.771644115447998,13.5040283203125,-45.989990234375,51.2847900390625
15.0099999,-0.09816227108240128,-8.978256225585938,4.879383087158203,18.280029296875,-53.4210205078125,33.6761474609375
15.0299999,-0.06224924325942993,-8.956708908081055,4.977545261383057,15.9149169921875,-51.3763427734375,16.4031982421875
15.049999900000001,-0.05506663769483566,-8.83939266204834,5.061342239379883,-2.960205078125,-49.774169921875,31.6009521484375
15.069999900000001,-0.0933738648891449,-8.69095230102539,5.020640850067139,-4.1656494140625,-54.290771484375,53.558349609375
15.0899999,-0.1173158809542656,-8.5903959274292,4.862623691558838,3.8299560546875,-43.51806640625,51.239013671875
15.1099999,-0.17956513166427612,-8.89685344696045,4.644751071929932,-20.2484130859375,-20.7672119140625,37.3077392578125
15.129999900000001,-0.24181437492370605,-9.093177795410156,4.551377296447754,-5.2337646484375,-17.2271728515625,27.1453857421875
15.149999900000001,-0.2561795711517334,-9.315838813781738,4.4292731285095215,8.1787109375,-38.970947265625,25.726318359375
15.1699999,-0.3232172429561615,-9.368511199951172,4.496310710906982,5.5999755859375,-37.2467041015625,31.6162109375
15.1899999,-0.36152446269989014,-9.227252960205078,4.474762916564941,5.950927734375,-19.8974609375,16.448974609375
15.209999900000001,-0.3519476354122162,-8.956708908081055,4.4077253341674805,-3.9520263671875,-11.4898681640625,13.0157470703125
15.229999900000001,-0.31842881441116333,-8.729259490966797,4.410119533538818,-20.782470703125,5.0506591796875,27.4658203125
15.2499999,-0.31124621629714966,-8.834604263305664,4.553771495819092,-36.6363525390625,1.129150390625,43.670654296875
15.2699999,-0.3734954595565796,-9.023746490478516,4.541800498962402,-12.3443603515625,-25.1617431640625,21.240234375
15.289999900000002,-0.3519476354122162,-9.306262016296387,4.620809078216553,22.186279296875,1.6326904296875,-15.7928466796875
15.309999900000001,-0.3280056416988373,-9.605537414550781,4.812345504760742,4.150390625,27.0538330078125,11.2152099609375
15.3299999,-0.181959331035614,-9.715670585632324,5.008669853210449,-52.6580810546875,-31.2652587890625,28.350830078125
15.3499999,-0.1149216815829277,-9.8784761428833,5.272032260894775,-89.4012451171875,-81.11572265625,-1.3427734375
15.3699999,-0.2322375625371933,-10.101137161254883,5.231330871582031,-114.3035888671875,-88.5772705078125,-15.68603515625
15.389999900000001,-0.35673606395721436,-9.923966407775879,4.69024133682251,-70.526123046875,-64.75830078125,-23.3001708984375
15.4099999,-0.5363011956214905,-9.607931137084961,4.120420932769775,-19.6533203125,-14.4805908203125,-3.5552978515625
15.4299999,-0.586579442024231,-9.220070838928223,3.6822822093963623,16.571044921875,-17.4407958984375,13.092041015625
15.4499999,-0.507570743560791,-8.951920509338379,3.5889084339141846,25.4669189453125,-49.9420166015625,-1.15966796875
15.469999900000001,-0.3423708379268646,-8.808267593383789,3.7852327823638916,13.7786865234375,-57.708740234375,-14.2059326171875
15.4899999,-0.10055647045373917,-8.793902397155762,4.062960147857666,8.1329345703125,-57.2967529296875,-3.4332275390625
15.5099999,0.1149216815829277,-8.791508674621582,4.170699596405029,6.3629150390625,-77.1026611328125,8.392333984375
15.5299999,0.2944868206977844,-8.80587387084961,4.153939723968506,-8.819580078125,-89.111328125,-3.204345703125
15.549999900000001,0.35913026332855225,-8.978256225585938,3.93367338180542,1.708984375,-73.79150390625,-0.1678466796875
15.569999900000001,0.3687070608139038,-9.133879661560059,3.555389642715454,-9.4451904296875,-34.576416015625,11.383056640625
15.5899999,0.363918662071228,-9.277531623840332,3.2417490482330322,-20.904541015625,-4.3487548828125,9.9029541015625
15.6099999,0.3926490843296051,-9.375694274902344,3.1220390796661377,-13.1683349609375,-1.800537109375,2.38037109375
15.629999900000001,0.45489832758903503,-9.38048267364502,3.1100680828094482,-22.9339599609375,-20.0347900390625,0.8697509765625
15.649999900000001,0.5219359993934631,-9.277531623840332,3.2082302570343018,-27.4200439453125,-19.256591796875,5.7525634765625
15.6699999,0.5746083855628967,-9.196128845214844,3.308786630630493,13.48876953125,-5.67626953125,14.1754150390625
15.6899999,0.5937620401382446,-9.119514465332031,3.404554843902588,15.4266357421875,-6.16455078125,7.50732421875
15.709999900000001,0.5674257874488831,-9.131484985351562,3.5003228187561035,-3.509521484375,-14.739990234375,2.532958984375
15.729999900000001,0.524330198764801,-9.133879661560059,3.646369218826294,-2.1514892578125,-7.965087890625,2.86865234375
15.7499999,0.4572925269603729,-9.083600997924805,3.6367924213409424,-12.1917724609375,-5.5084228515625,8.9874267578125
15.7699999,0.395043283700943,-9.07641887664795,3.5913026332855225,-28.961181640625,0.335693359375,17.3492431640625
15.789999900000002,0.3471592366695404,-9.172186851501465,3.5625722408294678,-21.05712890625,7.049560546875,19.1802978515625
15.809999900000001,0.33279404044151306,-9.29189682006836,3.512293815612793,-10.5133056640625,-3.326416015625,4.8065185546875
15.8299999,0.3495534360408783,-9.473855972290039,3.4811692237854004,-10.7879638671875,-13.24462890625,0.8392333984375
15.8499999,0.3471592366695404,-9.5624418258667,3.4620156288146973,-2.532958984375,-3.9215087890625,4.82177734375
15.869999900000002,0.33758243918418884,-9.509769439697266,3.3231520652770996,-0.946044921875,-2.1514892578125,4.5928955078125
15.889999900000001,0.31842881441116333,-9.564835548400879,3.2393548488616943,-6.1798095703125,2.0599365234375,13.1378173828125
15.9099999,0.2992752194404602,-9.57441234588623,3.1435868740081787,-10.92529296875,3.6468505859375,4.6844482421875
15.9299999,0.2849099934101105,-9.696516990661621,3.0095114707946777,-20.782470703125,-0.5950927734375,-10.345458984375
15.9499999,0.3280056416988373,-9.713275909423828,2.9712042808532715,-10.101318359375,13.48876953125,-13.24462890625
15.969999900000001,0.395043283700943,-9.425971984863281,2.959233283996582,-9.033203125,21.2249755859375,-15.80810546875
15.9899999,0.4908113479614258,-9.188945770263672,2.9759926795959473,4.2266845703125,-0.0762939453125,17.51708984375
16.0099999,0.5746083855628967,-9.071630477905273,3.1435868740081787,13.9923095703125,0.030517578125,34.0728759765625
16.0299999,0.5602431893348694,-9.184157371520996,3.2632968425750732,0.701904296875,-4.4097900390625,9.5977783203125
16.0499999,0.5410895943641663,-9.390059471130371,3.464409828186035,4.2266845703125,-7.8125,-8.9263916015625
16.0699999,0.4381389021873474,-9.493009567260742,3.5218706130981445,10.8642578125,-18.707275390625,7.1563720703125
16.089999900000002,0.42377370595932007,-9.344569206237793,3.555389642715454,14.678955078125,-20.5841064453125,24.2767333984375
16.109999900000002,0.4165911078453064,-9.244012832641602,3.5003228187561035,20.4925537109375,-10.7269287109375,29.9835205078125
16.1299999,0.37828385829925537,-9.23443603515625,3.3949780464172363,0.42724609375,-11.3677978515625,17.425537109375
16.1499999,0.4118026793003082,-9.44991397857666,3.445256233215332,-6.1187744140625,-8.3770751953125,9.1705322265625
16.1699999,0.3878606855869293,-9.643844604492188,3.4189200401306152,11.23046875,-21.881103515625,-0.518798828125
16.1899999,0.42377370595932007,-9.730035781860352,3.471592426300049,16.6015625,-18.646240234375,-9.8114013671875
16.2099999,0.4381389021873474,-9.794678688049316,3.5649664402008057,5.9051513671875,-1.434326171875,-3.143310546875
16.2299999,0.4644751250743866,-9.715670585632324,3.5960910320281982,3.0517578125,-9.8419189453125,-9.8419189453125
16.249999900000002,0.4381389021873474,-9.44752025604248,3.6798880100250244,8.30078125,-15.80810546875,-17.2882080078125
16.269999900000002,0.45489832758903503,-9.260771751403809,3.9001545906066895,1.03759765625,-6.6070556640625,2.9449462890625
16.2899999,0.5386953949928284,-9.20091724395752,3.9456443786621094,3.4027099609375,-20.294189453125,20.01953125
16.3099999,0.6200982332229614,-9.119514465332031,3.84269380569458,-43.243408203125,-23.345947265625,-15.9454345703125
16.3299999,0.6991068720817566,-9.241618156433105,3.9624037742614746,-63.4002685546875,29.1595458984375,-32.77587890625
16.3499999,0.7733271718025208,-9.564835548400879,3.892971992492676,20.294189453125,11.871337890625,2.1820068359375
16.3699999,0.8164227604866028,-9.658209800720215,3.9624037742614746,33.5540771484375,-22.705078125,-21.728515625
16.3899999,0.7733271718025208,-9.624691009521484,4.108449935913086,26.4739990234375,-9.307861328125,-50.35400390625
16.4099999,0.727837324142456,-9.394847869873047,4.218583583831787,63.1103515625,0.5950927734375,-20.7977294921875
16.429999900000002,0.6009446382522583,-8.968679428100586,4.2090067863464355,80.2154541015625,-19.989013671875,19.2108154296875
16.4499999,0.44532153010368347,-8.59997272491455,4.216189384460449,37.933349609375,-17.3187255859375,9.4757080078125
16.4699999,0.3016694188117981,-8.453926086425781,4.309563159942627,23.9105224609375,11.260986328125,-9.9639892578125
16.4899999,0.2968810200691223,-8.497021675109863,4.307168960571289,60.455322265625,13.48876953125,-7.9803466796875
16.5099999,0.3280056416988373,-8.621520042419434,4.175487995147705,-3.3416748046875,-3.96728515625,-1.46484375
16.5299999,0.45010992884635925,-8.724471092224121,4.173093795776367,-55.816650390625,27.0233154296875,-18.2647705078125
16.5499999,0.586579442024231,-9.097966194152832,4.1180267333984375,-22.613525390625,37.017822265625,-12.3748779296875
16.5699999,0.7086837291717529,-9.425971984863281,3.936067581176758,-8.697509765625,-1.373291015625,-19.1650390625
16.589999900000002,0.7757213711738586,-9.452308654785156,3.9217023849487305,-38.421630859375,9.124755859375,-47.1649169921875
16.609999900000002,0.8906430602073669,-9.23682975769043,3.84269380569458,-3.5858154296875,26.30615234375,-23.8037109375
16.6299999,0.9576807022094727,-8.932766914367676,3.7397429943084717,30.609130859375,9.246826171875,19.866943359375
16.6499999,1.0295066833496094,-8.655038833618164,3.8379054069519043,20.4620361328125,6.3323974609375,12.4053955078125
16.6699999,1.070208191871643,-8.583212852478027,4.036623954772949,6.591796875,15.1824951171875,-15.655517578125
16.6899999,1.1037269830703735,-8.803479194641113,4.180276393890381,11.3677978515625,8.331298828125,-2.2735595703125
16.7099999,1.0893617868423462,-8.947132110595703,4.436455726623535,-3.997802734375,10.80322265625,2.7008056640625
16.7299999,1.113303780555725,-9.093177795410156,4.481945514678955,-17.6544189453125,0.2899169921875,-8.8653564453125
16.749999900000002,1.094150185585022,-9.131484985351562,4.402936935424805,-17.27294921875,-8.0718994140625,-12.8173828125
16.769999900000002,1.0558429956436157,-9.0859956741333,4.359841346740723,-10.2081298828125,8.0413818359375,-0.6103515625
16.7899999,1.0103530883789062,-8.99740982055664,4.180276393890381,-8.544921875,-2.044677734375,14.892578125
16.8099999,0.9959878921508789,-9.023746490478516,4.108449935913086,6.011962890625,-14.984130859375,10.7574462890625
16.8299999,0.9768342971801758,-9.119514465332031,4.022258758544922,16.8914794921875,-14.129638671875,-6.8511962890625
16.8499999,0.993593692779541,-9.184157371520996,3.9887399673461914,25.3143310546875,-6.927490234375,-14.312744140625
16.8699999,0.993593692779541,-9.184157371520996,4.048594951629639,21.6064453125,-6.6986083984375,-2.3040771484375
16.8899999,1.0342950820922852,-9.124302864074707,4.120420932769775,10.711669921875,-19.2413330078125,8.270263671875
16.9099999,1.0749965906143188,-9.100360870361328,4.2090067863464355,-3.448486328125,-17.1661376953125,-0.5035400390625
16.929999900000002,1.1204863786697388,-9.035717010498047,4.350264549255371,-16.66259765625,0.79345703125,-13.2293701171875
16.9499999,1.1755530834197998,-9.057265281677246,4.271255970001221,-10.1318359375,-9.918212890625,0.3204345703125
16.9699999,1.1659762859344482,-8.978256225585938,4.273650169372559,-0.9613037109375,-14.0838623046875,5.767822265625
16.9899999,1.161187767982483,-8.860940933227539,4.252102375030518,-2.2430419921875,-4.7760009765625,-2.7008056640625
17.0099999,1.115697979927063,-8.918401718139648,4.175487995147705,-1.5106201171875,-8.0718994140625,6.34765625
17.0299999,1.0845733880996704,-8.951920509338379,4.156333923339844,3.1280517578125,-7.965087890625,6.65283203125
17.0499999,1.05105459690094,-8.992621421813965,4.14915132522583,0.1068115234375,-5.9356689453125,-3.2196044921875
17.0699999,1.0534487962722778,-9.069235801696777,4.1611223220825195,-2.4871826171875,-5.06591796875,1.8157958984375
17.089999900000002,1.0989385843276978,-9.102754592895508,4.094084739685059,-2.349853515625,-8.453369140625,6.1798095703125
17.109999900000002,1.158793568611145,-9.071630477905273,4.094084739685059,2.13623046875,-1.1749267578125,-1.2359619140625
17.1299999,1.1851298809051514,-9.057265281677246,4.086902141571045,1.434326171875,2.6397705078125,-4.180908203125
17.1499999,1.173158884048462,-8.983044624328613,4.0964789390563965,-2.0904541015625,-5.584716796875,0.732421875
17.1699999,1.1324573755264282,-8.916007041931152,4.151545524597168,-0.54931640625,-6.3934326171875,7.8277587890625
17.1899999,1.0845733880996704,-8.815450668334961,4.129997730255127,9.521484375,-4.730224609375,8.0413818359375
17.2099999,1.0462661981582642,-8.757989883422852,4.165910720825195,9.185791015625,3.60107421875,7.8277587890625
17.2299999,1.0247182846069336,-8.868123054504395,3.97916316986084,15.899658203125,5.096435546875,16.143798828125
17.249999900000002,0.9672574996948242,-9.02135181427002,3.909731388092041,33.8134765625,24.8565673828125,6.6680908203125
17.269999900000002,0.9050082564353943,-9.246406555175781,3.866635799407959,69.39697265625,42.29736328125,-7.598876953125
17.2899999,0.8667010068893433,-9.425971984863281,3.8570590019226074,63.5833740234375,26.123046875,-10.1318359375
17.3099999,0.7972691655158997,-9.433155059814453,4.1180267333984375,42.449951171875,25.2685546875,-15.899658203125
17.3299999,0.8068459630012512,-9.478644371032715,4.393360137939453,40.2374267578125,22.1099853515625,-14.9078369140625
17.3499999,0.8020575642585754,-9.361329078674316,4.534617900848389,30.7159423828125,0.579833984375,-18.06640625
17.3699999,0.8140285611152649,-9.162610054016113,4.338293552398682,6.927490234375,-5.1116943359375,-23.590087890625
17.3899999,0.8355764150619507,-9.074024200439453,3.9647979736328125,12.5732421875,22.613525390625,2.197265625
17.409999900000003,0.7374141216278076,-9.050082206726074,3.3423056602478027,22.4761962890625,24.71923828125,10.894775390625
17.429999900000002,0.5770025849342346,-9.220070838928223,2.6647465229034424,10.3302001953125,12.237548828125,-8.514404296875
17.4499999,0.3064578175544739,-9.466673851013184,1.742978811264038,1.312255859375,12.6190185546875,-16.9219970703125
17.4699999,-0.05506663769483566,-9.801861763000488,0.7948749661445618,2.4871826171875,49.774169921875,-1.9378662109375
17.4899999,-0.45489832758903503,-10.383652687072754,-0.3280056416988373,-0.946044921875,68.939208984375,14.8468017578125
17.5099999,-0.8690952062606812,-11.312602996826172,-1.5179238319396973,-3.173828125,58.0902099609375,-4.1351318359375
17.5299999,-1.3503297567367554,-12.650961875915527,-2.6240451335906982,11.0931396484375,72.8912353515625,-25.482177734375
17.5499999,-1.9177556037902832,-14.176068305969238,-3.643975019454956,18.768310546875,113.28125,-35.736083984375
17.5699999,-2.604891538619995,-15.524003982543945,-4.4077253341674805,24.5361328125,136.810302734375,-54.4586181640625
17.589999900000002,-3.428496837615967,-16.6612491607666,-4.831499099731445,43.304443359375,146.30126953125,-79.1168212890625
17.609999900000002,-4.369418144226074,-17.099388122558594,-4.517858505249023,61.5692138671875,179.046630859375,-117.3095703125
17.6299999,-5.4013190269470215,-17.056293487548828,-3.536235809326172,64.75830078125,206.5582275390625,-140.9149169921875
17.6499999,-6.485892295837402,-16.35718536376953,-1.8100165128707886,27.16064453125,204.2236328125,-160.247802734375
17.6699999,-7.603984832763672,-15.24867057800293,0.37828385829925537,2.3651123046875,197.052001953125,-184.2803955078125
17.6899999,-8.573636054992676,-13.548787117004395,2.765302896499634,29.6478271484375,212.3870849609375,-203.9794921875
17.7099999,-9.457097053527832,-12.15296745300293,5.4228668212890625,51.055908203125,235.16845703125,-182.8765869140625
17.7299999,-9.959878921508789,-10.45547866821289,8.123526573181152,9.1094970703125,216.36962890625,-203.4149169921875
17.749999900000002,-10.108319282531738,-9.224859237670898,10.350133895874023,-36.5753173828125,144.622802734375,-232.7423095703125
17.769999900000002,-9.816226959228516,-8.125920295715332,11.920730590820312,-41.168212890625,140.31982421875,-230.804443359375
17.7899999,-9.160215377807617,-7.196970462799072,12.394782066345215,-31.2347412109375,166.7633056640625,-212.9058837890625
17.8099999,-8.233659744262695,-5.87776517868042,12.394782066345215,-25.7720947265625,178.7261962890625,-212.860107421875
17.8299999,-7.216124057769775,-4.845864295959473,11.994950294494629,-39.8406982421875,133.880615234375,-190.338134765625
17.8499999,-6.358999729156494,-3.464409828186035,11.621455192565918,-47.8363037109375,109.405517578125,-167.816162109375
17.8699999,-5.686229228973389,-2.2864625453948975,11.487380027770996,-39.7186279296875,147.4456787109375,-148.193359375
17.8899999,-5.262455463409424,-1.4460978507995605,11.695674896240234,-36.5447998046875,159.8663330078125,-102.142333984375
17.909999900000003,-4.845864295959473,-0.730231523513794,12.124237060546875,-78.43017578125,93.75,-114.5477294921875
17.929999900000002,-4.364629745483398,-0.7924807667732239,12.662932395935059,-97.16796875,44.5098876953125,-94.757080078125
17.9499999,-3.6296098232269287,-1.1348515748977661,12.756306648254395,-65.73486328125,52.703857421875,-74.7528076171875
17.9699999,-2.7461493015289307,-1.5298948287963867,12.176909446716309,-35.858154296875,53.314208984375,-74.371337890625
17.9899999,-1.8626888990402222,-2.1523873805999756,11.314997673034668,-32.623291015625,44.281005859375,-37.933349609375
18.0099999,-1.0678139925003052,-2.873042106628418,10.400412559509277,-42.7703857421875,36.80419921875,-12.87841796875
18.0299999,-0.3687070608139038,-3.488351821899414,9.557653427124023,-37.322998046875,25.7720947265625,-30.487060546875
18.0499999,0.17477671802043915,-4.288015365600586,8.760383605957031,-23.712158203125,18.5394287109375,-30.8380126953125
18.0699999,0.6033388376235962,-5.006275653839111,8.058882713317871,-15.3656005859375,18.2342529296875,-0.18310546875
18.089999900000002,0.9552865028381348,-5.494692802429199,7.553706169128418,-12.420654296875,24.3682861328125,0.4730224609375
18.109999900000002,1.2066776752471924,-6.088454723358154,7.010222434997559,2.197265625,14.34326171875,-0.213623046875
18.1299999,1.4245500564575195,-6.672640323638916,6.809109687805176,20.294189453125,20.8892822265625,4.0130615234375
18.1499999,1.5969325304031372,-7.026981830596924,6.682217121124268,20.3704833984375,19.683837890625,-4.974365234375
18.1699999,1.702277421951294,-7.163451671600342,6.675034523010254,9.307861328125,2.7923583984375,-4.5013427734375
18.1899999,1.7573440074920654,-7.015010833740234,6.8378400802612305,2.471923828125,2.7313232421875,2.532958984375
18.2099999,1.7477672100067139,-6.904877662658691,6.8593878746032715,3.173828125,-2.50244140625,13.3209228515625
18.2299999,1.723825216293335,-6.811503887176514,6.919242858886719,14.83154296875,-2.0751953125,6.5460205078125
18.249999900000002,1.7190368175506592,-6.926425457000732,6.936002254486084,13.7481689453125,0.7781982421875,5.0506591796875
18.269999900000002,1.7310078144073486,-7.141903877258301,6.885724067687988,3.90625,-14.4805908203125,17.2271728515625
18.2899999,1.7932571172714233,-7.501033782958984,6.842628479003906,14.8468017578125,-14.434814453125,23.62060546875
18.3099999,1.8602946996688843,-7.891288757324219,6.7277069091796875,27.52685546875,-11.0931396484375,17.5628662109375
18.3299999,1.9393033981323242,-8.219294548034668,6.605602264404297,19.3634033203125,-10.345458984375,8.2550048828125
18.3499999,1.9919757843017578,-8.38449478149414,6.466738700866699,9.94873046875,-12.176513671875,10.894775390625
18.3699999,2.0805611610412598,-8.482656478881836,6.332663536071777,6.0882568359375,-8.9263916015625,17.2119140625
18.3899999,2.121262788772583,-8.422801971435547,6.289567947387695,-1.0833740234375,-3.570556640625,5.615234375
18.409999900000003,2.1715409755706787,-8.307879447937012,6.184223175048828,-7.4310302734375,-9.70458984375,-10.101318359375
18.429999900000002,2.1308395862579346,-8.185775756835938,6.215347766876221,-5.8441162109375,-12.75634765625,3.5858154296875
18.4499999,2.0422539710998535,-7.970297336578369,6.275202751159668,-10.8795166015625,-4.791259765625,7.476806640625
18.4699999,1.9273324012756348,-7.812280178070068,6.2632317543029785,-18.890380859375,-10.345458984375,5.2032470703125
18.4899999,1.843535304069519,-7.73087739944458,6.248866558074951,-10.2996826171875,-7.232666015625,3.1280517578125
18.5099999,1.7908629179000854,-7.807491779327393,6.222530364990234,-1.983642578125,-4.6234130859375,8.5296630859375
18.5299999,1.7717092037200928,-7.94635534286499,6.179434776306152,-10.6658935546875,-9.002685546875,5.8135986328125
18.5499999,1.7741034030914307,-8.121131896972656,6.088454723358154,-24.7802734375,-16.8609619140625,-4.486083984375
18.5699999,1.8124107122421265,-8.226476669311523,5.920860767364502,-24.3682861328125,-10.833740234375,-4.058837890625
18.589999900000002,1.8339585065841675,-8.159439086914062,5.700594425201416,-21.148681640625,-1.434326171875,5.401611328125
18.609999900000002,1.8100165128707886,-8.094796180725098,5.57370138168335,-11.8560791015625,1.8310546875,18.4173583984375
18.6299999,1.7549498081207275,-8.078036308288574,5.614402770996094,-14.6636962890625,-2.0751953125,12.115478515625
18.6499999,1.678335428237915,-8.11634349822998,5.762843608856201,-22.1405029296875,-14.7705078125,-4.6844482421875
18.6699999,1.6615760326385498,-8.245630264282227,5.789179801940918,-10.8642578125,-22.15576171875,-2.6702880859375
18.6899999,1.6735470294952393,-8.152256965637207,5.746084213256836,1.89208984375,-12.8173828125,2.38037109375
18.7099999,1.7310078144073486,-8.056488990783691,5.559336185455322,4.2877197265625,-4.974365234375,10.6353759765625
18.7299999,1.7549498081207275,-8.018181800842285,5.468356609344482,-0.30517578125,-8.8348388671875,16.0980224609375
18.749999900000002,1.745373010635376,-7.94635534286499,5.432443618774414,4.0740966796875,-16.7236328125,6.8511962890625
18.769999900000002,1.7118542194366455,-7.898471355438232,5.475539207458496,13.7939453125,-18.524169921875,8.880615234375
18.7899999,1.6519991159439087,-7.920019149780273,5.494692802429199,20.599365234375,-19.317626953125,24.505615234375
18.8099999,1.5753847360610962,-7.931990146636963,5.549759387969971,22.796630859375,-20.1873779296875,18.585205078125
18.8299999,1.4772224426269531,-7.924807548522949,5.566518783569336,24.5819091796875,-23.8494873046875,-1.2054443359375
18.8499999,1.4053963422775269,-7.884106159210205,5.609614372253418,25.360107421875,-20.8892822265625,1.6326904296875
18.8699999,1.4101848602294922,-7.682993412017822,5.6455278396606445,18.8751220703125,-12.8631591796875,15.8233642578125
18.8899999,1.4508862495422363,-7.524975776672363,5.69580602645874,9.124755859375,-13.031005859375,23.9715576171875
18.909999900000003,1.5298948287963867,-7.489062786102295,5.805939197540283,6.2255859375,-15.3350830078125,17.730712890625
18.929999900000002,1.625662922859192,-7.575253963470459,5.918466567993164,2.349853515625,-19.7601318359375,8.6212158203125
18.9499999,1.6855180263519287,-7.735665798187256,5.92325496673584,-3.3111572265625,-26.18408203125,12.542724609375
18.9699999,1.7381904125213623,-7.9176249504089355,5.882553577423096,-1.2969970703125,-19.7296142578125,20.7061767578125
18.9899999,1.7741034030914307,-8.125920295715332,5.779603004455566,-2.4871826171875,-11.077880859375,15.350341796875
19.0099999,1.8148049116134644,-8.389283180236816,5.671864032745361,-0.640869140625,-13.7786865234375,8.97216796875
19.0299999,1.821987509727478,-8.489839553833008,5.585672378540039,6.011962890625,-18.8751220703125,5.1422119140625
19.0499999,1.800439715385437,-8.42040729522705,5.5976433753967285,14.251708984375,-12.664794921875,10.6048583984375
19.0699999,1.7549498081207275,-8.178592681884766,5.65031623840332,2.3193359375,-9.9334716796875,15.7928466796875
19.089999900000002,1.6831238269805908,-8.037335395812988,5.762843608856201,-11.322021484375,-15.6707763671875,19.989013671875
19.109999900000002,1.6400281190872192,-7.953537940979004,5.884947776794434,-10.55908203125,-17.9290771484375,15.655517578125
19.1299999,1.6519991159439087,-7.967903137207031,5.863399982452393,-4.852294921875,-22.186279296875,10.772705078125
19.1499999,1.6831238269805908,-8.063671112060547,5.750872611999512,-1.8157958984375,-18.9361572265625,20.5841064453125
19.1699999,1.7118542194366455,-8.121131896972656,5.664681434631348,-1.8768310546875,-10.4522705078125,21.392822265625
19.1899999,1.702277421951294,-8.058882713317871,5.6670756340026855,-3.326416015625,-10.9405517578125,10.5743408203125
19.2099999,1.6519991159439087,-7.922413349151611,5.760449409484863,-2.44140625,-19.8211669921875,14.068603515625
19.2299999,1.577778935432434,-7.735665798187256,5.9088897705078125,7.26318359375,-18.6767578125,28.167724609375
19.249999900000002,1.4939818382263184,-7.50582218170166,6.0405707359313965,-2.3193359375,-9.918212890625,27.2369384765625
19.269999900000002,1.4772224426269531,-7.429207801818848,6.102819919586182,-3.265380859375,-11.3372802734375,23.1170654296875
19.2899999,1.4508862495422363,-7.371747016906738,6.155492782592773,11.6424560546875,-21.9573974609375,25.909423828125
19.3099999,1.4269442558288574,-7.287950038909912,6.22731876373291,7.171630859375,-19.7601318359375,29.083251953125
19.3299999,1.381454348564148,-7.196970462799072,6.291962146759033,-3.387451171875,-16.5252685546875,39.764404296875
19.3499999,1.1635819673538208,-7.12035608291626,6.466738700866699,-16.8304443359375,-13.427734375,40.1763916015625
19.3699999,0.9313444495201111,-7.137115478515625,6.6846113204956055,-25.421142578125,-13.0767822265625,37.811279296875
19.3899999,0.6607996821403503,-7.364564418792725,6.8593878746032715,-25.970458984375,-17.2576904296875,41.68701171875
19.409999900000003,0.45489832758903503,-7.723694801330566,7.146692276000977,-18.0511474609375,-15.56396484375,40.0848388671875
19.429999900000002,0.3711012601852417,-8.020575523376465,7.184999465942383,3.72314453125,-44.12841796875,27.8778076171875
19.4499999,0.35434186458587646,-8.180987358093262,7.216124057769775,17.3797607421875,-53.680419921875,27.4505615234375
19.4699999,0.45010992884635925,-8.11634349822998,7.144298076629639,21.8353271484375,-45.623779296875,40.5426025390625
19.4899999,0.5147533416748047,-8.020575523376465,6.9910688400268555,-6.195068359375,-48.004150390625,52.06298828125
19.5099999,0.6009446382522583,-7.934384346008301,6.813898086547852,-37.017822265625,-51.45263671875,41.2750244140625
19.5299999,0.667982280254364,-7.939172744750977,6.576871871948242,-29.296875,-54.3060302734375,32.3486328125
19.5499999,0.6488286852836609,-8.123526573181152,6.404489517211914,2.0599365234375,-49.407958984375,39.5050048828125
19.5699999,0.608127236366272,-8.276755332946777,6.311115741729736,11.5966796875,-52.215576171875,34.24072265625
19.589999900000002,0.5123591423034668,-8.322244644165039,6.265625953674316,-3.204345703125,-71.83837890625,11.3677978515625
19.609999900000002,0.4141969084739685,-8.190564155578613,6.210559368133545,-3.173828125,-81.878662109375,12.9547119140625
19.6299999,0.45489832758903503,-8.01339340209961,5.889736175537109,3.8299560546875,-77.9876708984375,34.5001220703125
19.6499999,0.4572925269603729,-7.738059997558594,5.434837818145752,-16.6778564453125,-64.1326904296875,34.2864990234375
19.6699999,0.5602431893348694,-7.553706169128418,5.018246650695801,-31.2957763671875,-54.0924072265625,23.162841796875
19.6899999,0.5315127968788147,-7.599195957183838,4.745307922363281,-27.069091796875,-67.5201416015625,51.513671875
19.7099999,0.4118026793003082,-7.577648162841797,4.680664539337158,-23.25439453125,-77.3162841796875,68.4051513671875
19.7299999,0.23942017555236816,-7.709329605102539,4.699818134307861,-32.012939453125,-71.8231201171875,71.319580078125
19.749999900000002,0.05746084079146385,-8.24084186553955,4.548983097076416,-30.5938720703125,-74.15771484375,74.462890625
19.769999900000002,-0.07661445438861847,-8.995016098022461,4.2329487800598145,-23.9715576171875,-75.6988525390625,49.3011474609375
19.7899999,-0.14844051003456116,-9.682151794433594,3.845088005065918,-6.1187744140625,-59.326171875,12.6953125
19.8099999,-0.17477671802043915,-10.012551307678223,3.5721490383148193,6.8817138671875,-47.5311279296875,12.908935546875
19.8299999,-0.2106897532939911,-10.0580415725708,3.406949043273926,12.3138427734375,-61.126708984375,47.4853515625
19.8499999,-0.2513911724090576,-9.84495735168457,3.3279404640197754,6.8359375,-72.8759765625,49.4384765625
19.8699999,-0.31364041566848755,-9.785101890563965,3.315969467163086,-3.936767578125,-54.046630859375,28.1982421875
19.8899999,-0.3758896589279175,-10.077195167541504,3.1723172664642334,12.3748779296875,-47.30224609375,28.3050537109375
19.909999900000003,-0.42377370595932007,-10.414777755737305,3.0573954582214355,17.3187255859375,-53.89404296875,20.4925537109375
19.929999900000002,-0.4141969084739685,-10.678139686584473,2.9879636764526367,4.1046142578125,-53.0242919921875,2.7618408203125
19.9499999,-0.3471592366695404,-10.8720703125,2.7916390895843506,7.110595703125,-55.2978515625,10.3912353515625
19.9699999,-0.20111294090747833,-10.898406028747559,2.535459518432617,23.4832763671875,-48.3856201171875,19.9127197265625
19.9899999,-0.026336219161748886,-10.805032730102539,2.4229321479797363,25.5279541015625,-26.1688232421875,8.2855224609375
20.0099999,0.1628057211637497,-10.57040023803711,2.516305923461914,11.0015869140625,-27.984619140625,-12.3291015625
20.0299999,0.3208230137825012,-10.232817649841309,2.7676970958709717,13.5498046875,-54.4891357421875,-11.444091796875
20.0499999,0.4572925269603729,-9.81143856048584,3.095702886581421,17.5323486328125,-56.7626953125,-6.683349609375
20.0699999,0.6344634294509888,-9.531316757202148,3.3207578659057617,27.6947021484375,-41.19873046875,-3.4332275390625
20.089999900000002,0.7829039692878723,-9.32541561126709,3.4380736351013184,19.6075439453125,-45.22705078125,-18.3258056640625
20.109999900000002,0.9457096457481384,-9.35893440246582,3.509899616241455,-1.8463134765625,-58.77685546875,-27.28271484375
20.1299999,1.048660397529602,-9.411606788635254,3.536235809326172,-11.1236572265625,-62.103271484375,-24.90234375
