# Time (seconds),Accel_X,Accel_Y,Accel_Z,Gyro_X,Gyro_Y,Gyro_Z
0.0099999,1.577778935432434,9.260771751403809,-0.4884171485900879,-3.0975341796875,-4.21142578125,-8.9874267578125
0.029999900000000003,1.5131354331970215,9.397241592407227,-0.5746083855628967,-2.838134765625,-2.38037109375,-8.3465576171875
0.0499999,1.4460978507995605,9.581595420837402,-0.6560112833976746,-0.67138671875,-2.777099609375,-7.2174072265625
0.0699999,1.3934253454208374,9.794678688049316,-0.7038952708244324,0.4119873046875,0.30517578125,-5.5389404296875
0.08999990000000001,1.3503297567367554,9.974244117736816,-0.6967126727104187,2.5177001953125,-0.762939453125,-3.7384033203125
0.10999990000000001,1.3239935636520386,10.08198356628418,-0.608127236366272,2.197265625,1.129150390625,-1.861572265625
0.1299999,1.3048399686813354,10.067618370056152,-0.507570743560791,4.5013427734375,-1.434326171875,-2.50244140625
0.14999990000000002,1.3000515699386597,9.981427192687988,-0.3974374830722809,-0.18310546875,-0.8087158203125,-3.5858154296875
0.1699999,1.3215993642807007,9.907206535339355,-0.31603461503982544,-2.7313232421875,0.0457763671875,-4.8828125
0.1899999,1.3623007535934448,9.880870819091797,-0.2777273952960968,-2.44140625,1.6937255859375,-2.5634765625
0.20999990000000002,1.4053963422775269,9.93593692779541,-0.31364041566848755,-1.0833740234375,-1.4190673828125,-0.2593994140625
0.2299999,1.4460978507995605,9.986215591430664,-0.31124621629714966,0.42724609375,3.021240234375,2.5482177734375
0.2499999,1.460463047027588,10.079588890075684,-0.38067805767059326,-2.593994140625,0.9918212890625,2.2735595703125
0.2699999,1.4700398445129395,10.079588890075684,-0.45010992884635925,2.7313232421875,-1.678466796875,4.425048828125
0.28999990000000003,1.4676456451416016,10.089165687561035,-0.5315127968788147,3.7841796875,1.8463134765625,5.5084228515625
0.3099999,1.4724340438842773,10.041281700134277,-0.6224924325942993,1.922607421875,4.08935546875,5.157470703125
0.3299999,1.479616641998291,9.967061996459961,-0.7110779285430908,4.0435791015625,3.1280517578125,4.57763671875
0.34999990000000003,1.4987702369689941,9.84256362915039,-0.7015010714530945,5.2642822265625,5.6304931640625,6.89697265625
0.3699999,1.5179238319396973,9.708487510681152,-0.6536170840263367,2.685546875,3.47900390625,5.340576171875
0.3899999,1.5394717454910278,9.550470352172852,-0.5770025849342346,-0.5035400390625,-2.01416015625,3.2806396484375
0.40999990000000003,1.5490485429763794,9.404424667358398,-0.5171475410461426,-8.0413818359375,-3.387451171875,1.434326171875
0.4299999,1.5322890281677246,9.299078941345215,-0.5267243981361389,-11.383056640625,-1.2054443359375,-0.274658203125
0.4499999,1.5059528350830078,9.244012832641602,-0.5363011956214905,-11.8865966796875,3.6163330078125,-1.3580322265625
0.4699999,1.479616641998291,9.255983352661133,-0.5482721924781799,-7.8582763671875,2.9449462890625,-1.983642578125
0.4899999,1.4676456451416016,9.318233489990234,-0.4908113479614258,-4.4708251953125,2.13623046875,-1.9378662109375
0.5099999,1.4724340438842773,9.41639518737793,-0.42856210470199585,-1.129150390625,0.1678466796875,-1.5411376953125
0.5299999,1.4891934394836426,9.50737476348877,-0.3711012601852417,-0.18310546875,-0.762939453125,-1.8157958984375
0.5499999,1.501164436340332,9.600749015808105,-0.3495534360408783,-3.35693359375,0.1678466796875,-2.960205078125
0.5699999,1.5155296325683594,9.682151794433594,-0.3471592366695404,-0.4730224609375,1.434326171875,-2.471923828125
0.5899998999999999,1.5275006294250488,9.758766174316406,-0.36152446269989014,2.105712890625,1.220703125,0.67138671875
0.6099998999999999,1.534683346748352,9.799467086791992,-0.3447650372982025,-0.0152587890625,0.0457763671875,1.28173828125
0.6299999,1.5418659448623657,9.816226959228516,-0.3495534360408783,-0.42724609375,1.0223388671875,0.0762939453125
0.6499999,1.5514427423477173,9.794678688049316,-0.31603461503982544,1.0528564453125,2.2125244140625,0.06103515625
0.6699999,1.558625340461731,9.787496566772461,-0.3016694188117981,2.105712890625,0.7476806640625,0.030517578125
0.6899999,1.5658079385757446,9.739612579345703,-0.28730419278144836,3.662109375,-0.213623046875,2.3193359375
0.7099999,1.5634137392044067,9.708487510681152,-0.2849099934101105,2.1209716796875,0.152587890625,0.335693359375
0.7299998999999999,1.556231141090393,9.667786598205566,-0.31364041566848755,3.4637451171875,-0.1220703125,-1.5716552734375
0.7499998999999999,1.5394717454910278,9.617507934570312,-0.3519476354122162,4.9591064453125,2.0751953125,1.4495849609375
0.7699999,1.5275006294250488,9.576807022094727,-0.3926490843296051,4.486083984375,1.495361328125,2.105712890625
0.7899999,1.5131354331970215,9.533711433410645,-0.42377370595932007,2.4566650390625,1.0986328125,-0.8087158203125
0.8099999,1.5083470344543457,9.48343276977539,-0.43095630407333374,0.518798828125,0.79345703125,-1.129150390625
0.8299999,1.501164436340332,9.452308654785156,-0.40940847992897034,1.4801025390625,-0.091552734375,-1.739501953125
0.8499998999999999,1.4915876388549805,9.461885452270508,-0.4141969084739685,1.5106201171875,-1.922607421875,-1.0528564453125
0.8699998999999999,1.4844050407409668,9.48343276977539,-0.4357447028160095,1.2664794921875,-1.6326904296875,-0.8392333984375
0.8899999,1.4772224426269531,9.516951560974121,-0.48602294921875,0.396728515625,1.0986328125,-1.7852783203125
0.9099999,1.4724340438842773,9.548076629638672,-0.5386953949928284,-0.823974609375,0.7171630859375,-2.8533935546875
0.9299999,1.4652514457702637,9.593565940856934,-0.5770025849342346,-1.220703125,-0.2288818359375,-3.84521484375
0.9499999,1.4700398445129395,9.62947940826416,-0.5985504388809204,1.2054443359375,0.5645751953125,-1.15966796875
0.9699998999999999,1.4748282432556152,9.691728591918945,-0.6009446382522583,0.579833984375,1.89208984375,-1.9989013671875
0.9899998999999999,1.4844050407409668,9.718064308166504,-0.586579442024231,-0.8544921875,2.38037109375,-1.3580322265625
1.0099999,1.4867992401123047,9.749189376831055,-0.5889736413955688,-0.213623046875,1.495361328125,-1.52587890625
1.0299999,1.4891934394836426,9.75637149810791,-0.545877993106842,0.3204345703125,1.922607421875,-1.5869140625
1.0499999,1.4844050407409668,9.768342971801758,-0.5410895943641663,-0.1068115234375,0.7476806640625,-1.4495849609375
1.0699999,1.479616641998291,9.761159896850586,-0.5195417404174805,0.48828125,0.48828125,-1.1138916015625
1.0899999,1.4676456451416016,9.749189376831055,-0.5291185975074768,-0.5950927734375,0.3509521484375,-0.42724609375
1.1099999,1.4532804489135742,9.6989107131958,-0.5315127968788147,-0.152587890625,1.2969970703125,-0.732421875
1.1299999,1.4293384552001953,9.648633003234863,-0.5674257874488831,0.79345703125,1.5716552734375,-1.800537109375
1.1499999,1.4101848602294922,9.59596061706543,-0.569819986820221,0.9613037109375,3.448486328125,-2.3193359375
1.1699998999999999,1.400607943534851,9.564835548400879,-0.5746083855628967,2.044677734375,3.692626953125,-0.79345703125
1.1899998999999999,1.3862427473068237,9.57201862335205,-0.5746083855628967,0.91552734375,0.4730224609375,-2.13623046875
1.2099999,1.3910311460494995,9.567230224609375,-0.5650315880775452,-0.1983642578125,3.3721923828125,-1.068115234375
1.2299999,1.3910311460494995,9.610325813293457,-0.5506663918495178,-1.434326171875,2.99072265625,-3.5247802734375
1.2499999,1.3982137441635132,9.641449928283691,-0.524330198764801,-1.190185546875,3.7078857421875,-2.2125244140625
1.2699999,1.403002142906189,9.691728591918945,-0.4908113479614258,0.518798828125,2.13623046875,-0.6866455078125
1.2899999,1.4101848602294922,9.739612579345703,-0.45489832758903503,0.5035400390625,2.50244140625,-0.732421875
1.3099999,1.4197616577148438,9.782708168029785,-0.4213795065879822,-0.6866455078125,3.662109375,-1.2054443359375
1.3299999,1.4197616577148438,9.825803756713867,-0.4165911078453064,-0.5035400390625,3.021240234375,-0.579833984375
1.3499999,1.4197616577148438,9.837775230407715,-0.40462008118629456,0.3814697265625,1.800537109375,1.678466796875
1.3699999,1.4173674583435059,9.84256362915039,-0.40222588181495667,0.2593994140625,2.4566650390625,0.885009765625
1.3899999,1.414973258972168,9.837775230407715,-0.3998316824436188,-1.2359619140625,1.9683837890625,-1.007080078125
1.4099999,1.414973258972168,9.821015357971191,-0.3998316824436188,-0.48828125,1.3275146484375,0.6256103515625
1.4299998999999999,1.4101848602294922,9.81143856048584,-0.3974374830722809,2.0599365234375,0.6866455078125,2.2430419921875
1.4499999,1.4053963422775269,9.775525093078613,-0.4141969084739685,0.48828125,0.9613037109375,2.5787353515625
1.4699999,1.3958195447921753,9.72285270690918,-0.42377370595932007,0.5950927734375,2.44140625,0.6866455078125
1.4899999,1.3958195447921753,9.677363395690918,-0.4118026793003082,0.4119873046875,1.89208984375,-0.0762939453125
1.5099999,1.3934253454208374,9.655815124511719,-0.4189853072166443,1.373291015625,-1.6326904296875,0.6866455078125
1.5299999,1.3982137441635132,9.636661529541016,-0.4213795065879822,1.5869140625,-1.495361328125,2.0599365234375
1.5499999,1.3982137441635132,9.651026725769043,-0.42856210470199585,-0.48828125,1.434326171875,0.2899169921875
1.5699999,1.3958195447921753,9.648633003234863,-0.4620809257030487,-0.4425048828125,0.0152587890625,0.152587890625
1.5899999,1.3934253454208374,9.641449928283691,-0.4884171485900879,1.52587890625,-0.701904296875,2.2125244140625
1.6099999,1.3910311460494995,9.634267807006836,-0.5147533416748047,1.2359619140625,-0.2288818359375,1.46484375
1.6299999,1.3934253454208374,9.607931137084961,-0.5291185975074768,0.091552734375,1.5106201171875,-0.091552734375
1.6499999,1.3982137441635132,9.581595420837402,-0.5506663918495178,-0.274658203125,-0.2288818359375,-0.8697509765625
1.6699999,1.4077905416488647,9.5624418258667,-0.5530605912208557,0.579833984375,-0.1983642578125,-0.1983642578125
1.6899998999999999,1.4197616577148438,9.57441234588623,-0.5554547905921936,0.030517578125,0.4425048828125,-0.4730224609375
1.7099999,1.4293384552001953,9.588777542114258,-0.5626373887062073,0.1068115234375,1.1749267578125,-0.6561279296875
1.7299999,1.436521053314209,9.586383819580078,-0.569819986820221,-0.4425048828125,0.5340576171875,0.2593994140625
1.7499999,1.434126853942871,9.567230224609375,-0.569819986820221,0.1983642578125,-0.213623046875,-0.6103515625
1.7699999,1.4221558570861816,9.495404243469238,-0.5674257874488831,1.1749267578125,0.885009765625,-1.0833740234375
1.7899999,1.4221558570861816,9.418789863586426,-0.5554547905921936,1.1138916015625,2.1820068359375,-2.4871826171875
1.8099999,1.4245500564575195,9.332598686218262,-0.5482721924781799,1.03759765625,0.9613037109375,-4.0130615234375
1.8299999,1.4460978507995605,9.306262016296387,-0.5506663918495178,0.0762939453125,0.30517578125,-6.65283203125
1.8499999,1.479616641998291,9.313444137573242,-0.586579442024231,-0.6103515625,0.18310546875,-7.75146484375
1.8699999,1.53707754611969,9.32541561126709,-0.6177040338516235,0.518798828125,3.936767578125,-8.4075927734375
1.8899999,1.6400281190872192,9.35893440246582,-0.6847416758537292,5.859375,2.50244140625,-19.3328857421875
1.9099999,1.821987509727478,9.533711433410645,-0.6009446382522583,15.1214599609375,3.997802734375,-37.9791259765625
1.9299998999999999,2.0614075660705566,10.046070098876953,-0.5770025849342346,18.61572265625,-5.1116943359375,-48.858642578125
1.9499999,2.4181437492370605,11.228805541992188,-0.40940847992897034,-2.5177001953125,-9.21630859375,-43.4112548828125
1.9699999,2.808398485183716,13.390769958496094,-0.4405331015586853,-36.8499755859375,-6.591796875,-32.5469970703125
1.9899999,3.2393548488616943,16.328454971313477,-0.3687070608139038,-50.323486328125,3.936767578125,4.1656494140625
2.0099999,3.5410242080688477,19.845537185668945,-0.4836287498474121,-59.0667724609375,10.7269287109375,44.5556640625
2.0299999,3.627215623855591,23.03940200805664,-0.4429273009300232,-50.1251220703125,11.810302734375,91.0797119140625
2.0499999,3.375824451446533,25.273193359375,-0.37828385829925537,-32.3028564453125,14.2822265625,136.04736328125
2.0699999,2.765302896499634,26.044126510620117,-0.24420857429504395,-24.3988037109375,10.1318359375,165.6646728515625
2.0899999,1.9321208000183105,25.225309371948242,-0.0694318488240242,-11.65771484375,6.866455078125,190.91796875
2.1099999,0.950498104095459,23.240516662597656,0.17477671802043915,-3.265380859375,6.866455078125,206.0699462890625
2.1299999,-0.026336219161748886,20.48478889465332,0.33518823981285095,-4.2572021484375,1.251220703125,224.7161865234375
2.1499999,-0.8523358106613159,17.465702056884766,0.4836287498474121,-7.3699951171875,-3.021240234375,239.1510009765625
2.1699999,-1.4532804489135742,14.532804489135742,0.6536170840263367,2.4261474609375,-0.1678466796875,244.2169189453125
2.1899999,-1.7741034030914307,11.942277908325195,0.6823474764823914,-3.6468505859375,-9.9334716796875,244.4305419921875
2.2099999,-1.8698714971542358,9.617507934570312,0.6727706789970398,-1.4495849609375,-16.448974609375,247.5433349609375
2.2299999,-1.7693150043487549,7.582436561584473,0.5482721924781799,9.2010498046875,-20.0347900390625,244.5068359375
2.2499999,-1.5921441316604614,5.8203043937683105,0.2322375625371933,44.036865234375,-23.651123046875,232.421875
2.2699999,-1.2330138683319092,4.182670593261719,0.05027823522686958,57.6324462890625,-23.3154296875,245.2850341796875
2.2899999,-0.8307880163192749,2.9759926795959473,-0.12689268589019775,19.256591796875,-69.4122314453125,266.7388916015625
2.3099999,-0.3926490843296051,1.3503297567367554,-0.5171475410461426,1.4495849609375,-147.88818359375,283.660888671875
2.3299999,-0.26815059781074524,-0.6248866319656372,-0.8858546018600464,-69.122314453125,-141.05224609375,207.5347900390625
2.3499999,-0.6991068720817566,-2.8203697204589844,-2.846705913543701,-168.3502197265625,-234.9395751953125,125.6256103515625
2.3699999,1.525106430053711,-4.671087741851807,-4.137180328369141,-94.7723388671875,-0.030517578125,122.2991943359375
2.3899999,2.0159177780151367,-3.2417490482330322,-4.20421838760376,93.4906005859375,385.5133056640625,140.3656005859375
2.4099999,5.092466831207275,-2.698265314102173,-3.313575267791748,121.4447021484375,130.859375,179.99267578125
2.4299999,6.485892295837402,-1.2042834758758545,-1.314416766166687,102.2186279296875,-129.2572021484375,152.34375
2.4499999,6.62236213684082,-1.3263877630233765,0.49559974670410156,124.0081787109375,48.980712890625,-101.1505126953125
2.4699999,6.6630635261535645,-3.251325845718384,1.2641384601593018,33.7371826171875,65.887451171875,-35.2935791015625
2.4899999,6.1985883712768555,-4.043806552886963,1.3910311460494995,-13.3209228515625,-14.495849609375,24.1546630859375
2.5099999,6.282385349273682,-3.9456443786621094,1.845929503440857,-24.169921875,-33.7066650390625,34.2559814453125
2.5299999,6.890512466430664,-2.985569477081299,1.37906014919281,-28.289794921875,-90.75927734375,96.832275390625
2.5499999,7.771578788757324,-1.8746598958969116,1.0247182846069336,-21.4996337890625,-36.68212890625,106.170654296875
2.5699999,8.65982723236084,-1.2042834758758545,0.10055647045373917,-12.4359130859375,4.730224609375,32.0587158203125
2.5899999,9.296685218811035,-1.1659762859344482,-0.5937620401382446,-4.058837890625,-1.251220703125,-40.71044921875
2.6099999,9.581595420837402,-1.2856862545013428,-0.912190854549408,-11.016845703125,15.5029296875,-62.7288818359375
2.6299999,9.57201862335205,-1.0630255937576294,-1.0558429956436157,-24.47509765625,-13.5498046875,-40.3594970703125
2.6499999,9.418789863586426,-0.5099649429321289,-0.9576807022094727,-29.9224853515625,-19.989013671875,16.8609619140625
2.6699999,9.23682975769043,0.2537853717803955,-1.0845733880996704,-14.22119140625,-30.70068359375,62.652587890625
2.6899999,9.162610054016113,0.689530074596405,-1.213860273361206,-2.5787353515625,3.8604736328125,83.984375
2.7099999,9.14585018157959,0.545877993106842,-1.4077905416488647,14.1754150390625,46.0052490234375,70.404052734375
2.7299999,9.193734169006348,0.009576806798577309,-1.3431471586227417,21.1029052734375,66.0552978515625,31.0211181640625
2.7499999,9.265560150146484,-0.7852981686592102,-0.9385270476341248,9.4757080078125,53.7567138671875,24.96337890625
2.7699999,9.246406555175781,-1.4652514457702637,-0.40701428055763245,-1.2969970703125,11.871337890625,29.876708984375
2.7899999,9.23682975769043,-2.013523578643799,0.1628057211637497,-17.578125,-11.444091796875,27.801513671875
2.8099999,9.227252960205078,-2.2816741466522217,0.4908113479614258,-32.1197509765625,-20.599365234375,5.43212890625
2.8299999,9.311050415039062,-2.3247697353363037,0.524330198764801,-25.4364013671875,-22.39990234375,-22.247314453125
2.8499999,9.44752025604248,-2.0159177780151367,0.33997663855552673,-16.1285400390625,-12.969970703125,-42.4346923828125
2.8699999,9.583989143371582,-1.4963760375976562,0.0694318488240242,-11.138916015625,-2.2430419921875,-38.1011962890625
2.8899999,9.643844604492188,-0.8762778043746948,-0.272938996553421,-10.6964111328125,-7.4462890625,-21.5911865234375
2.9099999,9.68694019317627,-0.3280056416988373,-0.47884035110473633,-19.927978515625,-10.1470947265625,-2.8533935546875
2.9299999,9.710882186889648,0.033518824726343155,-0.608127236366272,-16.265869140625,-3.7078857421875,10.2996826171875
2.9499999,9.751583099365234,0.1867477297782898,-0.6416460275650024,-6.439208984375,11.993408203125,17.6544189453125
2.9699999,9.782708168029785,0.13407529890537262,-0.6224924325942993,0.640869140625,28.2440185546875,15.716552734375
2.9899999,9.816226959228516,-0.05506663769483566,-0.5147533416748047,4.638671875,32.3638916015625,12.63427734375
3.0099999,9.823410034179688,-0.2537853717803955,-0.42377370595932007,0.1220703125,22.27783203125,10.5743408203125
3.0299999,9.818621635437012,-0.4572925269603729,-0.2849099934101105,-0.54931640625,12.51220703125,12.02392578125
3.0499999,9.821015357971191,-0.608127236366272,-0.24181437492370605,-4.6844482421875,3.8604736328125,6.3629150390625
3.0699999,9.818621635437012,-0.7469909191131592,-0.16998831927776337,-9.9334716796875,1.3885498046875,-7.568359375
3.0899999,9.828198432922363,-0.8355764150619507,-0.18914192914962769,-13.3514404296875,-2.99072265625,-18.4173583984375
3.1099999,9.852140426635742,-0.8140285611152649,-0.17477671802043915,-14.5263671875,-7.476806640625,-20.99609375
3.1299999,9.892841339111328,-0.6392518281936646,-0.2346317619085312,-13.9923095703125,-11.5814208984375,-17.3187255859375
3.1499999,9.923966407775879,-0.4141969084739685,-0.3016694188117981,-11.932373046875,-16.265869140625,-8.880615234375
3.1699999,9.93593692779541,-0.22505496442317963,-0.42856210470199585,-12.02392578125,-18.6309814453125,-2.5482177734375
3.1899999,9.919178009033203,-0.09816227108240128,-0.5841852426528931,-14.129638671875,-11.23046875,-5.1422119140625
3.2099999,9.876082420349121,-0.031124621629714966,-0.7422025203704834,-10.650634765625,-0.06103515625,-5.06591796875
3.2299999,9.859322547912598,0.05746084079146385,-0.8451532125473022,-3.875732421875,11.566162109375,2.8228759765625
3.2499999,9.852140426635742,0.15083470940589905,-0.8810662031173706,2.2125244140625,14.495849609375,10.772705078125
3.2699999,9.861717224121094,0.17956513166427612,-0.8355764150619507,4.7149658203125,9.9945068359375,12.3138427734375
3.2899999,9.861717224121094,0.0933738648891449,-0.730231523513794,1.4801025390625,5.157470703125,8.0108642578125
3.3099999,9.830592155456543,-0.090979665517807,-0.6392518281936646,-5.2642822265625,3.021240234375,3.4027099609375
3.3299999000000002,9.804255485534668,-0.2944868206977844,-0.5363011956214905,-7.4920654296875,0.274658203125,0.244140625
3.3499999,9.775525093078613,-0.42377370595932007,-0.4812345504760742,-9.246826171875,-3.8299560546875,-2.227783203125
3.3699999,9.75637149810791,-0.4884171485900879,-0.4668693244457245,-8.056640625,-7.1563720703125,-0.91552734375
3.3899999,9.734824180603027,-0.49799394607543945,-0.5099649429321289,-5.706787109375,-9.27734375,-1.3580322265625
3.4099999,9.725247383117676,-0.5003881454467773,-0.5650315880775452,-8.6517333984375,-9.979248046875,-5.55419921875
3.4299999,9.706093788146973,-0.49320554733276367,-0.6488286852836609,-11.9476318359375,-10.009765625,-9.246826171875
3.4499999,9.694122314453125,-0.4692635238170624,-0.7230489253997803,-7.87353515625,-6.103515625,-7.6446533203125
3.4699999,9.674968719482422,-0.4213795065879822,-0.811634361743927,-4.3182373046875,2.13623046875,-2.7008056640625
3.4899999,9.670180320739746,-0.3447650372982025,-0.8571242094039917,-2.716064453125,11.016845703125,0.3814697265625
3.5099999,9.674968719482422,-0.3016694188117981,-0.8331822156906128,-2.532958984375,12.0391845703125,0.732421875
3.5299999,9.691728591918945,-0.3064578175544739,-0.7445967197418213,-1.3275146484375,8.5906982421875,1.4801025390625
3.5499999,9.725247383117676,-0.3208230137825012,-0.6177040338516235,-3.7078857421875,5.2642822265625,-0.823974609375
3.5699999,9.758766174316406,-0.3208230137825012,-0.5171475410461426,-7.4920654296875,4.33349609375,-3.509521484375
3.5899999,9.799467086791992,-0.3016694188117981,-0.4620809257030487,-3.9520263671875,1.52587890625,-2.166748046875
3.6099999,9.852140426635742,-0.2585737705230713,-0.4644751250743866,-2.3193359375,-0.2899169921875,-2.0294189453125
3.6299999,9.895236015319824,-0.2513911724090576,-0.42377370595932007,-3.5552978515625,-0.8087158203125,-4.913330078125
3.6499999,9.895236015319824,-0.35673606395721436,-0.38546648621559143,-4.5013427734375,-5.340576171875,-5.7830810546875
3.6699999,9.8784761428833,-0.4884171485900879,-0.33279404044151306,-8.453369140625,-10.2996826171875,-9.1552734375
3.6899999,9.835380554199219,-0.507570743560791,-0.35673606395721436,-10.345458984375,-11.2762451171875,-16.510009765625
3.7099999,9.799467086791992,-0.38067805767059326,-0.4668693244457245,-0.9918212890625,-7.904052734375,-13.214111328125
3.7299999,9.775525093078613,-0.12449848651885986,-0.6751648783683777,7.7667236328125,-2.1514892578125,-2.1209716796875
3.7499999,9.763554573059082,0.15083470940589905,-0.8738836050033569,6.256103515625,2.5787353515625,1.0528564453125
3.7699999,9.739612579345703,0.31124621629714966,-1.0103530883789062,-0.6866455078125,3.7841796875,-1.0833740234375
3.7899999,9.720458984375,0.304063618183136,-1.036689281463623,0.2593994140625,5.4168701171875,1.28173828125
3.8099999,9.696516990661621,0.22505496442317963,-1.015141487121582,1.5106201171875,3.9520263671875,2.166748046875
3.8299999000000002,9.682151794433594,0.08140286058187485,-0.9289502501487732,0.5645751953125,4.913330078125,0.701904296875
3.8499999,9.682151794433594,-0.06703764945268631,-0.8523358106613159,-0.579833984375,2.3956298828125,-2.960205078125
3.8699999,9.68694019317627,-0.21308395266532898,-0.7637503147125244,-1.0528564453125,0.8087158203125,-6.1798095703125
3.8899999,9.703699111938477,-0.31603461503982544,-0.7206547260284424,-2.8228759765625,-1.007080078125,-7.9345703125
3.9099999,9.72285270690918,-0.3208230137825012,-0.7110779285430908,-6.8817138671875,-0.8697509765625,-11.0321044921875
3.9299999,9.744400978088379,-0.26096799969673157,-0.727837324142456,-5.9051513671875,1.708984375,-10.92529296875
3.9499999,9.775525093078613,-0.14365209639072418,-0.727837324142456,-3.6773681640625,4.2572021484375,-7.171630859375
3.9699999,9.78989028930664,-0.0454898327589035,-0.7158663272857666,-2.74658203125,2.227783203125,-5.6915283203125
3.9899999,9.794678688049316,0.011971008032560349,-0.6727706789970398,-2.471923828125,2.5482177734375,-7.0343017578125
4.0099999,9.773131370544434,0.05027823522686958,-0.6200982332229614,-3.6468505859375,5.462646484375,-8.8653564453125
4.029999900000001,9.739612579345703,0.11013327538967133,-0.6177040338516235,-2.288818359375,4.638671875,-6.744384765625
4.0499999,9.706093788146973,0.15083470940589905,-0.5674257874488831,0.823974609375,6.2103271484375,-1.9073486328125
4.069999900000001,9.684545516967773,0.17717093229293823,-0.5291185975074768,-1.7242431640625,5.767822265625,-1.9683837890625
4.0899999000000005,9.672574996948242,0.14604631066322327,-0.45010992884635925,-6.011962890625,4.608154296875,-6.134033203125
4.1099999,9.66299819946289,0.07661445438861847,-0.3878606855869293,-6.3323974609375,3.6468505859375,-7.7056884765625
4.1299999000000005,9.68933391571045,0.07422025501728058,-0.33279404044151306,-7.4005126953125,4.3182373046875,-8.4686279296875
4.1499999,9.715670585632324,0.12449848651885986,-0.2777273952960968,-5.6304931640625,5.2642822265625,-10.1318359375
4.1699999000000005,9.75397777557373,0.21308395266532898,-0.26815059781074524,-0.762939453125,2.5177001953125,-7.6751708984375
4.1899999,9.78989028930664,0.3016694188117981,-0.2801215946674347,-0.762939453125,-2.197265625,-7.904052734375
4.209999900000001,9.813833236694336,0.3758896589279175,-0.3447650372982025,-3.7994384765625,-0.6103515625,-10.162353515625
4.2299999,9.821015357971191,0.4213795065879822,-0.4213795065879822,-5.5389404296875,1.129150390625,-10.772705078125
4.249999900000001,9.835380554199219,0.4812345504760742,-0.5099649429321289,-6.011962890625,-0.1373291015625,-8.97216796875
4.2699999,9.835380554199219,0.5602431893348694,-0.5961562395095825,-4.0435791015625,-2.4261474609375,-7.7972412109375
4.289999900000001,9.84495735168457,0.646434485912323,-0.6560112833976746,-3.387451171875,0.0457763671875,-6.2713623046875
4.3099999,9.84495735168457,0.7182605266571045,-0.7374141216278076,-3.082275390625,1.8310546875,-5.035400390625
4.329999900000001,9.832986831665039,0.7422025203704834,-0.7733271718025208,-2.25830078125,3.387451171875,-3.11279296875
4.3499999,9.84495735168457,0.768538773059845,-0.7781155705451965,-5.5389404296875,3.6163330078125,-4.3792724609375
4.369999900000001,9.86650562286377,0.811634361743927,-0.730231523513794,-7.9498291015625,3.23486328125,-7.049560546875
4.3899999,9.921571731567383,0.9145850539207458,-0.6440402865409851,-6.2408447265625,2.25830078125,-4.57763671875
4.409999900000001,9.971850395202637,1.0199298858642578,-0.5482721924781799,-0.213623046875,-0.1678466796875,-0.1983642578125
4.4299999,9.979032516479492,1.0414776802062988,-0.4596867263317108,4.5166015625,-1.64794921875,2.044677734375
4.449999900000001,9.93354320526123,0.9409212470054626,-0.43335050344467163,1.495361328125,-1.2359619140625,-0.3662109375
4.4699999,9.840168952941895,0.7852981686592102,-0.45489832758903503,-1.9989013671875,-0.2288818359375,-4.45556640625
4.489999900000001,9.730035781860352,0.646434485912323,-0.5506663918495178,-0.6561279296875,-0.3814697265625,-3.90625
4.5099999,9.639056205749512,0.5578489899635315,-0.6560112833976746,2.960205078125,0.91552734375,0.1983642578125
4.529999900000001,9.560047149658203,0.5003881454467773,-0.7398083209991455,2.410888671875,3.875732421875,-0.213623046875
4.5499999,9.488221168518066,0.3926490843296051,-0.7565677165985107,1.007080078125,4.4708251953125,-3.5400390625
4.569999900000001,9.433155059814453,0.2322375625371933,-0.6775590777397156,-0.9613037109375,4.21142578125,-7.537841796875
4.5899999000000005,9.399636268615723,0.1412578970193863,-0.5793967843055725,-5.1422119140625,2.3956298828125,-12.75634765625
4.609999900000001,9.399636268615723,0.1388636976480484,-0.4692635238170624,-4.0130615234375,3.753662109375,-13.824462890625
4.6299999000000005,9.44752025604248,0.2992752194404602,-0.45010992884635925,0.9613037109375,4.1961669921875,-11.4288330078125
4.6499999,9.519346237182617,0.48602294921875,-0.44532153010368347,4.9896240234375,6.5765380859375,-8.5601806640625
4.6699999000000005,9.59596061706543,0.6584054827690125,-0.49799394607543945,3.60107421875,6.866455078125,-10.6353759765625
4.6899999,9.6989107131958,0.8259995579719543,-0.5363011956214905,-2.1514892578125,8.30078125,-17.5323486328125
4.709999900000001,9.837775230407715,1.1635819673538208,-0.5650315880775452,-9.9639892578125,11.1083984375,-19.866943359375
4.7299999,9.976638793945312,1.7070658206939697,-0.5530605912208557,-5.2490234375,14.0838623046875,-4.638671875
4.749999900000001,10.06043529510498,2.164358377456665,-0.4572925269603729,18.49365234375,18.06640625,21.91162109375
4.7699999,9.974244117736816,2.3511061668395996,-0.4189853072166443,35.308837890625,8.056640625,29.998779296875
4.789999900000001,9.742006301879883,1.9823989868164062,-0.36152446269989014,35.3240966796875,10.9100341796875,23.98681640625
4.8099999,9.406818389892578,1.259350061416626,-0.30885201692581177,26.580810546875,15.3350830078125,14.16015625
4.829999900000001,9.064447402954102,0.524330198764801,-0.3016694188117981,31.463623046875,6.34765625,8.5296630859375
4.8499999,8.786720275878906,-0.11013327538967133,-0.26096799969673157,41.229248046875,-1.0528564453125,12.786865234375
4.869999900000001,8.559270858764648,-0.629675030708313,-0.21547815203666687,41.778564453125,2.1209716796875,9.8419189453125
4.8899999,8.4108304977417,-0.9696516990661621,-0.24420857429504395,29.327392578125,0.8392333984375,-8.23974609375
4.909999900000001,8.343792915344238,-1.235408067703247,-0.21787235140800476,20.6451416015625,-0.4425048828125,-17.6544189453125
4.9299999,8.341399192810059,-1.3646949529647827,-0.10295066982507706,21.6522216796875,-5.67626953125,-16.0980224609375
4.949999900000001,8.453926086425781,-1.4389152526855469,-0.009576806798577309,22.0184326171875,-18.85986328125,-21.8048095703125
4.9699999,8.59997272491455,-1.4317326545715332,0.13407529890537262,7.659912109375,-19.3939208984375,-38.116455078125
4.989999900000001,8.757989883422852,-1.41257905960083,0.2585737705230713,-5.8441162109375,-14.6331787109375,-48.797607421875
5.0099999,8.856152534484863,-1.235408067703247,0.2082955539226532,-4.5013427734375,-28.1982421875,-55.8624267578125
5.029999900000001,8.904036521911621,-1.0271124839782715,0.07900865375995636,7.99560546875,-34.0118408203125,-61.126708984375
5.0499999,8.884882926940918,-0.6033388376235962,-0.2777273952960968,0.8544921875,-23.7884521484375,-71.7315673828125
5.069999900000001,8.858546257019043,-0.09576806426048279,-0.7469909191131592,-15.8538818359375,-7.62939453125,-75.1953125
5.0899999000000005,8.853757858276367,0.5578489899635315,-1.2018892765045166,-22.6593017578125,3.173828125,-65.12451171875
5.109999900000001,8.87291145324707,1.256955862045288,-1.4987702369689941,-20.7672119140625,6.9732666015625,-59.8907470703125
5.1299999000000005,8.892065048217773,1.8531121015548706,-1.601720929145813,-17.6239013671875,9.5062255859375,-64.483642578125
5.1499999,8.911218643188477,2.2888567447662354,-1.525106430053711,-19.683837890625,15.1214599609375,-68.084716796875
5.1699999000000005,8.892065048217773,2.494758129119873,-1.3120225667953491,-19.5465087890625,18.6767578125,-65.5364990234375
5.1899999,8.808267593383789,2.432508945465088,-0.9768342971801758,-11.8560791015625,16.78466796875,-68.603515625
5.209999900000001,8.683769226074219,2.3918075561523438,-0.6560112833976746,-7.14111328125,8.941650390625,-91.1102294921875
5.2299999,8.530540466308594,2.4660277366638184,-0.3447650372982025,-8.6669921875,9.185791015625,-112.213134765625
5.249999900000001,8.355764389038086,2.7892448902130127,-0.17238251864910126,-8.4075927734375,14.1754150390625,-94.451904296875
5.2699999,8.238448143005371,3.4117374420166016,-0.1843535304069519,7.9345703125,4.8980712890625,-83.038330078125
5.289999900000001,8.169015884399414,4.0749311447143555,-0.2849099934101105,8.7127685546875,6.2103271484375,-82.733154296875
5.3099999,8.145073890686035,4.72376012802124,-0.363918662071228,-10.5743408203125,17.852783203125,-81.146240234375
5.329999900000001,8.142680168151855,5.2672438621521,-0.45250412821769714,-3.9215087890625,9.735107421875,-72.32666015625
5.3499999,8.10437297821045,5.693411827087402,-0.43335050344467163,17.4560546875,1.007080078125,-65.4754638671875
5.369999900000001,7.99184513092041,5.904101371765137,-0.4405331015586853,24.8870849609375,-1.068115234375,-61.7523193359375
5.3899999,7.795520782470703,5.834669589996338,-0.4908113479614258,18.24951171875,4.608154296875,-62.6068115234375
5.409999900000001,7.577648162841797,5.693411827087402,-0.47884035110473633,6.3018798828125,11.016845703125,-67.32177734375
5.4299999,7.390900611877441,5.614402770996094,-0.47405192255973816,4.8980712890625,5.3558349609375,-67.8558349609375
5.449999900000001,7.242460250854492,5.779603004455566,-0.3974374830722809,9.2926025390625,-0.1220703125,-64.727783203125
5.4699999,7.237671852111816,5.980715751647949,-0.2944868206977844,9.735107421875,0.9765625,-55.7098388671875
5.489999900000001,7.220912456512451,6.435614109039307,-0.3256114423274994,4.21142578125,4.45556640625,-64.727783203125
5.5099999,7.29034423828125,6.785167694091797,-0.3016694188117981,8.026123046875,11.4593505859375,-61.9964599609375
5.529999900000001,7.3023152351379395,7.232883453369141,-0.38307225704193115,13.916015625,13.12255859375,-59.3414306640625
5.5499999,7.297526836395264,7.570465564727783,-0.40462008118629456,15.68603515625,10.1470947265625,-56.6558837890625
5.569999900000001,7.264008045196533,7.876923561096191,-0.4141969084739685,11.0931396484375,14.129638671875,-54.290771484375
5.5899999000000005,7.206547260284424,8.125920295715332,-0.4141969084739685,3.7078857421875,12.969970703125,-53.741455078125
5.609999900000001,7.115567684173584,8.29830265045166,-0.35673606395721436,10.2386474609375,8.72802734375,-46.9207763671875
5.6299999000000005,6.998251438140869,8.42040729522705,-0.37828385829925537,19.6533203125,0.640869140625,-43.914794921875
5.6499999,6.845022678375244,8.501810073852539,-0.395043283700943,14.8773193359375,5.5084228515625,-44.525146484375
5.6699999000000005,6.6846113204956055,8.497021675109863,-0.5003881454467773,11.7340087890625,7.9345703125,-42.17529296875
5.6899999,6.54574728012085,8.516175270080566,-0.6320692300796509,15.0146484375,6.4697265625,-39.8712158203125
5.709999900000001,6.447585105895996,8.640673637390137,-0.7422025203704834,19.59228515625,6.2255859375,-39.459228515625
5.7299999,6.342240333557129,8.729259490966797,-0.8571242094039917,21.3623046875,8.0413818359375,-35.2935791015625
5.749999900000001,6.236895561218262,8.755595207214355,-0.9648633003234863,23.25439453125,5.828857421875,-31.4178466796875
5.7699999,6.086060523986816,8.686163902282715,-1.0462661981582642,16.4642333984375,7.354736328125,-33.1878662109375
5.789999900000001,5.906495571136475,8.547300338745117,-1.1300631761550903,8.6822509765625,4.7454833984375,-35.9954833984375
5.8099999,5.74129581451416,8.492233276367188,-1.115697979927063,5.7373046875,2.7008056640625,-35.5224609375
5.829999900000001,5.633556365966797,8.453926086425781,-1.0989385843276978,7.720947265625,-1.3427734375,-24.200439453125
5.8499999,5.475539207458496,8.4108304977417,-1.1540051698684692,10.0555419921875,-1.46484375,-26.2451171875
5.869999900000001,5.343858242034912,8.276755332946777,-1.1540051698684692,2.25830078125,16.357421875,-49.3011474609375
5.8899999,5.135562419891357,8.101978302001953,-1.3072341680526733,-4.39453125,16.021728515625,-62.3931884765625
5.909999900000001,4.9368438720703125,7.999027729034424,-1.2737152576446533,-10.80322265625,21.026611328125,-60.333251953125
5.9299999,4.7620673179626465,8.018181800842285,-1.1803414821624756,-40.3594970703125,12.4664306640625,-53.22265625
5.949999900000001,4.596867084503174,8.101978302001953,-0.9696516990661621,-53.0853271484375,5.37109375,-52.7191162109375
5.9699999,4.479551315307617,8.288725852966309,-0.689530074596405,-54.6875,5.706787109375,-60.24169921875
5.989999900000001,4.357447147369385,8.501810073852539,-0.38546648621559143,-43.4722900390625,11.627197265625,-56.8389892578125
6.0099999,4.120420932769775,8.753201484680176,0.031124621629714966,-17.4407958984375,11.3983154296875,-47.5616455078125
6.029999900000001,4.067748546600342,9.035717010498047,-0.038307227194309235,131.2713623046875,59.600830078125,-49.346923828125
6.0499999,3.840299606323242,9.275136947631836,0.10773907601833344,65.3228759765625,61.3555908203125,-50.0946044921875
6.069999900000001,3.8067808151245117,9.394847869873047,-0.2537853717803955,48.095703125,60.4705810546875,-44.464111328125
6.0899999000000005,3.7708675861358643,9.543288230895996,-0.24181437492370605,45.7916259765625,51.605224609375,-44.891357421875
6.109999900000001,3.751713991165161,9.524134635925293,-0.3926490843296051,34.4390869140625,-4.0740966796875,-36.407470703125
6.1299999000000005,3.7205893993377686,9.619902610778809,-0.3256114423274994,15.80810546875,-7.38525390625,-37.3382568359375
6.149999900000001,3.643975019454956,9.564835548400879,-0.5003881454467773,13.5498046875,-2.7313232421875,-35.46142578125
6.1699999000000005,3.5170822143554688,9.62947940826416,-0.751779317855835,17.791748046875,-1.2054443359375,-32.562255859375
6.1899999,3.3901896476745605,9.715670585632324,-0.9552865028381348,10.894775390625,3.0670166015625,-29.0374755859375
6.209999900000001,3.2154128551483154,9.804255485534668,-1.1468225717544556,5.9814453125,1.8463134765625,-20.93505859375
6.2299999,3.047818660736084,9.782708168029785,-1.1779472827911377,19.6380615234375,5.523681640625,-12.51220703125
6.249999900000001,2.8850131034851074,9.646238327026367,-1.1755530834197998,23.0865478515625,6.439208984375,-15.44189453125
6.2699999,2.7461493015289307,9.452308654785156,-1.1420341730117798,21.2554931640625,7.5531005859375,-26.5045166015625
6.289999900000001,2.6671407222747803,9.41639518737793,-1.1252747774124146,12.7716064453125,6.04248046875,-28.076171875
6.3099999,2.7030537128448486,9.387664794921875,-1.1875240802764893,7.6446533203125,1.5106201171875,-10.772705078125
6.329999900000001,2.7964274883270264,9.421183586120605,-1.2641384601593018,-10.009765625,-2.44140625,-7.26318359375
6.3499999,2.942473888397217,9.299078941345215,-1.338358759880066,-42.8314208984375,-10.467529296875,-18.7225341796875
6.369999900000001,2.9951462745666504,9.08838939666748,-1.338358759880066,-54.5806884765625,-14.4500732421875,-29.47998046875
6.3899999,2.9305028915405273,8.832210540771484,-1.3287819623947144,-48.5076904296875,-14.8773193359375,-29.4647216796875
6.409999900000001,2.7222073078155518,8.705317497253418,-1.1420341730117798,-46.0662841796875,-4.94384765625,-29.6783447265625
6.4299999,2.454056739807129,8.801085472106934,-1.0007762908935547,-40.4815673828125,-10.7879638671875,-39.5355224609375
6.449999900000001,2.190694570541382,8.980650901794434,-0.6871358752250671,-42.78564453125,-11.383056640625,-27.801513671875
6.4699999,1.987187385559082,9.265560150146484,-0.48602294921875,-34.332275390625,-17.2271728515625,-19.8822021484375
6.489999900000001,1.8076223134994507,9.543288230895996,-0.33039984107017517,-22.8729248046875,-13.5955810546875,-25.115966796875
6.5099999,1.7286136150360107,9.742006301879883,-0.22505496442317963,-18.3868408203125,-4.57763671875,-27.557373046875
6.529999900000001,1.659181833267212,9.86889934539795,-0.3016694188117981,-25.1007080078125,-7.6904296875,-19.9127197265625
6.5499999,1.6639702320098877,10.055646896362305,-0.2322375625371933,-20.965576171875,-4.0283203125,-17.852783203125
6.569999900000001,1.6903064250946045,10.196905136108398,-0.27054479718208313,-13.8397216796875,-1.03759765625,-12.1917724609375
6.5899999000000005,1.7262194156646729,10.295066833496094,-0.2298433631658554,-23.8494873046875,-3.875732421875,-1.5869140625
6.609999900000001,1.745373010635376,10.342951774597168,-0.15322890877723694,-41.0308837890625,0.7781982421875,-1.2359619140625
6.6299999000000005,1.7549498081207275,10.304644584655762,-0.090979665517807,-32.71484375,-1.4801025390625,-8.636474609375
6.649999900000001,1.7405846118927002,10.268731117248535,0.14844051003456116,-22.003173828125,1.220703125,-12.542724609375
6.6699999000000005,1.6879122257232666,10.194510459899902,0.21308395266532898,-15.8233642578125,-2.3956298828125,-8.0108642578125
6.6899999,1.6615760326385498,10.089165687561035,0.42856210470199585,-11.41357421875,1.8768310546875,-6.134033203125
6.709999900000001,1.6136919260025024,10.036493301391602,0.4908113479614258,-3.509521484375,1.220703125,-12.115478515625
6.7299999,1.6041151285171509,9.904812812805176,0.5123591423034668,0.732421875,-6.1492919921875,-5.0811767578125
6.749999900000001,1.5538369417190552,9.9000244140625,0.5889736413955688,1.4495849609375,0.9613037109375,-6.9122314453125
6.7699999,1.5298948287963867,9.967061996459961,0.569819986820221,2.044677734375,-0.885009765625,-3.84521484375
6.789999900000001,1.522712230682373,10.000580787658691,0.608127236366272,1.373291015625,-5.37109375,9.4451904296875
6.8099999,1.5131354331970215,10.110713958740234,0.6009446382522583,1.7547607421875,-5.9051513671875,4.5166015625
6.829999900000001,1.5538369417190552,10.125079154968262,0.6153098344802856,-2.25830078125,-4.45556640625,9.8724365234375
6.8499999,1.6041151285171509,10.038887977600098,0.524330198764801,-2.0751953125,-8.7127685546875,19.6533203125
6.869999900000001,1.6376339197158813,9.916783332824707,0.49320554733276367,-0.5950927734375,-2.1514892578125,10.4522705078125
6.8899999,1.6711528301239014,9.761159896850586,0.40222588181495667,-1.03759765625,0.0457763671875,-2.1209716796875
6.909999900000001,1.6974890232086182,9.66299819946289,0.3687070608139038,0.244140625,0.2899169921875,1.1138916015625
6.9299999,1.7070658206939697,9.643844604492188,0.40462008118629456,0.885009765625,1.9989013671875,5.6304931640625
6.949999900000001,1.7070658206939697,9.691728591918945,0.3663128614425659,2.685546875,-1.1444091796875,6.5155029296875
6.9699999,1.7166426181793213,9.651026725769043,0.3256114423274994,11.1083984375,0.7171630859375,5.4168701171875
6.989999900000001,1.7070658206939697,9.615114212036133,0.2059013396501541,12.5885009765625,9.1400146484375,-6.5765380859375
7.0099999,1.7286136150360107,9.533711433410645,0.12689268589019775,17.9443359375,14.3585205078125,-12.0697021484375
7.029999900000001,1.7381904125213623,9.528923034667969,0.090979665517807,26.153564453125,12.054443359375,-13.0615234375
7.0499999,1.7549498081207275,9.545681953430176,0.1628057211637497,28.6712646484375,7.110595703125,-11.3525390625
7.069999900000001,1.7357962131500244,9.619902610778809,0.24420857429504395,21.9268798828125,6.0882568359375,-11.3983154296875
7.0899999000000005,1.6903064250946045,9.667786598205566,0.31364041566848755,23.223876953125,3.814697265625,-13.36669921875
7.109999900000001,1.6328455209732056,9.720458984375,0.26096799969673157,33.782958984375,1.0833740234375,-11.9781494140625
7.1299999000000005,1.580173134803772,9.823410034179688,0.181959331035614,33.935546875,2.960205078125,-7.720947265625
7.149999900000001,1.5490485429763794,9.895236015319824,0.019153613597154617,31.6925048828125,6.591796875,-0.3814697265625
7.1699999000000005,1.5298948287963867,9.964667320251465,-0.24181437492370605,28.8238525390625,8.6517333984375,0.0152587890625
7.1899999,1.5322890281677246,9.986215591430664,-0.38307225704193115,13.73291015625,22.9034423828125,0.91552734375
7.209999900000001,1.5131354331970215,9.914389610290527,-0.545877993106842,7.3089599609375,21.209716796875,0.91552734375
7.2299999,1.5298948287963867,9.914389610290527,-0.5267243981361389,-7.843017578125,11.199951171875,-0.6103515625
7.249999900000001,1.522712230682373,9.830592155456543,-0.5291185975074768,-5.7525634765625,-1.0528564453125,6.317138671875
7.2699999,1.53707754611969,9.794678688049316,-0.4812345504760742,-15.8538818359375,4.150390625,4.852294921875
7.289999900000001,1.53707754611969,9.761159896850586,-0.49799394607543945,-23.2696533203125,5.8441162109375,-2.0599365234375
7.3099999,1.5418659448623657,9.694122314453125,-0.5506663918495178,-23.9105224609375,6.04248046875,-1.2969970703125
7.329999900000001,1.5298948287963867,9.674968719482422,-0.47884035110473633,-20.4925537109375,12.6953125,-1.495361328125
7.3499999,1.534683346748352,9.701305389404297,-0.3926490843296051,-15.7470703125,9.490966796875,-0.79345703125
7.369999900000001,1.5394717454910278,9.742006301879883,-0.2322375625371933,-7.4310302734375,4.1351318359375,1.3580322265625
7.3899999,1.5442601442337036,9.787496566772461,-0.09576806426048279,0.0457763671875,3.875732421875,2.0294189453125
7.409999900000001,1.5418659448623657,9.770736694335938,-0.023942016065120697,1.556396484375,4.2572021484375,1.3885498046875
7.4299999,1.522712230682373,9.725247383117676,-0.0071826050989329815,-5.4779052734375,4.974365234375,-1.15966796875
7.449999900000001,1.4844050407409668,9.641449928283691,-0.05506663769483566,-3.6163330078125,0.9918212890625,-1.5869140625
7.4699999,1.4628572463989258,9.59835433959961,-0.06464344263076782,-2.7313232421875,4.08935546875,-2.6092529296875
7.489999900000001,1.434126853942871,9.581595420837402,-0.0933738648891449,-1.0833740234375,2.105712890625,-2.2125244140625
7.5099999,1.4269442558288574,9.557653427124023,-0.07900865375995636,-0.1068115234375,0.1220703125,-0.0762939453125
7.529999900000001,1.414973258972168,9.536105155944824,-0.0933738648891449,1.5411376953125,-2.166748046875,-2.6397705078125
7.5499999,1.403002142906189,9.493009567260742,-0.07182604819536209,-2.38037109375,2.044677734375,-4.6844482421875
7.569999900000001,1.3838485479354858,9.466673851013184,-0.09576806426048279,-2.2735595703125,0.518798828125,-4.6844482421875
7.5899999000000005,1.3718775510787964,9.442731857299805,-0.08858546614646912,1.1138916015625,2.593994140625,-3.1890869140625
7.609999900000001,1.3646949529647827,9.454702377319336,-0.026336219161748886,0.2288818359375,5.1727294921875,-4.7454833984375
7.6299999000000005,1.3623007535934448,9.502586364746094,0.019153613597154617,-0.518798828125,0.946044921875,-6.8511962890625
7.649999900000001,1.3623007535934448,9.521739959716797,0.1173158809542656,0.06103515625,-1.9378662109375,-3.9215087890625
7.6699999000000005,1.3670891523361206,9.586383819580078,0.1364694982767105,-2.9754638671875,-2.44140625,-6.622314453125
7.6899999,1.3742717504501343,9.658209800720215,0.15083470940589905,-4.5928955078125,1.953125,-9.185791015625
7.709999900000001,1.3910311460494995,9.792284965515137,0.12210428714752197,-5.2032470703125,1.40380859375,-8.3160400390625
7.7299999,1.4197616577148438,9.931148529052734,0.1149216815829277,-3.143310546875,-0.6256103515625,-3.265380859375
7.749999900000001,1.4389152526855469,10.091560363769531,0.10534487664699554,-0.1678466796875,-1.678466796875,-1.861572265625
7.7699999,1.4460978507995605,10.158597946166992,0.11252748221158981,1.434326171875,-0.823974609375,-1.1138916015625
7.789999900000001,1.4269442558288574,10.168174743652344,0.0694318488240242,1.495361328125,0.701904296875,-1.434326171875
7.8099999,1.3982137441635132,10.108319282531738,0.05027823522686958,3.4332275390625,1.708984375,-0.579833984375
7.829999900000001,1.3646949529647827,10.046070098876953,0.021547814831137657,-0.06103515625,1.8310546875,0.2899169921875
7.8499999,1.3431471586227417,9.983820915222168,0.033518824726343155,-0.213623046875,0.9613037109375,1.2969970703125
7.869999900000001,1.316810965538025,9.916783332824707,0.021547814831137657,0.3814697265625,-1.9683837890625,3.11279296875
7.8899999,1.292868971824646,9.840168952941895,0.040701430290937424,1.617431640625,-1.556396484375,3.2196044921875
7.909999900000001,1.2641384601593018,9.751583099365234,0,2.960205078125,-1.7242431640625,1.4495849609375
7.9299999,1.2521674633026123,9.636661529541016,-0.002394201699644327,2.532958984375,0.1678466796875,0.91552734375
7.949999900000001,1.2425906658172607,9.557653427124023,-0.031124621629714966,1.0986328125,-0.3204345703125,-0.335693359375
7.9699999,1.2521674633026123,9.50498104095459,-0.026336219161748886,-0.7476806640625,-1.1749267578125,-0.4730224609375
7.989999900000001,1.256955862045288,9.485827445983887,-0.031124621629714966,1.46484375,-1.9073486328125,-0.1068115234375
8.0099999,1.2545616626739502,9.495404243469238,-0.026336219161748886,1.220703125,-1.0528564453125,-0.5340576171875
8.0299999,1.2449848651885986,9.502586364746094,-0.028730420395731926,1.983642578125,-1.678466796875,-1.03759765625
8.049999900000001,1.235408067703247,9.500192642211914,-0.043095629662275314,1.46484375,-2.0599365234375,-0.7476806640625
8.069999900000001,1.2330138683319092,9.516951560974121,-0.05267243832349777,1.6632080078125,-0.579833984375,-1.9683837890625
8.0899999,1.235408067703247,9.533711433410645,-0.05985504388809204,2.2125244140625,-0.1678466796875,-2.777099609375
8.1099999,1.2425906658172607,9.569623947143555,-0.08140286058187485,1.312255859375,-1.2359619140625,-2.960205078125
8.129999900000001,1.2497732639312744,9.605537414550781,-0.07900865375995636,2.2430419921875,-0.3814697265625,-2.9754638671875
8.149999900000001,1.256955862045288,9.667786598205566,-0.10295066982507706,3.204345703125,1.251220703125,-3.997802734375
8.1699999,1.2665326595306396,9.727641105651855,-0.08858546614646912,2.410888671875,2.6702880859375,-3.4637451171875
8.1899999,1.2761094570159912,9.799467086791992,-0.10534487664699554,3.204345703125,0.213623046875,-1.9989013671875
8.2099999,1.2856862545013428,9.86650562286377,-0.08379705995321274,4.4708251953125,1.2359619140625,-1.2664794921875
8.229999900000001,1.3000515699386597,9.907206535339355,-0.07661445438861847,4.0130615234375,1.03759765625,-0.4730224609375
8.2499999,1.3048399686813354,9.931148529052734,-0.08619125932455063,4.5928955078125,-0.640869140625,-1.03759765625
8.2699999,1.3048399686813354,9.931148529052734,-0.08379705995321274,2.7008056640625,1.068115234375,-0.3662109375
8.2899999,1.3000515699386597,9.909601211547852,-0.09576806426048279,3.5858154296875,0.1220703125,0.244140625
8.309999900000001,1.2761094570159912,9.873687744140625,-0.09816227108240128,2.4566650390625,0.0457763671875,0.30517578125
8.3299999,1.2497732639312744,9.818621635437012,-0.1149216815829277,1.28173828125,-1.4801025390625,-0.4730224609375
8.3499999,1.2210428714752197,9.751583099365234,-0.13168109953403473,0.42724609375,-1.4495849609375,-1.7852783203125
8.3699999,1.1994950771331787,9.68694019317627,-0.17238251864910126,1.068115234375,-1.8768310546875,-3.692626953125
8.389999900000001,1.1899182796478271,9.651026725769043,-0.20111294090747833,0.3509521484375,-0.762939453125,-5.859375
8.4099999,1.1875240802764893,9.643844604492188,-0.22744916379451752,-1.0833740234375,-0.823974609375,-5.3863525390625
8.4299999,1.1827356815338135,9.655815124511719,-0.24420857429504395,-0.1678466796875,-1.0223388671875,-4.0283203125
8.4499999,1.173158884048462,9.682151794433594,-0.23702596127986908,1.77001953125,0.30517578125,-3.3721923828125
8.469999900000001,1.161187767982483,9.706093788146973,-0.23942017555236816,0.091552734375,-0.6256103515625,-3.082275390625
8.4899999,1.1420341730117798,9.720458984375,-0.26336219906806946,-1.6326904296875,-1.953125,-2.532958984375
8.5099999,1.1324573755264282,9.706093788146973,-0.2944868206977844,0.3509521484375,0.579833984375,-1.5716552734375
8.5299999,1.1252747774124146,9.68694019317627,-0.3256114423274994,1.4495849609375,2.197265625,-4.2266845703125
8.549999900000001,1.1252747774124146,9.653421401977539,-0.36152446269989014,2.50244140625,-0.1373291015625,-6.04248046875
8.569999900000001,1.1276689767837524,9.636661529541016,-0.36152446269989014,0.91552734375,-0.4730224609375,-7.5531005859375
8.5899999,1.1228805780410767,9.624691009521484,-0.3711012601852417,1.251220703125,-0.1983642578125,-9.307861328125
8.6099999,1.1180921792984009,9.59835433959961,-0.3687070608139038,-0.0457763671875,1.1749267578125,-14.0533447265625
8.629999900000001,1.1037269830703735,9.619902610778809,-0.3663128614425659,-1.0223388671875,0.701904296875,-20.93505859375
8.649999900000001,1.1109095811843872,9.603142738342285,-0.304063618183136,1.2359619140625,1.800537109375,-22.9644775390625
8.6699999,1.1013327836990356,9.670180320739746,-0.23702596127986908,3.173828125,-1.129150390625,-32.2418212890625
8.6899999,1.0821791887283325,9.725247383117676,-0.14365209639072418,2.50244140625,-2.3040771484375,-44.5709228515625
8.709999900000001,1.0654197931289673,9.981427192687988,-0.090979665517807,0.213623046875,-0.946044921875,-60.6536865234375
8.729999900000001,1.0582371950149536,10.563218116760254,0.021547814831137657,-4.2877197265625,1.46484375,-67.4591064453125
8.7499999,1.070208191871643,11.413159370422363,0.12210428714752197,-9.765625,0.3814697265625,-56.365966796875
8.7699999,1.094150185585022,12.686874389648438,0.2346317619085312,-16.05224609375,-6.866455078125,-53.0853271484375
8.7899999,1.0749965906143188,14.149731636047363,0.2992752194404602,-13.8092041015625,-6.591796875,-51.6357421875
8.809999900000001,0.9696516990661621,15.672444343566895,0.27054479718208313,-5.67626953125,-6.8359375,-35.8123779296875
8.8299999,0.7733271718025208,17.171215057373047,0.12689268589019775,-6.77490234375,-8.1939697265625,-15.106201171875
8.8499999,0.49559974670410156,18.452112197875977,-0.07422025501728058,-16.6473388671875,-6.28662109375,8.514404296875
8.8699999,0.17477671802043915,19.25895881652832,-0.15562310814857483,-29.998779296875,3.8299560546875,38.1011962890625
8.889999900000001,-0.22026655077934265,19.847932815551758,-0.038307227194309235,-43.0908203125,5.67626953125,51.69677734375
8.9099999,-0.6560112833976746,19.970035552978516,0.06703764945268631,-35.858154296875,-13.73291015625,85.7696533203125
8.9299999,-1.1755530834197998,19.68752098083496,0.3447650372982025,-27.0843505859375,-12.2528076171875,134.246826171875
8.9499999,-1.721431016921997,18.88546371459961,0.3734954595565796,-25.390625,-8.9874267578125,164.947509765625
8.969999900000001,-2.205059766769409,17.515979766845703,0.4118026793003082,-26.9622802734375,-7.3394775390625,179.74853515625
8.9899999,-2.564189910888672,15.811307907104492,0.5363011956214905,-28.4881591796875,-9.307861328125,187.7899169921875
9.0099999,-2.7293899059295654,13.893552780151367,0.6368576288223267,-21.209716796875,-24.688720703125,200.9124755859375
9.0299999,-2.693476915359497,12.0021333694458,0.8379706144332886,-18.24951171875,-26.9012451171875,205.3680419921875
9.049999900000001,-2.473210334777832,10.287884712219238,0.811634361743927,-20.56884765625,-30.4107666015625,194.0460205078125
9.069999900000001,-2.0925323963165283,8.683769226074219,0.5913678407669067,-21.5301513671875,-30.4107666015625,194.7174072265625
9.0899999,-1.5155296325683594,7.469909191131592,0.42856210470199585,-15.0299072265625,-21.97265625,191.0858154296875
9.1099999,-0.9097966551780701,6.715735912322998,0.35913026332855225,8.4075927734375,-21.3623046875,183.5174560546875
9.129999900000001,-0.2753331959247589,5.916072368621826,0.22505496442317963,46.8597412109375,-47.0733642578125,208.6944580078125
9.149999900000001,0.30885201692581177,5.085284233093262,0.10773907601833344,45.7611083984375,-33.6151123046875,219.8486328125
9.1699999,0.8810662031173706,3.909731388092041,-0.14844051003456116,34.7137451171875,-16.357421875,202.94189453125
9.1899999,1.482010841369629,2.5929205417633057,-0.6344634294509888,19.10400390625,-16.9830322265625,182.6019287109375
9.209999900000001,2.250549554824829,1.5466543436050415,-0.7852981686592102,2.62451171875,-12.0849609375,175.506591796875
9.229999900000001,3.021482467651367,0.9097966551780701,-0.8140285611152649,6.4544677734375,-17.15087890625,170.501708984375
9.2499999,3.773261785507202,0.4189853072166443,-0.6368576288223267,6.2103271484375,-31.9976806640625,176.055908203125
9.2699999,4.2329487800598145,0.011971008032560349,-0.37828385829925537,-11.5509033203125,-54.26025390625,171.0205078125
9.2899999,4.613626480102539,-0.828393816947937,-0.5099649429321289,-32.53173828125,-83.8775634765625,180.2978515625
9.309999900000001,5.037400245666504,-1.50355863571167,-0.7948749661445618,-68.2830810546875,-44.281005859375,141.5863037109375
9.3299999,5.406107425689697,-2.4588451385498047,-1.0821791887283325,-40.8782958984375,-2.99072265625,78.216552734375
9.3499999,6.129156112670898,-2.806004285812378,-1.8698714971542358,-6.561279296875,-47.149658203125,44.3267822265625
9.3699999,6.847416877746582,-2.647987127304077,-2.0925323963165283,32.989501953125,16.2200927734375,1.15966796875
9.389999900000001,7.441178798675537,-1.8962076902389526,-2.341529369354248,16.78466796875,52.5360107421875,16.571044921875
9.4099999,7.872135162353516,-1.1563993692398071,-2.161964178085327,-8.23974609375,50.2471923828125,46.173095703125
9.4299999,8.075642585754395,-0.6703764796257019,-1.4413094520568848,-14.1754150390625,43.365478515625,24.017333984375
9.4499999,8.130708694458008,-0.4620809257030487,-0.4692635238170624,-10.07080078125,22.3236083984375,-25.93994140625
9.469999900000001,8.312667846679688,-0.43095630407333374,0.5578489899635315,-4.3487548828125,8.331298828125,-26.5350341796875
9.4899999,8.633491516113281,0.09816227108240128,1.2761094570159912,0.2899169921875,-0.885009765625,-14.434814453125
9.5099999,8.932766914367676,0.7541735172271729,1.6112977266311646,-7.3699951171875,12.9241943359375,0.335693359375
9.5299999,9.248801231384277,1.2545616626739502,1.4652514457702637,-34.2254638671875,20.0042724609375,-0.06103515625
9.549999900000001,9.622296333312988,2.0374655723571777,1.290474772453308,-31.9061279296875,31.3720703125,-22.1099853515625
9.569999900000001,9.90241813659668,2.516305923461914,1.1659762859344482,1.708984375,26.5045166015625,-10.3302001953125
9.5899999,10.160991668701172,3.1866824626922607,1.1013327836990356,9.9945068359375,-4.1046142578125,12.237548828125
9.6099999,10.283096313476562,3.514688014984131,1.158793568611145,-2.13623046875,7.2174072265625,18.310546875
9.629999900000001,10.168174743652344,3.512293815612793,1.1324573755264282,-19.5770263671875,20.56884765625,5.0506591796875
9.649999900000001,9.99339771270752,3.337517261505127,1.1276689767837524,-18.4478759765625,12.6495361328125,-0.5340576171875
9.6699999,9.823410034179688,2.9664158821105957,1.0630255937576294,-0.213623046875,-5.3253173828125,12.8326416015625
9.6899999,9.639056205749512,2.736572504043579,1.0007762908935547,0.823974609375,-6.3629150390625,0.274658203125
9.709999900000001,9.466673851013184,2.3798365592956543,0.7852981686592102,-8.23974609375,2.1209716796875,-5.5694580078125
9.729999900000001,9.363722801208496,2.1571757793426514,0.5027823448181152,-9.09423828125,-0.5340576171875,-12.725830078125
9.7499999,9.32541561126709,2.1140801906585693,0.3519476354122162,-5.2490234375,2.01416015625,-10.0860595703125
9.7699999,9.349357604980469,2.1811177730560303,0.31364041566848755,-3.23486328125,-1.0223388671875,-1.0528564453125
9.7899999,9.397241592407227,2.27209734916687,0.3423708379268646,-6.744384765625,1.6632080078125,1.1749267578125
9.809999900000001,9.435548782348633,2.3582887649536133,0.42377370595932007,-9.2926025390625,5.7373046875,-4.8675537109375
9.8299999,9.476250648498535,2.4420857429504395,0.4405331015586853,-1.0833740234375,3.84521484375,-4.94384765625
9.8499999,9.514557838439941,2.5258827209472656,0.4692635238170624,5.950927734375,3.4942626953125,3.60107421875
9.8699999,9.519346237182617,2.5929205417633057,0.4572925269603729,5.1727294921875,1.373291015625,4.5623779296875
9.889999900000001,9.48343276977539,2.540247917175293,0.4572925269603729,2.7008056640625,1.8463134765625,-0.3814697265625
9.9099999,9.41400146484375,2.434903144836426,0.40701428055763245,-0.1220703125,4.0283203125,-5.2642822265625
9.9299999,9.366117477416992,2.3726539611816406,0.4165911078453064,-1.52587890625,7.6141357421875,-5.584716796875
9.9499999,9.370905876159668,2.387019157409668,0.4644751250743866,-4.6234130859375,8.6517333984375,-2.0294189453125
9.969999900000001,9.41400146484375,2.4827871322631836,0.5746083855628967,-6.16455078125,6.988525390625,-0.152587890625
9.9899999,9.47146224975586,2.5546131134033203,0.7182605266571045,-2.3345947265625,4.0283203125,0.9918212890625
10.0099999,9.516951560974121,2.6168625354766846,0.8451532125473022,-1.6021728515625,4.94384765625,0.1068115234375
10.0299999,9.536105155944824,2.6408045291900635,0.9241618514060974,-0.91552734375,3.0364990234375,-1.068115234375
10.049999900000001,9.516951560974121,2.5785553455352783,0.993593692779541,0.7171630859375,1.6632080078125,1.2664794921875
10.069999900000001,9.469067573547363,2.470816135406494,0.9600749015808105,1.678466796875,-3.143310546875,0.0457763671875
10.0899999,9.41639518737793,2.3702597618103027,0.9145850539207458,-1.77001953125,-1.495361328125,-8.026123046875
10.1099999,9.38048267364502,2.315192937850952,0.8092401623725891,-4.608154296875,1.0986328125,-8.148193359375
10.129999900000001,9.375694274902344,2.3535003662109375,0.7398083209991455,-4.9285888671875,2.8533935546875,-1.9378662109375
10.149999900000001,9.385271072387695,2.4588451385498047,0.6655880808830261,-5.523681640625,0.48828125,0.4730224609375
10.1699999,9.390059471130371,2.492363929748535,0.6224924325942993,-3.662109375,0.9002685546875,-0.9918212890625
10.1899999,9.3828763961792,2.5115175247192383,0.6129156351089478,-4.21142578125,4.5318603515625,-3.2501220703125
10.209999900000001,9.375694274902344,2.4899697303771973,0.5817909836769104,-3.1890869140625,1.251220703125,-4.7607421875
10.229999900000001,9.363722801208496,2.4899697303771973,0.5770025849342346,0,-3.23486328125,-4.94384765625
10.2499999,9.351752281188965,2.5067291259765625,0.5171475410461426,1.922607421875,-2.44140625,-4.0130615234375
10.2699999,9.342175483703613,2.5258827209472656,0.4692635238170624,0.152587890625,2.3651123046875,-5.0048828125
10.2899999,9.354146003723145,2.5665841102600098,0.45010992884635925,-2.5634765625,4.302978515625,-6.195068359375
10.309999900000001,9.390059471130371,2.6384103298187256,0.45010992884635925,-2.1209716796875,1.2359619140625,-5.218505859375
10.3299999,9.433155059814453,2.719813108444214,0.5123591423034668,1.0833740234375,0.640869140625,-1.861572265625
10.3499999,9.47146224975586,2.7700912952423096,0.545877993106842,0.579833984375,2.0751953125,0.2899169921875
10.3699999,9.466673851013184,2.7964274883270264,0.5817909836769104,-1.251220703125,1.800537109375,-2.716064453125
10.389999900000001,9.435548782348633,2.719813108444214,0.6033388376235962,0.9918212890625,0.030517578125,-1.2359619140625
10.4099999,9.402029991149902,2.6791117191314697,0.5841852426528931,3.265380859375,-1.5869140625,-4.8065185546875
10.4299999,9.387664794921875,2.669534921646118,0.5770025849342346,1.28173828125,2.4566650390625,-7.4005126953125
10.4499999,9.390059471130371,2.7988216876983643,0.5171475410461426,1.15966796875,3.021240234375,-2.8076171875
10.469999900000001,9.440337181091309,2.7054479122161865,0.47165772318840027,1.1138916015625,5.4779052734375,5.79833984375
10.4899999,9.421183586120605,2.8850131034851074,0.4165911078453064,4.180908203125,5.279541015625,-12.7105712890625
10.5099999,9.454702377319336,2.7054479122161865,0.47644615173339844,4.1046142578125,6.8359375,-6.9427490234375
10.5299999,9.41639518737793,2.7437551021575928,0.47884035110473633,2.410888671875,2.960205078125,-2.410888671875
10.549999900000001,9.459490776062012,2.736572504043579,0.608127236366272,2.1209716796875,1.007080078125,-7.354736328125
10.569999900000001,9.445125579833984,2.7964274883270264,0.7158663272857666,-0.518798828125,5.18798828125,-4.8980712890625
10.5899999,9.490615844726562,2.8347349166870117,0.7374141216278076,-1.800537109375,0.8087158203125,-2.5787353515625
10.6099999,9.430760383605957,2.8778305053710938,0.8044517636299133,-0.244140625,4.4708251953125,-7.0037841796875
10.629999900000001,9.41400146484375,2.8826189041137695,0.7829039692878723,-1.7547607421875,4.119873046875,-4.4403076171875
10.649999900000001,9.373299598693848,2.894589900970459,0.7996633648872375,-2.4261474609375,1.9378662109375,-0.518798828125
10.6699999,9.370905876159668,2.911349296569824,0.7829039692878723,-3.631591796875,1.953125,0.2593994140625
10.6899999,9.387664794921875,2.9520506858825684,0.7565677165985107,-5.6915283203125,1.7242431640625,-1.495361328125
10.709999900000001,9.409213066101074,2.978386878967285,0.7110779285430908,-3.23486328125,3.2501220703125,1.861572265625
10.729999900000001,9.399636268615723,2.920926094055176,0.6416460275650024,-3.326416015625,4.0283203125,2.2735595703125
10.7499999,9.366117477416992,2.827552318572998,0.6177040338516235,-1.0986328125,1.9378662109375,0.457763671875
10.7699999,9.337387084960938,2.7509377002716064,0.5961562395095825,-1.190185546875,3.3111572265625,-1.15966796875
10.7899999,9.32302188873291,2.691082715988159,0.5650315880775452,0.946044921875,4.150390625,-2.13623046875
10.809999900000001,9.30386734008789,2.719813108444214,0.5817909836769104,0,5.79833984375,-2.716064453125
10.8299999,9.301473617553711,2.7222073078155518,0.5626373887062073,1.0833740234375,-0.213623046875,-0.0762939453125
10.8499999,9.289502143859863,2.7437551021575928,0.5793967843055725,-0.457763671875,2.9296875,-1.9073486328125
10.8699999,9.289502143859863,2.741360902786255,0.569819986820221,-2.38037109375,5.2947998046875,-5.340576171875
10.889999900000001,9.296685218811035,2.715024709701538,0.5530605912208557,-2.8228759765625,6.1492919921875,-6.2713623046875
10.9099999,9.313444137573242,2.760514497756958,0.6344634294509888,-2.50244140625,7.232666015625,-7.7056884765625
10.9299999,9.349357604980469,2.7964274883270264,0.7398083209991455,-2.044677734375,3.2196044921875,-2.5177001953125
10.9499999,9.368511199951172,2.8874073028564453,0.8882488012313843,-4.8980712890625,2.0904541015625,-1.190185546875
10.969999900000001,9.378087997436523,2.9328970909118652,0.9864110946655273,-3.875732421875,-0.30517578125,-0.244140625
10.9899999,9.373299598693848,2.9496564865112305,1.015141487121582,-2.4871826171875,0.6561279296875,0.1983642578125
11.0099999,9.363722801208496,2.9520506858825684,1.0271124839782715,-2.0294189453125,2.7008056640625,-3.0670166015625
11.0299999,9.354146003723145,2.9281086921691895,1.0199298858642578,-1.7242431640625,1.4190673828125,-2.6702880859375
11.049999900000001,9.349357604980469,2.918531894683838,1.0342950820922852,-2.2125244140625,-1.40380859375,-3.7384033203125
11.069999900000001,9.337387084960938,2.9281086921691895,0.9983820915222168,-1.068115234375,-2.3651123046875,-5.9051513671875
11.0899999,9.318233489990234,2.9305028915405273,0.9696516990661621,-0.8392333984375,1.617431640625,-3.3416748046875
11.1099999,9.287108421325684,2.9544448852539062,0.9026140570640564,-1.8768310546875,2.2430419921875,-4.3182373046875
11.129999900000001,9.255983352661133,2.9520506858825684,0.8643068075180054,-0.823974609375,0.030517578125,-4.0130615234375
11.149999900000001,9.224859237670898,2.911349296569824,0.8738836050033569,-0.4425048828125,0.6256103515625,-2.960205078125
11.1699999,9.196128845214844,2.8634653091430664,0.8643068075180054,-2.7313232421875,-0.0152587890625,-5.6915283203125
11.1899999,9.174580574035645,2.827552318572998,0.8690952062606812,-3.9520263671875,-0.48828125,-7.9803466796875
11.209999900000001,9.162610054016113,2.827552318572998,0.8523358106613159,-2.6702880859375,-0.6103515625,-6.53076171875
11.229999900000001,9.165003776550293,2.8802247047424316,0.8331822156906128,-2.1209716796875,-0.0152587890625,-4.4708251953125
11.2499999,9.172186851501465,2.940079689025879,0.8020575642585754,-2.4566650390625,-0.213623046875,-4.7149658203125
11.2699999,9.174580574035645,2.983175277709961,0.7733271718025208,-1.52587890625,1.40380859375,-5.4473876953125
11.2899999,9.169792175292969,2.959233283996582,0.7422025203704834,1.373291015625,2.1209716796875,-4.669189453125
11.309999900000001,9.157821655273438,2.9233202934265137,0.7326257228851318,0.213623046875,4.547119140625,-7.2784423828125
11.3299999,9.14345645904541,2.892195701599121,0.7445967197418213,-0.518798828125,4.5318603515625,-11.2762451171875
11.3499999,9.14585018157959,2.889801502227783,0.7829039692878723,-1.2359619140625,4.8370361328125,-11.53564453125
11.3699999,9.14345645904541,2.937685489654541,0.8236053586006165,-0.6561279296875,3.875732421875,-11.810302734375
11.389999900000001,9.162610054016113,3.028665065765381,0.8595184087753296,-2.2125244140625,5.1116943359375,-14.6484375
11.4099999,9.172186851501465,3.136404275894165,0.8882488012313843,-5.6915283203125,5.4473876953125,-16.0064697265625
11.4299999,9.172186851501465,3.246537446975708,0.8810662031173706,-6.2255859375,4.3182373046875,-14.373779296875
11.4499999,9.172186851501465,3.354276657104492,0.8834604024887085,-9.0484619140625,5.43212890625,-13.5040283203125
11.469999900000001,9.155426979064941,3.4596214294433594,0.9002198576927185,-12.6495361328125,7.965087890625,-11.993408203125
11.4899999,9.133879661560059,3.5266590118408203,0.9097966551780701,-8.6822509765625,5.6304931640625,-8.7890625
11.5099999,9.100360870361328,3.5458126068115234,0.9265560507774353,-1.89208984375,2.86865234375,-4.9896240234375
11.5299999,9.057265281677246,3.490746021270752,0.9768342971801758,-6.6680908203125,8.0108642578125,-6.866455078125
11.549999900000001,9.011775016784668,3.406949043273926,0.9792284965515137,-12.63427734375,5.8441162109375,-12.7410888671875
11.569999900000001,8.96389102935791,3.313575267791748,1.01753568649292,-14.58740234375,4.9591064453125,-15.228271484375
11.5899999,8.918401718139648,3.2776620388031006,1.015141487121582,-13.8702392578125,4.33349609375,-14.9383544921875
11.6099999,8.87291145324707,3.3063924312591553,1.015141487121582,-16.66259765625,6.8206787109375,-16.5252685546875
11.629999900000001,8.822632789611816,3.3207578659057617,1.0199298858642578,-19.47021484375,8.941650390625,-16.78466796875
11.649999900000001,8.760383605957031,3.313575267791748,1.0438719987869263,-15.5792236328125,7.7972412109375,-19.6075439453125
11.6699999,8.69334602355957,3.2632968425750732,1.0797849893569946,-15.0299072265625,5.126953125,-24.749755859375
11.6899999,8.628703117370605,3.1914708614349365,1.1300631761550903,-17.0135498046875,8.758544921875,-27.496337890625
11.709999900000001,8.580819129943848,3.1962592601776123,1.194706678390503,-26.824951171875,11.0015869140625,-31.25
11.729999900000001,8.554482460021973,3.3039982318878174,1.2856862545013428,-30.242919921875,9.5062255859375,-31.4178466796875
11.7499999,8.561665534973145,3.5027170181274414,1.3910311460494995,-20.5230712890625,6.0272216796875,-27.03857421875
11.7699999,8.588001251220703,3.7852327823638916,1.5490485429763794,-16.143798828125,8.544921875,-23.101806640625
11.7899999,8.628703117370605,4.067748546600342,1.7501614093780518,0.030517578125,11.5966796875,-17.0135498046875
11.809999900000001,8.700529098510742,4.302380561828613,1.8507179021835327,26.763916015625,4.150390625,-8.331298828125
11.8299999,8.767566680908203,4.5394062995910645,1.9512743949890137,22.3236083984375,2.50244140625,-7.6141357421875
11.8499999,8.83939266204834,4.709394931793213,1.8962076902389526,16.4794921875,6.9427490234375,-4.8980712890625
11.8699999,8.882488250732422,4.853046894073486,1.764526605606079,16.387939453125,2.9296875,-4.1351318359375
11.889999900000001,8.889671325683594,4.896142482757568,1.6496049165725708,16.2811279296875,4.0435791015625,-4.5318603515625
11.9099999,8.848969459533691,4.843470096588135,1.558625340461731,8.8653564453125,2.1820068359375,-6.5765380859375
11.9299999,8.769960403442383,4.702212333679199,1.5155296325683594,4.5318603515625,-0.946044921875,-9.5367431640625
11.9499999,8.662221908569336,4.520252704620361,1.4963760375976562,4.4708251953125,-2.9449462890625,-10.2386474609375
11.969999900000001,8.542511940002441,4.335899353027344,1.4772224426269531,6.072998046875,-4.3792724609375,-10.6353759765625
11.9899999,8.422801971435547,4.158728122711182,1.4724340438842773,4.8370361328125,-8.1787109375,-13.4124755859375
12.0099999,8.303091049194336,4.005499362945557,1.3838485479354858,10.711669921875,-17.51708984375,-18.8140869140625
12.0299999,8.195352554321289,3.869029998779297,1.3670891523361206,7.965087890625,-12.481689453125,-21.1029052734375
12.049999900000001,8.111555099487305,3.8067808151245117,1.2545616626739502,11.7645263671875,-12.6495361328125,-22.979736328125
12.069999900000001,8.042123794555664,3.7636849880218506,1.1635819673538208,27.2674560546875,-11.9781494140625,-21.026611328125
12.0899999,8.003816604614258,3.7900211811065674,1.070208191871643,17.5933837890625,-7.7056884765625,-26.4434814453125
12.1099999,7.989450931549072,3.907337188720703,0.9672574996948242,-5.462646484375,-7.7972412109375,-34.454345703125
12.129999900000001,7.996633529663086,4.1156325340271,0.9720458984375,-14.4500732421875,-2.7923583984375,-36.041259765625
12.149999900000001,8.022970199584961,4.41969633102417,1.036689281463623,-0.244140625,-3.84521484375,-29.1900634765625
12.1699999,8.02536392211914,4.747702121734619,1.0773907899856567,13.458251953125,-14.434814453125,-26.9317626953125
12.1899999,7.989450931549072,4.989516258239746,1.0582371950149536,17.3492431640625,-10.467529296875,-27.374267578125
12.209999900000001,7.888894557952881,5.058948040008545,0.9648633003234863,12.6953125,0.9613037109375,-29.9224853515625
12.229999900000001,7.750030994415283,5.032611846923828,0.7757213711738586,5.096435546875,3.23486328125,-35.1409912109375
12.2499999,7.589619159698486,4.955997467041016,0.667982280254364,-6.2255859375,3.5400390625,-41.168212890625
12.2699999,7.481880187988281,4.9152960777282715,0.5626373887062073,-4.69970703125,4.4708251953125,-41.19873046875
12.289999900000002,7.400477409362793,5.082890033721924,0.5746083855628967,-12.4053955078125,9.2620849609375,-45.7763671875
12.309999900000001,7.362170219421387,5.286397457122803,0.5793967843055725,-6.5460205078125,9.3536376953125,-40.8477783203125
12.3299999,7.3238630294799805,5.525817394256592,0.6703764796257019,1.2969970703125,7.7667236328125,-35.7666015625
12.3499999,7.280767440795898,5.702988624572754,0.6631938815116882,3.570556640625,4.608154296875,-38.818359375
12.3699999,7.196970462799072,5.801150798797607,0.6440402865409851,-13.5345458984375,8.026123046875,-44.219970703125
12.389999900000001,7.113173484802246,5.8657941818237305,0.6320692300796509,-22.6287841796875,11.3677978515625,-52.093505859375
12.4099999,7.029376029968262,5.959167957305908,0.6153098344802856,-0.732421875,11.53564453125,-51.0406494140625
12.4299999,6.947973251342773,6.133944988250732,0.7134721279144287,2.4871826171875,15.8843994140625,-46.5545654296875
12.4499999,6.878541469573975,6.325480937957764,0.8786720037460327,-2.6092529296875,19.317626953125,-43.1976318359375
12.469999900000001,6.797138690948486,6.531382083892822,1.0103530883789062,7.232666015625,11.5509033203125,-39.48974609375
12.4899999,6.72531270980835,6.672640323638916,1.137245774269104,17.5628662109375,8.6212158203125,-36.7431640625
12.5099999,6.643909931182861,6.840234279632568,1.1851298809051514,2.74658203125,11.4898681640625,-41.778564453125
12.5299999,6.5696892738342285,6.967126846313477,1.158793568611145,-7.843017578125,16.3116455078125,-42.4652099609375
12.549999900000001,6.5050458908081055,7.101202011108398,1.1276689767837524,4.6234130859375,23.773193359375,-36.80419921875
12.569999900000001,6.447585105895996,7.304709434509277,1.1252747774124146,4.8065185546875,25.08544921875,-40.313720703125
12.5899999,6.3949127197265625,7.474697589874268,1.1875240802764893,5.92041015625,26.3214111328125,-40.1458740234375
12.6099999,6.344634532928467,7.694964408874512,1.2761094570159912,17.2119140625,25.177001953125,-35.736083984375
12.629999900000001,6.258443355560303,7.888894557952881,1.3335703611373901,39.1387939453125,20.721435546875,-33.75244140625
12.649999900000001,6.145915985107422,8.010998725891113,1.41257905960083,57.342529296875,18.61572265625,-30.120849609375
12.6699999,5.995080947875977,8.08043098449707,1.3862427473068237,71.4263916015625,9.0179443359375,-31.5704345703125
12.6899999,5.839457988739014,8.087613105773926,1.2617442607879639,95.7183837890625,-0.640869140625,-30.517578125
12.709999900000001,5.710171222686768,8.106766700744629,1.0462661981582642,91.949462890625,2.5177001953125,-27.2979736328125
12.729999900000001,5.612008571624756,8.166622161865234,0.768538773059845,69.854736328125,4.5318603515625,-26.2451171875
12.7499999,5.549759387969971,8.26239013671875,0.5171475410461426,70.4498291015625,-3.0517578125,-25.6195068359375
12.7699999,5.525817394256592,8.307879447937012,0.2825157940387726,91.7816162109375,-9.82666015625,-21.0113525390625
12.789999900000002,5.509057998657227,8.322244644165039,0.06464344263076782,69.305419921875,-9.9945068359375,-21.30126953125
12.809999900000001,5.477933406829834,8.343792915344238,-0.21787235140800476,36.102294921875,-3.4332275390625,-28.6102294921875
12.8299999,5.442020416259766,8.355764389038086,-0.4668693244457245,23.6663818359375,2.86865234375,-28.900146484375
12.8499999,5.3797712326049805,8.458714485168457,-0.5937620401382446,18.310546875,2.1820068359375,-27.3284912109375
12.8699999,5.322310447692871,8.578424453735352,-0.646434485912323,21.6064453125,-3.265380859375,-25.20751953125
12.889999900000001,5.252878665924072,8.731653213500977,-0.586579442024231,14.251708984375,-3.387451171875,-26.8096923828125
12.9099999,5.16429328918457,8.815450668334961,-0.5386953949928284,11.3525390625,-3.3721923828125,-25.8941650390625
12.9299999,5.061342239379883,8.856152534484863,-0.5267243981361389,26.2451171875,-6.5155029296875,-23.5443115234375
12.9499999,4.927267074584961,8.760383605957031,-0.667982280254364,33.8287353515625,-6.805419921875,-21.54541015625
12.969999900000001,4.778826713562012,8.635885238647461,-0.7398083209991455,-2.8533935546875,-2.13623046875,-24.9176025390625
12.9899999,4.651933670043945,8.463502883911133,-0.9576807022094727,-5.4779052734375,-7.965087890625,-30.1055908203125
13.0099999,4.520252704620361,8.379706382751465,-1.0342950820922852,6.622314453125,-6.7596435546875,-27.7862548828125
13.0299999,4.41969633102417,8.343792915344238,-1.0773907899856567,6.134033203125,-5.3253173828125,-25.81787109375
13.049999900000001,4.343081951141357,8.341399192810059,-1.137245774269104,11.8865966796875,-8.636474609375,-26.7181396484375
13.069999900000001,4.268861770629883,8.418013572692871,-1.1444283723831177,-4.39453125,-4.1046142578125,-31.585693359375
13.0899999,4.2090067863464355,8.504204750061035,-1.1803414821624756,0.823974609375,-3.204345703125,-29.78515625
13.1099999,4.144362926483154,8.628703117370605,-1.192312479019165,12.1002197265625,-5.3863525390625,-26.4434814453125
13.129999900000001,4.07014274597168,8.755595207214355,-1.1540051698684692,13.336181640625,-3.7994384765625,-27.0233154296875
13.149999900000001,3.993528366088867,8.822632789611816,-1.137245774269104,9.033203125,-2.960205078125,-27.34375
13.1699999,3.9193081855773926,8.875306129455566,-1.1492167711257935,2.25830078125,-3.1280517578125,-27.4505615234375
13.1899999,3.84269380569458,8.937555313110352,-1.1851298809051514,2.655029296875,-1.4495849609375,-26.763916015625
13.209999900000001,3.7660791873931885,9.042900085449219,-1.2306196689605713,8.85009765625,-1.800537109375,-28.3660888671875
13.229999900000001,3.689464807510376,9.124302864074707,-1.2306196689605713,14.678955078125,-3.1585693359375,-25.4364013671875
13.2499999,3.6128504276275635,9.191340446472168,-1.2210428714752197,13.885498046875,-6.2408447265625,-23.7274169921875
13.2699999,3.5410242080688477,9.2033109664917,-1.1563993692398071,14.0533447265625,-5.218505859375,-24.9481201171875
13.289999900000002,3.4620156288146973,9.217676162719727,-1.113303780555725,9.5672607421875,-7.049560546875,-27.1759033203125
13.309999900000001,3.380612850189209,9.188945770263672,-1.1037269830703735,17.1051025390625,-10.2386474609375,-24.0325927734375
13.3299999,3.28963303565979,9.215282440185547,-1.2066776752471924,21.8658447265625,-12.115478515625,-23.5595703125
13.3499999,3.2154128551483154,9.255983352661133,-1.3120225667953491,12.26806640625,-7.75146484375,-24.47509765625
13.3699999,3.141192674636841,9.311050415039062,-1.4748282432556152,11.90185546875,-6.3934326171875,-23.01025390625
13.389999900000001,3.0789434909820557,9.363722801208496,-1.6112977266311646,22.15576171875,-12.3443603515625,-20.4315185546875
13.4099999,3.021482467651367,9.378087997436523,-1.7118542194366455,22.1099853515625,-13.12255859375,-21.3470458984375
13.4299999,2.9520506858825684,9.41400146484375,-1.800439715385437,11.138916015625,-12.8326416015625,-24.84130859375
13.4499999,2.896984100341797,9.442731857299805,-1.9369091987609863,16.571044921875,-14.862060546875,-23.284912109375
13.469999900000001,2.849100112915039,9.526528358459473,-2.0590133666992188,17.39501953125,-13.458251953125,-20.050048828125
13.4899999,2.808398485183716,9.636661529541016,-2.2194249629974365,15.68603515625,-11.5203857421875,-19.59228515625
13.5099999,2.784456491470337,9.751583099365234,-2.33913516998291,10.8795166015625,-9.33837890625,-20.6146240234375
13.5299999,2.7533318996429443,9.854534149169922,-2.4157495498657227,12.1002197265625,-9.5977783203125,-18.4783935546875
13.549999900000001,2.7030537128448486,9.907206535339355,-2.4157495498657227,11.474609375,-10.8642578125,-14.2059326171875
13.569999900000001,2.6408045291900635,9.852140426635742,-2.4396915435791016,14.6942138671875,-12.8021240234375,-11.04736328125
13.5899999,2.564189910888672,9.77791976928711,-2.432508945465088,2.9296875,-8.23974609375,-15.3045654296875
13.6099999,2.494758129119873,9.677363395690918,-2.4444799423217773,-1.7852783203125,-4.2724609375,-16.7083740234375
13.629999900000001,2.427720546722412,9.617507934570312,-2.43011474609375,5.3253173828125,-5.767822265625,-10.80322265625
13.649999900000001,2.367865562438965,9.59835433959961,-2.4013843536376953,7.2479248046875,-12.20703125,-9.185791015625
13.6699999,2.2912509441375732,9.550470352172852,-2.4157495498657227,4.3792724609375,-11.6424560546875,-10.162353515625
13.6899999,2.2170307636260986,9.473855972290039,-2.5019407272338867,1.953125,-8.0108642578125,-11.962890625
13.709999900000001,2.1380221843719482,9.387664794921875,-2.5785553455352783,-5.7220458984375,-2.1514892578125,-12.3291015625
13.729999900000001,2.0853497982025146,9.311050415039062,-2.6431987285614014,-6.5765380859375,-6.0577392578125,-11.4288330078125
13.7499999,2.030282974243164,9.29189682006836,-2.631227731704712,-5.950927734375,-9.552001953125,-12.9852294921875
13.7699999,1.9800047874450684,9.253589630126953,-2.609679937362671,1.9073486328125,-8.148193359375,-11.6729736328125
13.789999900000002,1.922544002532959,9.258378028869629,-2.631227731704712,4.6234130859375,-6.622314453125,-12.2833251953125
13.809999900000001,1.867477297782898,9.23443603515625,-2.6862943172454834,4.0435791015625,-4.5166015625,-12.9547119140625
13.8299999,1.821987509727478,9.224859237670898,-2.7126305103302,2.166748046875,0.1068115234375,-14.0228271484375
13.8499999,1.8076223134994507,9.196128845214844,-2.7437551021575928,2.3956298828125,-4.1961669921875,-16.3421630859375
13.8699999,1.766920804977417,9.215282440185547,-2.7246015071868896,0.91552734375,-8.758544921875,-22.3388671875
13.889999900000001,1.723825216293335,9.184157371520996,-2.75812029838562,-2.13623046875,-7.2479248046875,-23.9105224609375
13.9099999,1.6519991159439087,9.150638580322266,-2.8227639198303223,0.396728515625,-1.8157958984375,-26.7181396484375
13.9299999,1.5514427423477173,9.167398452758789,-2.9257144927978516,0.91552734375,2.86865234375,-38.818359375
13.9499999,1.460463047027588,9.279925346374512,-2.892195701599121,-6.2103271484375,8.544921875,-38.7725830078125
13.969999900000001,1.3766659498214722,9.428366661071777,-2.8419175148010254,-3.662109375,2.8839111328125,-23.6358642578125
13.9899999,1.2713210582733154,9.655815124511719,-2.7461493015289307,4.08935546875,-2.6702880859375,-20.0653076171875
14.0099999,1.1851298809051514,9.718064308166504,-2.652775526046753,1.2054443359375,5.6610107421875,-13.916015625
14.0299999,1.091755986213684,9.734824180603027,-2.580949544906616,-1.5869140625,10.772705078125,-14.8468017578125
14.049999900000001,1.01753568649292,9.677363395690918,-2.5761611461639404,-0.457763671875,2.7923583984375,-16.7694091796875
14.069999900000001,0.9744400978088379,9.612719535827637,-2.513911724090576,4.7149658203125,3.692626953125,-12.6800537109375
14.0899999,0.9481038451194763,9.545681953430176,-2.5091233253479004,-1.7852783203125,6.89697265625,-12.4359130859375
14.1099999,0.9193734526634216,9.531316757202148,-2.4636335372924805,1.15966796875,7.9803466796875,-17.547607421875
14.129999900000001,0.8978256583213806,9.536105155944824,-2.425326347351074,1.7547607421875,2.9296875,-13.61083984375
14.149999900000001,0.8595184087753296,9.576807022094727,-2.403778553009033,4.1656494140625,-3.631591796875,-6.7596435546875
14.1699999,0.8236053586006165,9.624691009521484,-2.408566951751709,2.5482177734375,0.6103515625,-7.50732421875
14.1899999,0.7876923680305481,9.610325813293457,-2.451662540435791,1.251220703125,4.39453125,-9.09423828125
14.209999900000001,0.7661445140838623,9.552865028381348,-2.537853717803955,0.579833984375,2.0294189453125,-10.7879638671875
14.229999900000001,0.7350199222564697,9.521739959716797,-2.557007312774658,-2.8228759765625,5.828857421875,-14.7705078125
14.2499999,0.7182605266571045,9.521739959716797,-2.6001031398773193,-2.25830078125,6.77490234375,-11.077880859375
14.2699999,0.6871358752250671,9.564835548400879,-2.626439332962036,3.23486328125,5.0506591796875,-7.8582763671875
14.289999900000002,0.6560112833976746,9.622296333312988,-2.5689783096313477,-1.28173828125,7.476806640625,-7.99560546875
14.309999900000001,0.6272808313369751,9.636661529541016,-2.561795711517334,0.2593994140625,1.3427734375,-8.056640625
14.3299999,0.608127236366272,9.619902610778809,-2.5282769203186035,-0.1068115234375,-0.732421875,-7.99560546875
14.3499999,0.5793967843055725,9.59596061706543,-2.5091233253479004,-5.18798828125,4.6539306640625,-11.1541748046875
14.3699999,0.5530605912208557,9.576807022094727,-2.542642116546631,-2.86865234375,2.044677734375,-11.5966796875
14.389999900000001,0.5195417404174805,9.567230224609375,-2.5522189140319824,-0.396728515625,-1.3275146484375,-7.598876953125
14.4099999,0.48602294921875,9.5624418258667,-2.5977089405059814,1.1749267578125,-1.8768310546875,-5.5389404296875
14.4299999,0.4668693244457245,9.5624418258667,-2.6360161304473877,-0.6866455078125,1.8310546875,-6.561279296875
14.4499999,0.4596867263317108,9.591172218322754,-2.6431987285614014,-3.7689208984375,2.777099609375,-6.9732666015625
14.469999900000001,0.4572925269603729,9.624691009521484,-2.6886885166168213,2.105712890625,-3.265380859375,-4.6539306640625
14.4899999,0.4620809257030487,9.658209800720215,-2.6647465229034424,3.265380859375,-0.3204345703125,-2.3956298828125
14.5099999,0.45489832758903503,9.677363395690918,-2.698265314102173,-0.8087158203125,1.0223388671875,-3.6468505859375
14.5299999,0.45010992884635925,9.68694019317627,-2.676717519760132,-1.6632080078125,0.7781982421875,-4.7607421875
14.549999900000001,0.4405331015586853,9.706093788146973,-2.7054479122161865,1.800537109375,-1.861572265625,-2.7008056640625
14.569999900000001,0.4357447028160095,9.737217903137207,-2.674323320388794,2.3040771484375,0.762939453125,0.823974609375
14.5899999,0.42616790533065796,9.758766174316406,-2.7030537128448486,0.579833984375,2.166748046875,1.4495849609375
14.6099999,0.4189853072166443,9.75397777557373,-2.7006595134735107,1.434326171875,2.7618408203125,0.4119873046875
14.629999900000001,0.4189853072166443,9.696516990661621,-2.6862943172454834,3.7689208984375,3.3111572265625,0.7476806640625
14.649999900000001,0.4118026793003082,9.66539192199707,-2.628833532333374,2.685546875,2.655029296875,-1.1138916015625
14.6699999,0.40462008118629456,9.607931137084961,-2.607285737991333,5.340576171875,-2.01416015625,-0.457763671875
14.6899999,0.3974374830722809,9.569623947143555,-2.5498247146606445,2.3651123046875,1.1444091796875,0.396728515625
14.709999900000001,0.37828385829925537,9.533711433410645,-2.564189910888672,1.89208984375,1.15966796875,-0.091552734375
14.729999900000001,0.363918662071228,9.485827445983887,-2.5905263423919678,4.730224609375,-1.2969970703125,0.5035400390625
14.7499999,0.3519476354122162,9.440337181091309,-2.5953147411346436,1.190185546875,1.953125,-0.2899169921875
14.7699999,0.33758243918418884,9.39245319366455,-2.604891538619995,2.25830078125,3.35693359375,-0.6561279296875
14.789999900000002,0.33279404044151306,9.32541561126709,-2.585737943649292,4.1046142578125,3.3721923828125,-0.7171630859375
14.809999900000001,0.3280056416988373,9.282320022583008,-2.561795711517334,0.91552734375,3.662109375,-2.7618408203125
14.8299999,0.3256114423274994,9.260771751403809,-2.5306711196899414,-2.3345947265625,1.800537109375,-3.5247802734375
14.8499999,0.3280056416988373,9.287108421325684,-2.540247917175293,0.1678466796875,-0.9613037109375,-3.0975341796875
14.8699999,0.3280056416988373,9.370905876159668,-2.5522189140319824,-1.3275146484375,1.5106201171875,-2.62451171875
14.889999900000001,0.3256114423274994,9.469067573547363,-2.5905263423919678,-2.44140625,2.3040771484375,-0.9765625
14.9099999,0.3232172429561615,9.545681953430176,-2.6408045291900635,0.0762939453125,1.922607421875,0.3662109375
14.9299999,0.31842881441116333,9.588777542114258,-2.6455929279327393,-2.3040771484375,3.387451171875,-1.1138916015625
14.9499999,0.31124621629714966,9.555258750915527,-2.674323320388794,0.3662109375,0.8087158203125,-1.007080078125
14.969999900000001,0.3064578175544739,9.524134635925293,-2.6431987285614014,-0.1983642578125,2.01416015625,-1.6021728515625
14.9899999,0.304063618183136,9.493009567260742,-2.6216509342193604,-1.312255859375,1.8463134765625,-2.3040771484375
15.0099999,0.304063618183136,9.500192642211914,-2.6216509342193604,-0.091552734375,0.18310546875,-1.251220703125
15.0299999,0.30885201692581177,9.524134635925293,-2.63362193107605,0.3204345703125,1.0528564453125,-0.244140625
15.049999900000001,0.31124621629714966,9.552865028381348,-2.6455929279327393,-0.54931640625,2.86865234375,-0.0152587890625
15.069999900000001,0.31842881441116333,9.57201862335205,-2.6431987285614014,-1.89208984375,2.4871826171875,-0.6561279296875
15.0899999,0.31842881441116333,9.560047149658203,-2.63362193107605,-0.8392333984375,0.42724609375,0.7781982421875
15.1099999,0.31364041566848755,9.53849983215332,-2.6192567348480225,-0.1068115234375,0.640869140625,0.9002685546875
15.129999900000001,0.3064578175544739,9.514557838439941,-2.6360161304473877,-0.4119873046875,2.532958984375,-0.5340576171875
15.149999900000001,0.2968810200691223,9.478644371032715,-2.6431987285614014,-1.77001953125,3.8299560546875,-0.4730224609375
15.1699999,0.28730419278144836,9.445125579833984,-2.6455929279327393,-0.79345703125,2.685546875,0.18310546875
15.1899999,0.2801215946674347,9.41400146484375,-2.6216509342193604,0.1220703125,0.6561279296875,-0.640869140625
15.209999900000001,0.272938996553421,9.39245319366455,-2.6001031398773193,-0.3814697265625,1.6021728515625,-1.739501953125
15.229999900000001,0.27054479718208313,9.390059471130371,-2.5713725090026855,-1.434326171875,2.3345947265625,-1.220703125
15.2499999,0.272938996553421,9.397241592407227,-2.5665841102600098,0.3662109375,1.52587890625,0.30517578125
15.2699999,0.272938996553421,9.411606788635254,-2.540247917175293,-0.06103515625,1.6021728515625,0.1373291015625
15.289999900000002,0.2753331959247589,9.421183586120605,-2.516305923461914,0.244140625,0.8697509765625,-1.0833740234375
15.309999900000001,0.27054479718208313,9.397241592407227,-2.499546527862549,-1.03759765625,1.190185546875,-0.274658203125
15.3299999,0.26575639843940735,9.387664794921875,-2.497152328491211,0.2899169921875,0.2288818359375,-0.91552734375
15.3499999,0.26575639843940735,9.38048267364502,-2.52109432220459,0,1.739501953125,-2.1209716796875
15.3699999,0.26815059781074524,9.394847869873047,-2.535459518432617,-0.6866455078125,2.5482177734375,-1.3427734375
15.389999900000001,0.2777273952960968,9.425971984863281,-2.557007312774658,0.732421875,0.8087158203125,-0.701904296875
15.4099999,0.2849099934101105,9.478644371032715,-2.5665841102600098,-0.274658203125,-0.457763671875,-0.732421875
15.4299999,0.28730419278144836,9.502586364746094,-2.5761611461639404,0.6866455078125,0.274658203125,0.0762939453125
15.4499999,0.2849099934101105,9.50737476348877,-2.6001031398773193,-0.274658203125,1.6021728515625,0.396728515625
15.469999900000001,0.2753331959247589,9.481039047241211,-2.6024973392486572,-0.6866455078125,2.288818359375,-0.0457763671875
15.4899999,0.26575639843940735,9.44752025604248,-2.6168625354766846,-0.7171630859375,0.7781982421875,-0.9307861328125
15.5099999,0.2585737705230713,9.418789863586426,-2.6001031398773193,-0.7171630859375,0.1373291015625,-0.9613037109375
15.5299999,0.2561795711517334,9.409213066101074,-2.6192567348480225,1.739501953125,-0.701904296875,-0.6256103515625
15.549999900000001,0.2561795711517334,9.409213066101074,-2.631227731704712,-0.0457763671875,0.91552734375,0.0152587890625
15.569999900000001,0.26096799969673157,9.418789863586426,-2.6455929279327393,-0.8392333984375,1.5869140625,-0.79345703125
15.5899999,0.26575639843940735,9.430760383605957,-2.674323320388794,0.0762939453125,-0.640869140625,-1.4190673828125
15.6099999,0.26815059781074524,9.440337181091309,-2.6647465229034424,0.2899169921875,1.1138916015625,-0.1983642578125
15.629999900000001,0.2753331959247589,9.440337181091309,-2.6791117191314697,0.6256103515625,0.79345703125,0.06103515625
15.649999900000001,0.27054479718208313,9.435548782348633,-2.6575639247894287,0.5340576171875,1.8157958984375,-0.823974609375
15.6699999,0.26575639843940735,9.428366661071777,-2.652775526046753,-0.1068115234375,1.40380859375,-1.2664794921875
15.6899999,0.2537853717803955,9.428366661071777,-2.6144683361053467,0.7476806640625,1.8157958984375,-0.3662109375
15.709999900000001,0.24660277366638184,9.418789863586426,-2.6001031398773193,0.6256103515625,1.0986328125,0.4119873046875
15.729999900000001,0.23702596127986908,9.41400146484375,-2.583343744277954,0.518798828125,0.274658203125,-0.8087158203125
15.7499999,0.2346317619085312,9.406818389892578,-2.5737667083740234,-1.251220703125,1.800537109375,-1.46484375
15.7699999,0.2346317619085312,9.421183586120605,-2.5977089405059814,-0.18310546875,1.3580322265625,-1.3580322265625
15.789999900000002,0.23702596127986908,9.435548782348633,-2.58813214302063,1.15966796875,2.4566650390625,0.48828125
15.809999900000001,0.23702596127986908,9.466673851013184,-2.6024973392486572,1.0833740234375,2.13623046875,-0.091552734375
15.8299999,0.24181437492370605,9.48343276977539,-2.5665841102600098,-0.0457763671875,2.166748046875,-1.0986328125
15.8499999,0.24181437492370605,9.490615844726562,-2.5689783096313477,0.0762939453125,0.06103515625,-0.0152587890625
15.869999900000002,0.24181437492370605,9.478644371032715,-2.542642116546631,0.823974609375,0.6866455078125,0.6866455078125
15.889999900000001,0.23942017555236816,9.461885452270508,-2.564189910888672,-0.8544921875,0.4425048828125,-1.15966796875
15.9099999,0.23942017555236816,9.435548782348633,-2.559401512145996,-0.518798828125,0.67138671875,-1.7242431640625
15.9299999,0.23702596127986908,9.435548782348633,-2.5929205417633057,0.640869140625,0.7171630859375,-1.2664794921875
15.9499999,0.23702596127986908,9.440337181091309,-2.5929205417633057,1.007080078125,1.495361328125,0.5340576171875
15.969999900000001,0.2346317619085312,9.457097053527832,-2.631227731704712,0.885009765625,0.885009765625,0.4119873046875
15.9899999,0.2346317619085312,9.469067573547363,-2.6384103298187256,0.030517578125,1.983642578125,-0.946044921875
16.0099999,0.2346317619085312,9.47146224975586,-2.6599581241607666,-0.335693359375,1.5106201171875,-0.6561279296875
16.0299999,0.2346317619085312,9.464279174804688,-2.655169725418091,0.030517578125,1.89208984375,0.67138671875
16.0499999,0.2298433631658554,9.461885452270508,-2.6599581241607666,-0.1220703125,1.1138916015625,-0.244140625
16.0699999,0.2298433631658554,9.433155059814453,-2.6455929279327393,-0.1068115234375,2.50244140625,-0.4119873046875
16.089999900000002,0.22744916379451752,9.423578262329102,-2.6384103298187256,-0.0152587890625,2.166748046875,-1.0528564453125
16.109999900000002,0.2298433631658554,9.411606788635254,-2.628833532333374,0.8392333984375,0.823974609375,-0.0152587890625
16.1299999,0.2298433631658554,9.409213066101074,-2.609679937362671,0.335693359375,1.190185546875,0.091552734375
16.1499999,0.2322375625371933,9.409213066101074,-2.6192567348480225,-0.2288818359375,0.8087158203125,-0.7781982421875
16.1699999,0.2322375625371933,9.411606788635254,-2.6192567348480225,-0.30517578125,0.8392333984375,-1.03759765625
16.1899999,0.2298433631658554,9.411606788635254,-2.6192567348480225,-0.30517578125,2.13623046875,-0.06103515625
16.2099999,0.22505496442317963,9.411606788635254,-2.6168625354766846,0.2593994140625,0.5645751953125,-0.152587890625
16.2299999,0.21787235140800476,9.399636268615723,-2.6168625354766846,0.0762939453125,-0.1220703125,-0.9307861328125
16.249999900000002,0.2082955539226532,9.3828763961792,-2.6144683361053467,-0.885009765625,1.52587890625,-1.0528564453125
16.269999900000002,0.20111294090747833,9.370905876159668,-2.6216509342193604,0.396728515625,1.5716552734375,-1.3885498046875
16.2899999,0.19632454216480255,9.385271072387695,-2.63362193107605,0.335693359375,1.220703125,-1.8157958984375
16.3099999,0.20111294090747833,9.425971984863281,-2.6144683361053467,-0.0762939453125,1.2359619140625,-1.28173828125
16.3299999,0.2059013396501541,9.485827445983887,-2.63362193107605,0.1678466796875,0.1678466796875,-0.335693359375
16.3499999,0.21308395266532898,9.528923034667969,-2.604891538619995,0.18310546875,1.3275146484375,0.6561279296875
16.3699999,0.2059013396501541,9.5408935546875,-2.6455929279327393,3.631591796875,2.197265625,-0.030517578125
16.3899999,0.19871874153614044,9.519346237182617,-2.609679937362671,1.8157958984375,3.753662109375,-1.007080078125
16.4099999,0.19871874153614044,9.485827445983887,-2.6240451335906982,-0.823974609375,2.1820068359375,-1.5869140625
16.429999900000002,0.2082955539226532,9.476250648498535,-2.557007312774658,-3.1280517578125,1.28173828125,-1.556396484375
16.4499999,0.2298433631658554,9.500192642211914,-2.559401512145996,-0.5645751953125,-1.3885498046875,-0.823974609375
16.4699999,0.24899697303771973,9.53849983215332,-2.5330653190612793,0.5645751953125,-0.213623046875,0.3814697265625
16.4899999,0.24660277366638184,9.550470352172852,-2.5665841102600098,-0.274658203125,0.7781982421875,1.7852783203125
16.5099999,0.2298433631658554,9.53849983215332,-2.612074136734009,-1.5716552734375,0.18310546875,0.5340576171875
16.5299999,0.21547815203666687,9.50498104095459,-2.6455929279327393,-0.5645751953125,1.1138916015625,-0.6256103515625
16.5499999,0.20350714027881622,9.48343276977539,-2.6575639247894287,-1.5869140625,1.0986328125,-0.0152587890625
16.5699999,0.2059013396501541,9.476250648498535,-2.6623523235321045,-1.983642578125,-1.434326171875,1.708984375
16.589999900000002,0.2082955539226532,9.457097053527832,-2.6455929279327393,-0.396728515625,-1.251220703125,2.838134765625
16.609999900000002,0.20111294090747833,9.421183586120605,-2.6575639247894287,0.6256103515625,-0.701904296875,1.434326171875
16.6299999,0.18914192914962769,9.370905876159668,-2.6575639247894287,-0.1983642578125,0.30517578125,0.1373291015625
16.6499999,0.17956513166427612,9.32541561126709,-2.655169725418091,-1.1138916015625,0,0.5035400390625
16.6699999,0.17717093229293823,9.294290542602539,-2.6240451335906982,0.732421875,-1.4190673828125,1.4801025390625
16.6899999,0.17717093229293823,9.275136947631836,-2.604891538619995,0.244140625,-2.044677734375,0.91552734375
16.7099999,0.18914192914962769,9.277531623840332,-2.5953147411346436,-2.2735595703125,-0.457763671875,-1.0528564453125
16.7299999,0.20111294090747833,9.320627212524414,-2.6192567348480225,-2.1209716796875,0.0152587890625,-1.40380859375
16.749999900000002,0.21547815203666687,9.39245319366455,-2.652775526046753,-0.91552734375,-0.42724609375,0.3662109375
16.769999900000002,0.23702596127986908,9.466673851013184,-2.674323320388794,-0.3814697265625,-0.4730224609375,1.4190673828125
16.7899999,0.2513911724090576,9.531316757202148,-2.6671407222747803,-0.4119873046875,0.8697509765625,-0.1220703125
16.8099999,0.26575639843940735,9.579200744628906,-2.650381326675415,-1.28173828125,0.3814697265625,-0.7781982421875
16.8299999,0.27054479718208313,9.615114212036133,-2.63362193107605,0.6103515625,-0.457763671875,0.946044921875
16.8499999,0.26815059781074524,9.617507934570312,-2.63362193107605,0.8697509765625,1.03759765625,2.838134765625
16.8699999,0.26096799969673157,9.617507934570312,-2.6431987285614014,-0.5035400390625,1.9073486328125,0.762939453125
16.8899999,0.2513911724090576,9.576807022094727,-2.628833532333374,-2.01416015625,1.861572265625,0
16.9099999,0.24420857429504395,9.555258750915527,-2.604891538619995,-1.495361328125,0,1.708984375
16.929999900000002,0.23942017555236816,9.512163162231445,-2.561795711517334,1.129150390625,-1.3427734375,3.35693359375
16.9499999,0.2322375625371933,9.44991397857666,-2.559401512145996,1.129150390625,-0.946044921875,2.899169921875
16.9699999,0.22026655077934265,9.378087997436523,-2.564189910888672,-1.861572265625,1.953125,0.213623046875
16.9899999,0.21547815203666687,9.330204010009766,-2.5905263423919678,-1.40380859375,1.3580322265625,-0.8087158203125
17.0099999,0.21308395266532898,9.344569206237793,-2.5713725090026855,-1.617431640625,0.9002685546875,0.732421875
17.0299999,0.22266076505184174,9.390059471130371,-2.5785553455352783,0.5035400390625,-1.9073486328125,2.5634765625
17.0499999,0.22505496442317963,9.44991397857666,-2.564189910888672,0.457763671875,-1.129150390625,1.7242431640625
17.0699999,0.22505496442317963,9.478644371032715,-2.583343744277954,-0.8392333984375,0.5035400390625,1.4801025390625
17.089999900000002,0.21547815203666687,9.476250648498535,-2.607285737991333,1.617431640625,0.6866455078125,1.8157958984375
17.109999900000002,0.2082955539226532,9.445125579833984,-2.6168625354766846,0.518798828125,0.6866455078125,2.44140625
17.1299999,0.2106897532939911,9.418789863586426,-2.604891538619995,-1.9378662109375,0.8697509765625,0.1068115234375
17.1499999,0.22026655077934265,9.397241592407227,-2.5977089405059814,-1.7547607421875,-0.8087158203125,-0.3509521484375
17.1699999,0.23702596127986908,9.3828763961792,-2.6001031398773193,-0.244140625,-1.89208984375,1.3885498046875
17.1899999,0.2537853717803955,9.366117477416992,-2.6240451335906982,-2.0294189453125,-0.18310546875,1.9989013671875
17.2099999,0.26815059781074524,9.3828763961792,-2.6455929279327393,-2.6397705078125,2.044677734375,-1.373291015625
17.2299999,0.2801215946674347,9.3828763961792,-2.631227731704712,-0.396728515625,2.685546875,0.0152587890625
17.249999900000002,0.2944868206977844,9.370905876159668,-2.5953147411346436,1.068115234375,-0.0152587890625,2.227783203125
17.269999900000002,0.304063618183136,9.332598686218262,-2.5546131134033203,1.2054443359375,-1.220703125,1.15966796875
17.2899999,0.304063618183136,9.27034854888916,-2.5234885215759277,-3.0975341796875,1.03759765625,-2.1209716796875
17.3099999,0.29209262132644653,9.239224433898926,-2.5498247146606445,-1.2054443359375,0.5340576171875,-3.4637451171875
17.3299999,0.27054479718208313,9.251194953918457,-2.580949544906616,4.2877197265625,1.40380859375,-0.79345703125
17.3499999,0.24660277366638184,9.308655738830566,-2.631227731704712,4.33349609375,1.220703125,0.396728515625
17.3699999,0.22505496442317963,9.351752281188965,-2.698265314102173,3.8909912109375,0.8392333984375,-0.9307861328125
17.3899999,0.2082955539226532,9.38048267364502,-2.734178304672241,2.9296875,3.143310546875,-2.1209716796875
17.409999900000003,0.2106897532939911,9.406818389892578,-2.760514497756958,0.6866455078125,2.4566650390625,-2.1514892578125
17.429999900000002,0.21787235140800476,9.44991397857666,-2.738966703414917,0.244140625,1.0986328125,-0.8392333984375
17.4499999,0.2298433631658554,9.488221168518066,-2.695871114730835,0.5340576171875,1.64794921875,0.3509521484375
17.4699999,0.23942017555236816,9.516951560974121,-2.6599581241607666,2.7008056640625,1.5869140625,-0.8697509765625
17.4899999,0.24420857429504395,9.543288230895996,-2.6024973392486572,3.1890869140625,3.7689208984375,-2.532958984375
17.5099999,0.24899697303771973,9.5624418258667,-2.5737667083740234,3.326416015625,3.47900390625,-1.312255859375
17.5299999,0.2513911724090576,9.557653427124023,-2.5474305152893066,3.2958984375,2.9449462890625,0.8392333984375
17.5499999,0.2585737705230713,9.557653427124023,-2.540247917175293,2.410888671875,3.0059814453125,-0.579833984375
17.5699999,0.26096799969673157,9.545681953430176,-2.537853717803955,-2.838134765625,1.983642578125,-1.800537109375
17.589999900000002,0.26815059781074524,9.543288230895996,-2.564189910888672,-5.5084228515625,-1.6021728515625,0.4119873046875
17.609999900000002,0.26336219906806946,9.528923034667969,-2.564189910888672,-4.791259765625,-0.7781982421875,2.960205078125
17.6299999,0.24899697303771973,9.493009567260742,-2.5761611461639404,0.18310546875,1.3885498046875,1.6632080078125
17.6499999,0.2322375625371933,9.406818389892578,-2.5737667083740234,2.2735595703125,1.2969970703125,-0.7781982421875
17.6699999,0.22266076505184174,9.332598686218262,-2.557007312774658,-0.244140625,0.3509521484375,-1.9683837890625
17.6899999,0.22505496442317963,9.272743225097656,-2.5522189140319824,0.4425048828125,-1.0833740234375,-0.8697509765625
17.7099999,0.2346317619085312,9.248801231384277,-2.5522189140319824,1.678466796875,-1.4190673828125,-0.0152587890625
17.7299999,0.24181437492370605,9.258378028869629,-2.585737943649292,-0.1068115234375,-0.8697509765625,-1.4190673828125
17.749999900000002,0.24420857429504395,9.26795482635498,-2.612074136734009,-0.4730224609375,0.8697509765625,-2.105712890625
17.769999900000002,0.23702596127986908,9.313444137573242,-2.6575639247894287,-0.06103515625,0.18310546875,-2.0294189453125
17.7899999,0.22744916379451752,9.344569206237793,-2.669534921646118,-0.518798828125,-0.6866455078125,-0.6561279296875
17.8099999,0.2106897532939911,9.368511199951172,-2.7078421115875244,-0.1068115234375,-0.6103515625,-1.03759765625
17.8299999,0.19153612852096558,9.378087997436523,-2.7222073078155518,0.1068115234375,1.3885498046875,-2.410888671875
17.8499999,0.17477671802043915,9.404424667358398,-2.7461493015289307,0.213623046875,1.5106201171875,-2.99072265625
17.8699999,0.16759411990642548,9.445125579833984,-2.7557260990142822,1.2054443359375,0.244140625,-1.15966796875
17.8899999,0.16759411990642548,9.488221168518066,-2.760514497756958,1.0223388671875,0.1068115234375,0.30517578125
17.909999900000003,0.17956513166427612,9.533711433410645,-2.7748796939849854,-0.244140625,1.0223388671875,-1.3275146484375
17.929999900000002,0.19393034279346466,9.57201862335205,-2.760514497756958,0.396728515625,2.5634765625,-1.495361328125
17.9499999,0.2082955539226532,9.59596061706543,-2.7748796939849854,1.5411376953125,1.03759765625,0.7476806640625
17.9699999,0.21308395266532898,9.59596061706543,-2.7485435009002686,1.15966796875,1.129150390625,2.1514892578125
17.9899999,0.2106897532939911,9.555258750915527,-2.7557260990142822,0.8544921875,1.953125,0.9765625
18.0099999,0.2082955539226532,9.512163162231445,-2.7222073078155518,-0.0762939453125,3.326416015625,-1.495361328125
18.0299999,0.2106897532939911,9.476250648498535,-2.7054479122161865,0.274658203125,2.899169921875,-0.518798828125
18.0499999,0.21787235140800476,9.454702377319336,-2.655169725418091,2.7313232421875,1.861572265625,2.3651123046875
18.0699999,0.22266076505184174,9.454702377319336,-2.650381326675415,3.3416748046875,0.762939453125,1.4190673828125
18.089999900000002,0.22266076505184174,9.430760383605957,-2.6384103298187256,0.9307861328125,2.5177001953125,-0.1983642578125
18.109999900000002,0.22026655077934265,9.41400146484375,-2.6791117191314697,0.213623046875,2.0751953125,0
18.1299999,0.21787235140800476,9.406818389892578,-2.6862943172454834,0.6561279296875,1.556396484375,0.732421875
18.1499999,0.21547815203666687,9.41400146484375,-2.7030537128448486,1.068115234375,1.8157958984375,1.007080078125
18.1699999,0.21308395266532898,9.399636268615723,-2.693476915359497,1.2969970703125,1.800537109375,1.0833740234375
18.1899999,0.2106897532939911,9.399636268615723,-2.695871114730835,0.9307861328125,2.5177001953125,0.1983642578125
18.2099999,0.2106897532939911,9.402029991149902,-2.671929121017456,0.2593994140625,2.13623046875,-0.3662109375
18.2299999,0.21547815203666687,9.409213066101074,-2.674323320388794,0.2899169921875,0.6561279296875,0.640869140625
18.249999900000002,0.22266076505184174,9.433155059814453,-2.655169725418091,0.823974609375,0.701904296875,0.6561279296875
18.269999900000002,0.2346317619085312,9.435548782348633,-2.6575639247894287,-0.2899169921875,0.9918212890625,0.6866455078125
18.2899999,0.24420857429504395,9.421183586120605,-2.6599581241607666,0.6866455078125,0.640869140625,0.2288818359375
18.3099999,0.2513911724090576,9.411606788635254,-2.669534921646118,-2.0599365234375,0.48828125,-0.67138671875
18.3299999,0.24899697303771973,9.39245319366455,-2.7078421115875244,-2.227783203125,-0.8544921875,-0.2593994140625
18.3499999,0.23702596127986908,9.3828763961792,-2.7317841053009033,-0.9613037109375,1.28173828125,1.03759765625
18.3699999,0.22026655077934265,9.387664794921875,-2.7724854946136475,0.457763671875,1.46484375,-0.4425048828125
18.3899999,0.20111294090747833,9.404424667358398,-2.786850690841675,-0.0457763671875,0.4119873046875,-0.9002685546875
18.409999900000003,0.19393034279346466,9.423578262329102,-2.808398485183716,0.579833984375,0.762939453125,0.3814697265625
18.429999900000002,0.19871874153614044,9.476250648498535,-2.7964274883270264,-0.5340576171875,2.01416015625,0.152587890625
18.4499999,0.2082955539226532,9.488221168518066,-2.7724854946136475,-1.922607421875,2.5177001953125,1.3427734375
18.4699999,0.22505496442317963,9.485827445983887,-2.7437551021575928,-0.54931640625,0.2288818359375,1.03759765625
18.4899999,0.24181437492370605,9.478644371032715,-2.676717519760132,-0.67138671875,1.6326904296875,-0.5340576171875
18.5099999,0.2585737705230713,9.466673851013184,-2.6455929279327393,-0.457763671875,1.4190673828125,-0.8087158203125
18.5299999,0.2753331959247589,9.493009567260742,-2.628833532333374,-0.5645751953125,1.6632080078125,0.1983642578125
18.5499999,0.29209262132644653,9.560047149658203,-2.63362193107605,-1.5869140625,2.4566650390625,0.42724609375
18.5699999,0.31124621629714966,9.615114212036133,-2.6671407222747803,-0.6866455078125,2.6397705078125,1.9989013671875
18.589999900000002,0.33518823981285095,9.684545516967773,-2.6886885166168213,-4.6234130859375,3.3416748046875,1.373291015625
18.609999900000002,0.3758896589279175,9.77791976928711,-2.719813108444214,-7.2021484375,2.9754638671875,-0.3509521484375
18.6299999,0.4381389021873474,9.876082420349121,-2.7700912952423096,-6.7138671875,4.486083984375,1.220703125
18.6499999,0.5267243981361389,10.105925559997559,-2.7916390895843506,-8.5296630859375,7.4920654296875,0.54931640625
18.6699999,0.6416460275650024,10.400412559509277,-2.851494312286377,-11.53564453125,7.0037841796875,0.7781982421875
18.6899999,0.7661445140838623,10.845733642578125,-2.8802247047424316,-12.5274658203125,7.8277587890625,2.0904541015625
18.7099999,0.9026140570640564,11.398794174194336,-2.9281086921691895,-5.67626953125,7.1258544921875,4.0435791015625
18.7299999,1.0749965906143188,12.016498565673828,-3.064578056335449,3.8604736328125,3.84521484375,7.232666015625
18.749999900000002,1.2425906658172607,12.72757625579834,-3.2178070545196533,-0.213623046875,10.650634765625,7.8277587890625
18.769999900000002,1.434126853942871,13.500903129577637,-3.3901896476745605,-16.3116455078125,18.341064453125,14.617919921875
18.7899999,1.6160861253738403,14.393940925598145,-3.4763808250427246,-24.4598388671875,18.4478759765625,27.8778076171875
18.8099999,1.7477672100067139,15.40668773651123,-3.426102638244629,-25.6805419921875,17.4560546875,37.445068359375
18.8299999,1.8315643072128296,16.251840591430664,-3.3854012489318848,-7.904052734375,10.101318359375,61.279296875
18.8499999,1.7980455160140991,16.972496032714844,-3.3231520652770996,-12.4969482421875,14.3890380859375,76.5228271484375
18.8699999,1.644816517829895,17.343597412109375,-3.3854012489318848,-31.8450927734375,23.3154296875,89.1876220703125
18.8899999,1.400607943534851,17.422605514526367,-3.49314022064209,-30.6243896484375,25.482177734375,108.489990234375
18.909999900000003,1.0845733880996704,17.283742904663086,-3.5434184074401855,-26.0162353515625,29.388427734375,127.8228759765625
18.929999900000002,0.7661445140838623,16.83363151550293,-3.6296098232269287,-28.74755859375,28.7628173828125,146.54541015625
18.9499999,0.47644615173339844,16.20635223388672,-3.579331636428833,-21.9879150390625,32.6995849609375,157.806396484375
18.9699999,0.2059013396501541,15.327679634094238,-3.485957622528076,-15.9912109375,38.3148193359375,169.2047119140625
18.9899999,-0.016759412363171577,14.238317489624023,-3.3063924312591553,-8.636474609375,33.966064453125,187.2711181640625
19.0099999,-0.2059013396501541,13.029245376586914,-3.1052796840667725,3.9215087890625,32.40966796875,195.526123046875
19.0299999,-0.29209262132644653,11.769895553588867,-2.7102363109588623,18.6614990234375,35.7513427734375,206.0699462890625
19.0499999,-0.28730419278144836,10.3549222946167,-2.367865562438965,32.867431640625,30.5328369140625,228.8055419921875
19.0699999,-0.19632454216480255,8.777143478393555,-1.9943699836730957,32.989501953125,26.580810546875,243.4844970703125
19.089999900000002,0.10534487664699554,7.0557122230529785,-1.8267759084701538,28.0609130859375,31.219482421875,236.38916015625
19.109999900000002,0.6177040338516235,5.846640586853027,-1.7094600200653076,20.3704833984375,46.38671875,209.4268798828125
19.1299999,1.2617442607879639,4.963180065155029,-1.5705963373184204,26.214599609375,49.1790771484375,225.5859375
19.1499999,1.9536685943603516,4.395754337310791,-1.3335703611373901,45.7916259765625,24.993896484375,259.6588134765625
19.1699999,2.6144683361053467,3.708618402481079,-1.039083480834961,64.75830078125,10.9710693359375,240.72265625
19.1899999,3.1316158771514893,2.5761611461639404,-0.7613561153411865,58.6700439453125,22.3846435546875,197.418212890625
19.2099999,3.7014358043670654,1.4508862495422363,-0.7948749661445618,43.0755615234375,24.322509765625,176.544189453125
19.2299999,4.220977783203125,0.545877993106842,-0.6416460275650024,33.9202880859375,36.0870361328125,177.5970458984375
19.249999900000002,4.675876140594482,-0.19632454216480255,-0.6057330369949341,38.604736328125,23.4527587890625,191.0247802734375
19.269999900000002,4.982333660125732,-1.0606313943862915,-0.45010992884635925,37.7349853515625,13.85498046875,161.8194580078125
19.2899999,5.161899089813232,-2.3032219409942627,-0.33039984107017517,30.242919921875,17.5628662109375,115.3564453125
19.3099999,5.310339450836182,-3.6296098232269287,-0.24181437492370605,13.3209228515625,29.4647216796875,74.8443603515625
19.3299999,5.4875102043151855,-4.618414878845215,-0.07661445438861847,3.875732421875,32.71484375,46.142578125
19.3499999,5.726930618286133,-5.202600479125977,0.17477671802043915,10.528564453125,28.900146484375,32.28759765625
19.3699999,6.011840343475342,-5.310339450836182,0.45010992884635925,5.43212890625,27.9083251953125,12.0849609375
19.3899999,6.337451934814453,-5.0685248374938965,0.7972691655158997,-20.843505859375,34.912109375,-10.040283203125
19.409999900000003,6.734889507293701,-4.613626480102539,1.0965443849563599,-33.2183837890625,31.158447265625,-17.608642578125
19.429999900000002,7.180211067199707,-3.8067808151245117,1.3503297567367554,-22.613525390625,12.3138427734375,-22.2930908203125
19.4499999,7.6782050132751465,-2.956839084625244,1.5059528350830078,-13.275146484375,4.5928955078125,-18.310546875
19.4699999,8.161833763122559,-2.0638017654418945,1.4748282432556152,-13.885498046875,5.4779052734375,-16.693115234375
19.4899999,8.611943244934082,-1.400607943534851,1.2473790645599365,-17.5018310546875,6.5460205078125,-18.218994140625
19.5099999,8.980650901794434,-0.9145850539207458,0.9481038451194763,-18.524169921875,4.302978515625,-22.2625732421875
19.5299999,9.282320022583008,-0.5961562395095825,0.569819986820221,-17.2882080078125,0.244140625,-26.3671875
19.5499999,9.514557838439941,-0.2753331959247589,0.2537853717803955,-21.6217041015625,4.5013427734375,-26.9317626953125
19.5699999,9.691728591918945,0.026336219161748886,-0.05985504388809204,-19.9432373046875,8.85009765625,-20.3399658203125
19.589999900000002,9.816226959228516,0.3447650372982025,-0.2322375625371933,-16.815185546875,8.8043212890625,-15.289306640625
19.609999900000002,9.907206535339355,0.569819986820221,-0.31842881441116333,-16.387939453125,6.2103271484375,-12.969970703125
19.6299999,9.962273597717285,0.667982280254364,-0.2801215946674347,-17.1661376953125,2.288818359375,-13.580322265625
19.6499999,9.995792388916016,0.7398083209991455,-0.24899697303771973,-18.310546875,-1.46484375,-17.5323486328125
19.6699999,10.017339706420898,0.7781155705451965,-0.26575639843940735,-11.5203857421875,-3.7841796875,-16.2200927734375
19.6899999,10.005369186401367,0.871489405632019,-0.36152446269989014,-9.2926025390625,-1.0223388671875,-11.627197265625
19.7099999,9.974244117736816,0.9193734526634216,-0.5386953949928284,-7.6751708984375,2.13623046875,-6.988525390625
19.7299999,9.923966407775879,0.9241618514060974,-0.6607996821403503,-10.4217529296875,7.6751708984375,-7.5531005859375
19.749999900000002,9.892841339111328,0.8738836050033569,-0.6847416758537292,-12.6800537109375,10.101318359375,-10.1470947265625
19.769999900000002,9.897629737854004,0.8619126081466675,-0.6009446382522583,-9.4451904296875,5.4473876953125,-10.8795166015625
19.7899999,9.93593692779541,0.9385270476341248,-0.42856210470199585,-8.3465576171875,3.204345703125,-7.598876953125
19.8099999,9.971850395202637,1.0295066833496094,-0.26815059781074524,-6.7291259765625,2.1209716796875,-2.3193359375
19.8299999,9.986215591430664,1.1037269830703735,-0.19393034279346466,-5.5999755859375,-0.30517578125,-1.28173828125
19.8499999,9.96945571899414,1.0845733880996704,-0.17238251864910126,-8.3160400390625,1.953125,-4.57763671875
19.8699999,9.926360130310059,1.0295066833496094,-0.21308395266532898,-11.6424560546875,3.997802734375,-6.195068359375
19.8899999,9.876082420349121,0.9768342971801758,-0.24181437492370605,-10.2081298828125,3.90625,-4.1656494140625
19.909999900000003,9.813833236694336,0.9169792532920837,-0.27054479718208313,-8.5601806640625,3.5858154296875,-0.7476806640625
19.929999900000002,9.751583099365234,0.8882488012313843,-0.2753331959247589,-9.979248046875,3.387451171875,-2.86865234375
19.9499999,9.68933391571045,0.8331822156906128,-0.26096799969673157,-13.092041015625,7.01904296875,-5.8746337890625
19.9699999,9.648633003234863,0.8140285611152649,-0.20350714027881622,-12.420654296875,8.3160400390625,-4.4097900390625
19.9899999,9.646238327026367,0.7469909191131592,-0.11971008777618408,-11.0015869140625,5.1727294921875,-3.082275390625
20.0099999,9.646238327026367,0.790086567401886,-0.035913024097681046,-12.847900390625,2.7313232421875,-7.2174072265625
20.0299999,9.679757118225098,0.7661445140838623,0.035913024097681046,-11.871337890625,4.364013671875,-5.9814453125
20.0499999,9.708487510681152,0.8331822156906128,0.05267243832349777,-13.12255859375,5.859375,-6.500244140625
20.0699999,9.734824180603027,0.9217676520347595,0.05267243832349777,-11.6424560546875,4.8370361328125,-5.706787109375
20.089999900000002,9.768342971801758,1.0031704902648926,0.023942016065120697,-9.5977783203125,3.0517578125,-3.72314453125
20.109999900000002,9.77791976928711,1.0821791887283325,0,-10.3759765625,4.82177734375,-3.72314453125
20.1299999,9.787496566772461,1.091755986213684,-0.040701430290937424,-9.3536376953125,3.570556640625,-3.47900390625
20.1499999,9.782708168029785,1.1013327836990356,-0.07661445438861847,-9.8419189453125,3.7689208984375,-5.462646484375
20.1699999,9.768342971801758,1.094150185585022,-0.09816227108240128,-10.1776123046875,2.86865234375,-5.6610107421875
20.1899999,9.744400978088379,1.091755986213684,-0.12928688526153564,-8.575439453125,1.9683837890625,-2.5634765625
20.2099999,9.706093788146973,1.0534487962722778,-0.15562310814857483,-6.5155029296875,1.4495849609375,0.18310546875
20.2299999,9.670180320739746,1.0007762908935547,-0.15083470940589905,-10.3607177734375,3.90625,-4.57763671875
20.249999900000002,9.63187313079834,0.9457096457481384,-0.14365209639072418,-11.23046875,2.6092529296875,-6.7291259765625
20.269999900000002,9.612719535827637,0.9097966551780701,-0.13407529890537262,-7.8125,0.8544921875,-6.5460205078125
20.2899999,9.600749015808105,0.9576807022094727,-0.10295066982507706,-6.622314453125,3.1890869140625,-5.462646484375
20.3099999,9.588777542114258,0.9959878921508789,-0.07900865375995636,-6.40869140625,4.7454833984375,-3.96728515625
20.3299999,9.57201862335205,1.0031704902648926,-0.05267243832349777,-4.608154296875,3.662109375,-3.2196044921875
20.3499999,9.564835548400879,0.9888052940368652,0.0071826050989329815,-5.6304931640625,4.8980712890625,-6.683349609375
20.3699999,9.567230224609375,0.9672574996948242,0.06703764945268631,-8.1939697265625,7.1258544921875,-8.9111328125
20.3899999,9.591172218322754,1.0558429956436157,0.181959331035614,-9.8114013671875,6.683349609375,-10.6353759765625
20.409999900000003,9.627084732055664,1.1563993692398071,0.24899697303771973,-4.45556640625,1.373291015625,-6.7596435546875
