# Time (seconds),Accel_X,Accel_Y,Accel_Z,Gyro_X,Gyro_Y,Gyro_Z
0.0099999,8.461109161376953,-3.866635799407959,4.685452938079834,104.827880859375,-118.6676025390625,40.008544921875
0.029999900000000003,8.403648376464844,-4.704606533050537,4.082113742828369,87.70751953125,-117.7978515625,7.6446533203125
0.0499999,8.403648376464844,-5.480327606201172,3.2561142444610596,56.060791015625,-94.757080078125,-34.24072265625
0.0699999,8.422801971435547,-6.150704383850098,2.382230758666992,-26.55029296875,-63.8427734375,-84.869384765625
0.08999990000000001,8.506598472595215,-6.445190906524658,1.5634137392044067,-59.814453125,-44.1131591796875,-158.538818359375
0.10999990000000001,8.446743965148926,-6.210559368133545,1.0247182846069336,-132.415771484375,-35.3240966796875,-227.72216796875
0.1299999,8.245630264282227,-5.331887245178223,0.8451532125473022,-222.2442626953125,-19.6075439453125,-239.7003173828125
0.14999990000000002,7.948749542236328,-3.8738183975219727,1.039083480834961,-243.65234375,-9.6588134765625,-209.014892578125
0.1699999,7.714118003845215,-2.164358377456665,1.6065093278884888,-217.559814453125,-22.0947265625,-168.304443359375
0.1899999,7.575253963470459,-0.48602294921875,2.3582887649536133,-148.25439453125,-50.506591796875,-129.852294921875
0.20999990000000002,7.594407558441162,0.8403648138046265,3.0573954582214355,-70.73974609375,-89.935302734375,-87.371826171875
0.2299999,7.6997528076171875,1.601720929145813,3.466804027557373,-6.5155029296875,-128.7078857421875,-33.7677001953125
0.2499999,7.862558364868164,1.7741034030914307,3.450044631958008,22.52197265625,-160.64453125,-5.035400390625
0.2699999,8.042123794555664,1.5059528350830078,2.9975404739379883,24.84130859375,-186.34033203125,-13.092041015625
0.28999990000000003,8.202534675598145,0.9816226959228516,2.233790159225464,9.765625,-209.228515625,-34.7442626953125
0.3099999,8.310274124145508,0.48602294921875,1.314416766166687,3.753662109375,-218.9788818359375,-56.09130859375
0.3299999,8.281543731689453,0.13168109953403473,0.3256114423274994,38.2843017578125,-219.573974609375,-82.4432373046875
0.34999990000000003,8.185775756835938,-0.06703764945268631,-0.6751648783683777,44.2657470703125,-235.53466796875,-111.87744140625
0.3699999,7.709329605102539,0.05027823522686958,-1.6519991159439087,-14.70947265625,-264.373779296875,-157.623291015625
0.3899999,6.936002254486084,0.6536170840263367,-2.7102363109588623,-11.9781494140625,-269.2108154296875,-183.2275390625
0.40999990000000003,5.765237808227539,1.7812861204147339,-3.9169139862060547,59.5703125,-248.077392578125,-139.70947265625
0.4299999,4.563348293304443,3.2321722507476807,-5.272032260894775,66.9403076171875,-167.6025390625,-30.2734375
0.4499999,3.7181951999664307,4.570530891418457,-6.619967937469482,17.8680419921875,-67.0318603515625,41.229248046875
0.4699999,3.4404678344726562,5.4252610206604,-7.577648162841797,-61.5234375,0.4119873046875,48.370361328125
0.4899999,3.706224203109741,5.664681434631348,-7.94635534286499,-84.8388671875,25.848388671875,28.7017822265625
0.5099999,4.240131378173828,5.310339450836182,-7.649474620819092,-68.084716796875,27.5421142578125,16.7999267578125
0.5299999,4.793191909790039,4.572925090789795,-6.897695064544678,-62.3779296875,25.8331298828125,-8.0718994140625
0.5499999,5.161899089813232,3.758896589279175,-6.009446144104004,-24.8870849609375,20.1568603515625,-68.9239501953125
0.5699999,5.322310447692871,3.1435868740081787,-5.257667064666748,67.0318603515625,10.498046875,-119.842529296875
0.5899998999999999,5.231330871582031,2.942473888397217,-4.886565685272217,176.94091796875,1.556396484375,-118.65234375
0.6099998999999999,5.114014625549316,3.205836057662964,-5.054159641265869,209.2132568359375,3.7994384765625,-75.74462890625
0.6299999,5.216965675354004,3.5458126068115234,-5.738901615142822,155.3955078125,29.4647216796875,-22.491455078125
0.6499999,5.65031623840332,3.6152446269989014,-6.524199485778809,34.72900390625,64.4989013671875,14.6484375
0.6699999,6.256049156188965,3.294421434402466,-7.113173484802246,-97.1832275390625,79.010009765625,13.24462890625
0.6899999,6.744466304779053,2.628833532333374,-7.134721279144287,-157.012939453125,77.789306640625,-5.9356689453125
0.7099999,7.0557122230529785,1.9129672050476074,-6.57926607131958,-76.751708984375,111.4501953125,-16.8609619140625
0.7299998999999999,7.204153060913086,1.357512354850769,-5.602431774139404,-30.9906005859375,99.79248046875,-37.1551513671875
0.7499998999999999,7.362170219421387,1.0462661981582642,-4.390965938568115,-3.997802734375,75.01220703125,-57.67822265625
0.7699999,7.553706169128418,0.9481038451194763,-3.1890766620635986,5.6304931640625,36.9720458984375,-76.7059326171875
0.7899999,7.702147006988525,1.094150185585022,-2.229001760482788,12.6495361328125,-13.885498046875,-104.400634765625
0.8099999,7.709329605102539,1.5753847360610962,-1.7477672100067139,31.341552734375,-45.10498046875,-126.312255859375
0.8299999,7.6111674308776855,2.365471363067627,-1.7310078144073486,31.43310546875,-51.8341064453125,-125.9765625
0.8499998999999999,7.508216381072998,3.4524388313293457,-2.0446481704711914,-12.3138427734375,-62.1337890625,-110.687255859375
0.8699998999999999,7.364564418792725,4.644751071929932,-2.499546527862549,-29.449462890625,-67.19970703125,-105.8349609375
0.8899999,7.096413612365723,5.7987565994262695,-2.978386878967285,-28.9306640625,-95.5657958984375,-120.361328125
0.9099999,6.675034523010254,6.873753070831299,-3.5673606395721436,48.03466796875,-125.5645751953125,-135.92529296875
0.9299999,6.026205539703369,7.85537576675415,-4.390965938568115,135.467529296875,-142.8985595703125,-131.9427490234375
0.9499999,5.142745018005371,8.664615631103516,-5.540182590484619,169.00634765625,-148.86474609375,-103.2257080078125
0.9699998999999999,4.0533833503723145,9.217676162719727,-7.072471618652344,184.38720703125,-132.1868896484375,-72.998046875
0.9899998999999999,3.043030261993408,9.466673851013184,-8.722076416015625,69.9462890625,-112.762451171875,-37.1551513671875
1.0099999,2.27209734916687,9.2033109664917,-9.823410034179688,-145.416259765625,-78.704833984375,-20.9503173828125
1.0299999,1.742978811264038,8.271966934204102,-9.84495735168457,-348.14453125,-84.16748046875,-86.36474609375
1.0499999,1.314416766166687,7.046135425567627,-8.487444877624512,-452.362060546875,-153.4576416015625,-251.89208984375
1.0699999,0.47405192255973816,6.555324077606201,-6.385335922241211,-205.841064453125,-176.6357421875,-424.9725341796875
1.0899999,-1.1563993692398071,6.950367450714111,-4.829104900360107,213.4246826171875,-127.6092529296875,-427.093505859375
1.1099999,-3.114856481552124,8.643068313598633,-4.1156325340271,79.40673828125,-105.7891845703125,-286.43798828125
1.1299999,-5.152322292327881,10.8720703125,-4.4292731285095215,-134.6435546875,-57.1746826171875,-180.2215576171875
1.1499999,-6.655880928039551,12.552799224853516,-5.013458251953125,-102.05078125,-24.0325927734375,-127.838134765625
1.1699998999999999,-7.436390399932861,13.21599292755127,-5.25527286529541,-66.1773681640625,-35.675048828125,-84.9151611328125
1.1899998999999999,-7.582436561584473,12.96460247039795,-5.272032260894775,-42.9229736328125,-37.567138671875,-77.3468017578125
1.2099999,-7.292738437652588,12.24155330657959,-5.185841083526611,-46.7071533203125,-18.9361572265625,-83.43505859375
1.2299999,-6.756437301635742,11.456254959106445,-5.238513469696045,-47.0733642578125,1.2969970703125,-73.211669921875
1.2499999,-6.121973514556885,11.15697956085205,-5.363011837005615,-74.462890625,8.36181640625,-59.2041015625
1.2699999,-5.635950565338135,11.226411819458008,-5.652710437774658,-53.1463623046875,29.0985107421875,-45.4864501953125
1.2899999,-5.343858242034912,11.39400577545166,-6.004657745361328,-1.220703125,72.93701171875,-22.2015380859375
1.3099999,-5.370194435119629,11.583148002624512,-6.593631267547607,-15.838623046875,79.2999267578125,-2.50244140625
1.3299999,-5.5114521980285645,11.504138946533203,-7.560888767242432,2.471923828125,72.6470947265625,24.383544921875
1.3499999,-5.556941986083984,11.202469825744629,-8.47786808013916,-35.5682373046875,111.0382080078125,51.3763427734375
1.3699999,-5.082890033721924,10.625467300415039,-8.89685344696045,-145.08056640625,152.191162109375,68.2830810546875
1.3899999,-4.290409564971924,9.943120002746582,-8.616731643676758,-136.0931396484375,169.952392578125,70.9381103515625
1.4099999,-3.227383852005005,9.251194953918457,-7.587224960327148,-101.1962890625,81.4208984375,69.8394775390625
1.4299998999999999,-2.2816741466522217,8.942343711853027,-6.356605529785156,-88.226318359375,23.223876953125,78.125
1.4499999,-1.6496049165725708,9.05247688293457,-5.272032260894775,-42.9534912109375,78.30810546875,112.0147705078125
1.4699999,-1.280897855758667,9.27034854888916,-4.580107688903809,24.3682861328125,160.0189208984375,182.0068359375
1.4899999,-0.8547300100326538,9.167398452758789,-4.000710964202881,15.13671875,132.1563720703125,223.388671875
1.5099999,-0.3064578175544739,8.813055992126465,-3.821146011352539,11.2457275390625,37.017822265625,169.4793701171875
1.5299999,0.3447650372982025,8.307879447937012,-3.8355112075805664,3.7689208984375,22.9644775390625,112.85400390625
1.5499999,1.0845733880996704,7.9415669441223145,-3.93367338180542,-107.2998046875,19.0582275390625,136.993408203125
1.5699999,1.7142484188079834,7.812280178070068,-4.151545524597168,-166.1376953125,-33.8592529296875,161.80419921875
1.5899999,2.209848165512085,7.884106159210205,-4.247313976287842,-136.8255615234375,-45.867919921875,132.965087890625
1.6099999,2.6024973392486572,8.161833763122559,-4.412513732910156,-110.3973388671875,-9.2315673828125,114.410400390625
1.6299999,3.066972494125366,8.305485725402832,-4.496310710906982,-187.7288818359375,3.662109375,174.957275390625
1.6499999,3.4811692237854004,8.109161376953125,-4.331110954284668,-324.4171142578125,-18.1427001953125,226.3946533203125
1.6699999,3.780444383621216,7.529764175415039,-3.758896589279175,-376.2664794921875,-67.9168701171875,132.4920654296875
1.6899998999999999,3.8594532012939453,6.57926607131958,-2.9281086921691895,-241.7144775390625,-66.10107421875,24.4598388671875
1.7099999,3.845088005065918,5.544970989227295,-2.0039467811584473,-127.7008056640625,-5.3863525390625,0.7781982421875
1.7299999,3.8498764038085938,4.733336925506592,-1.1013327836990356,-163.604736328125,55.35888671875,-18.7225341796875
1.7499999,3.974374771118164,4.055777549743652,-0.08619125932455063,-219.024658203125,105.6060791015625,-53.16162109375
1.7699999,4.094084739685059,3.5003228187561035,1.2066776752471924,-228.69873046875,86.8988037109375,-69.1375732421875
1.7899999,3.957615375518799,3.1723172664642334,2.3247697353363037,-136.932373046875,35.0189208984375,-109.2529296875
1.8099999,3.6296098232269287,3.043030261993408,3.00711727142334,-83.9691162109375,52.2918701171875,-188.41552734375
1.8299999,3.0550012588500977,3.3662476539611816,3.536235809326172,-196.4874267578125,88.31787109375,-279.1748046875
1.8499999,2.2361843585968018,4.000710964202881,3.627215623855591,-94.146728515625,109.222412109375,-307.5714111328125
1.8699999,1.3239935636520386,5.003881454467773,4.153939723968506,37.139892578125,95.03173828125,-272.1405029296875
1.8899999,0.12210428714752197,6.517016887664795,5.008669853210449,85.02197265625,45.95947265625,-255.2032470703125
1.9099999,-1.5873557329177856,8.968679428100586,5.2696380615234375,291.595458984375,8.331298828125,-171.875
1.9299998999999999,-2.58813214302063,10.232817649841309,4.970362663269043,429.443359375,39.1998291015625,89.691162109375
1.9499999,-3.509899616241455,11.583148002624512,3.907337188720703,275.4364013671875,54.351806640625,81.54296875
1.9699999,-3.514688014984131,11.532869338989258,2.2577321529388428,294.708251953125,71.6400146484375,15.472412109375
1.9899999,-3.1076738834381104,10.896012306213379,0.7326257228851318,317.1844482421875,67.291259765625,37.7044677734375
2.0099999,-2.5282769203186035,10.41956615447998,-0.6368576288223267,299.835205078125,68.90869140625,65.7958984375
2.0299999,-2.03507137298584,10.295066833496094,-1.946485996246338,303.3294677734375,71.10595703125,102.447509765625
2.0499999,-1.5394717454910278,10.218452453613281,-3.0765492916107178,280.181884765625,88.9739990234375,159.5916748046875
2.0699999,-1.0247182846069336,9.979032516479492,-4.10366153717041,222.7630615234375,72.6318359375,157.135009765625
2.0899999,-0.5339069962501526,9.62947940826416,-4.917690277099609,158.5693359375,43.1365966796875,63.323974609375
2.1099999,0.009576806798577309,8.959102630615234,-5.501875400543213,89.7674560546875,16.6168212890625,5.0811767578125
2.1299999,0.16998831927776337,8.56884765625,-5.966350555419922,75.13427734375,48.4161376953125,-7.171630859375
2.1499999,0.272938996553421,8.616731643676758,-6.133944988250732,1.9378662109375,89.90478515625,-7.14111328125
2.1699999,0.3663128614425659,8.889671325683594,-5.978321552276611,-38.26904296875,117.584228515625,45.6390380859375
2.1899999,0.5386953949928284,9.215282440185547,-5.4875102043151855,-77.7435302734375,85.14404296875,59.3719482421875
2.2099999,0.871489405632019,9.349357604980469,-4.876988887786865,-122.6806640625,44.7845458984375,13.3514404296875
2.2299999,1.2521674633026123,9.246406555175781,-4.606443881988525,-136.1541748046875,25.299072265625,-13.7786865234375
2.2499999,1.170764684677124,9.136273384094238,-4.855441093444824,-136.5203857421875,48.4466552734375,-3.6773681640625
2.2699999,0.8259995579719543,9.17936897277832,-5.317522048950195,-195.1141357421875,111.81640625,14.678955078125
2.2899999,0.2992752194404602,9.050082206726074,-5.339069843292236,-269.6075439453125,166.3055419921875,70.465087890625
2.3099999,-0.11971008777618408,8.669404029846191,-4.455609321594238,-273.49853515625,194.5648193359375,117.401123046875
2.3299999,-0.3208230137825012,8.032546997070312,-2.832340717315674,-180.96923828125,172.088623046875,92.6513671875
2.3499999,0.033518824726343155,7.347805023193359,-0.730231523513794,-113.372802734375,169.8760986328125,77.9571533203125
2.3699999,0.6631938815116882,6.854599475860596,1.0630255937576294,-88.2568359375,173.8739013671875,78.9794921875
2.3899999,1.4772224426269531,6.7492547035217285,2.559401512145996,-117.279052734375,136.8560791015625,55.389404296875
2.4099999,2.169146776199341,6.854599475860596,3.3638534545898438,-62.3016357421875,125.823974609375,17.425537109375
2.4299999,2.477998733520508,7.242460250854492,3.6296098232269287,-6.3018798828125,139.6026611328125,-23.834228515625
2.4499999,2.2385785579681396,7.757213592529297,3.6320040225982666,-22.705078125,190.7196044921875,-35.6597900390625
2.4699999,1.867477297782898,8.145073890686035,3.8570590019226074,-80.01708984375,216.73583984375,6.4697265625
2.4899999,1.4460978507995605,8.324639320373535,4.481945514678955,-105.04150390625,163.6810302734375,34.515380859375
2.5099999,1.3670891523361206,7.857769966125488,5.305551052093506,-165.1611328125,94.879150390625,1.1138916015625
2.5299999,1.436521053314209,7.501033782958984,6.04775333404541,-137.2833251953125,148.834228515625,-68.6187744140625
2.5499999,1.2473790645599365,7.146692276000977,6.256049156188965,-5.859375,222.3052978515625,-45.9136962890625
2.5699999,0.9409212470054626,6.861782073974609,6.265625953674316,-33.7066650390625,215.2557373046875,61.7828369140625
2.5899999,0.20350714027881622,6.904877662658691,6.169857978820801,-54.8248291015625,188.5833740234375,80.9478759765625
2.6099999,-0.42616790533065796,6.627150535583496,6.2201361656188965,-63.0645751953125,170.1812744140625,93.0938720703125
2.6299999,-0.7805097699165344,6.215347766876221,6.406883716583252,-177.0782470703125,153.3050537109375,136.962890625
2.6499999,-0.7565677165985107,5.6910176277160645,6.744466304779053,-241.485595703125,138.7939453125,194.1070556640625
2.6699999,-0.11971008777618408,4.8482584953308105,7.079654216766357,-336.5020751953125,73.8372802734375,273.2391357421875
2.6899999,0.9816226959228516,3.5865142345428467,7.6997528076171875,-500,-55.48095703125,226.0589599609375
2.7099999,1.9704279899597168,2.185906171798706,8.037335395812988,-395.1416015625,-32.562255859375,59.4635009765625
2.7299999,2.738966703414917,1.1037269830703735,8.224082946777344,-41.168212890625,121.27685546875,9.21630859375
2.7499999,2.7916390895843506,0.33039984107017517,8.597578048706055,-188.751220703125,143.6309814453125,49.346923828125
2.7699999,2.2409727573394775,0.12928688526153564,9.004592895507812,-306.182861328125,118.011474609375,107.696533203125
2.7899999,1.4389152526855469,0.14844051003456116,9.794678688049316,-214.324951171875,112.579345703125,170.9136962890625
2.8099999,0.689530074596405,0.031124621629714966,10.802638053894043,-104.91943359375,64.605712890625,222.47314453125
2.8299999,0.05746084079146385,-0.11013327538967133,11.571176528930664,-6.4544677734375,15.3350830078125,238.2659912109375
2.8499999,-0.3208230137825012,-0.3878606855869293,11.851298332214355,52.6275634765625,3.143310546875,253.021240234375
2.8699999,-0.47165772318840027,-0.9193734526634216,11.72201156616211,42.5262451171875,30.57861328125,246.368408203125
2.8899999,-0.44532153010368347,-1.5394717454910278,11.532869338989258,-61.2640380859375,39.520263671875,178.192138671875
2.9099999,-0.3711012601852417,-1.886630892753601,11.461043357849121,-78.4912109375,11.1846923828125,97.320556640625
2.9299999,-0.40462008118629456,-1.9536685943603516,11.51850414276123,20.6756591796875,-4.486083984375,103.363037109375
2.9499999,-0.3878606855869293,-1.6160861253738403,11.45146656036377,60.60791015625,-9.490966796875,147.430419921875
2.9699999,-0.5386953949928284,-1.1875240802764893,10.912771224975586,80.963134765625,-38.4521484375,168.548583984375
2.9899999,-0.4596867263317108,-0.9217676520347595,10.132261276245117,56.1981201171875,-46.3409423828125,167.4346923828125
3.0099999,-0.26575639843940735,-0.8044517636299133,9.191340446472168,33.782958984375,-7.049560546875,124.725341796875
3.0299999,-0.17238251864910126,-0.6823474764823914,9.239224433898926,60.4095458984375,-9.979248046875,98.8922119140625
3.0499999,-0.12210428714752197,-0.35913026332855225,9.437943458557129,46.7681884765625,-2.7008056640625,72.0977783203125
3.0699999,-0.14365209639072418,0.06224924325942993,9.464279174804688,3.5552978515625,18.3258056640625,52.1697998046875
3.0899999,-0.40701428055763245,0.6847416758537292,9.253589630126953,-30.8074951171875,38.6199951171875,31.890869140625
3.1099999,-0.790086567401886,1.3072341680526733,9.167398452758789,-77.5146484375,66.192626953125,39.3829345703125
3.1299999,-1.1516109704971313,1.7142484188079834,9.411606788635254,-123.10791015625,71.7010498046875,81.7108154296875
3.1499999,-1.4437036514282227,1.7741034030914307,10.002974510192871,-121.856689453125,29.78515625,91.3848876953125
3.1699999,-1.4460978507995605,1.280897855758667,10.733205795288086,-84.0606689453125,-19.10400390625,67.779541015625
3.1899999,-1.3263877630233765,0.4836287498474121,11.190498352050781,-47.088623046875,-21.6522216796875,53.4515380859375
3.2099999,-1.2473790645599365,-0.3232172429561615,11.130643844604492,-35.1715087890625,0.30517578125,51.69677734375
3.2299999,-1.1516109704971313,-1.0295066833496094,10.697293281555176,-47.7142333984375,9.7198486328125,66.46728515625
3.2499999,-1.0869675874710083,-1.5825673341751099,10.223240852355957,-55.023193359375,9.0179443359375,78.1097412109375
3.2699999,-0.993593692779541,-2.1284453868865967,9.911994934082031,-43.0450439453125,-2.3193359375,75.25634765625
3.2899999,-0.8978256583213806,-2.647987127304077,9.742006301879883,-17.4713134765625,-19.8974609375,58.8531494140625
3.3099999,-0.811634361743927,-3.1268274784088135,9.560047149658203,5.096435546875,-24.2767333984375,48.7213134765625
3.3299999000000002,-0.7613561153411865,-3.464409828186035,9.23682975769043,11.260986328125,-15.80810546875,43.0145263671875
3.3499999,-0.7374141216278076,-3.5913026332855225,8.734047889709473,7.843017578125,-0.1373291015625,28.472900390625
3.3699999,-0.730231523513794,-3.5458126068115234,8.288725852966309,-12.9241943359375,23.6053466796875,15.9149169921875
3.3899999,-0.7254431247711182,-3.426102638244629,8.090007781982422,-36.163330078125,36.5142822265625,16.6473388671875
3.4099999,-0.7422025203704834,-3.3016040325164795,8.20492935180664,-39.24560546875,25.238037109375,17.39501953125
3.4299999,-0.7589619159698486,-3.287238836288452,8.609549522399902,-25.8331298828125,15.380859375,13.3819580078125
3.4499999,-0.7709329724311829,-3.375824451446533,8.951920509338379,-1.9073486328125,10.986328125,4.669189453125
3.4699999,-0.8068459630012512,-3.471592426300049,9.071630477905273,-0.030517578125,16.448974609375,-10.3759765625
3.4899999,-0.8619126081466675,-3.4955344200134277,8.944737434387207,-29.0985107421875,29.4189453125,-19.6533203125
3.5099999,-0.9289502501487732,-3.442862033843994,8.822632789611816,-60.48583984375,31.341552734375,-16.6473388671875
3.5299999,-1.0199298858642578,-3.3423056602478027,8.774748802185059,-57.403564453125,15.7318115234375,-15.31982421875
3.5499999,-1.0654197931289673,-3.2992098331451416,9.026140213012695,-42.5262451171875,18.4326171875,-15.228271484375
3.5699999,-1.0869675874710083,-3.380612850189209,9.430760383605957,-42.4652099609375,22.796630859375,-14.70947265625
3.5899999,-1.1276689767837524,-3.622427225112915,9.797073364257812,-39.215087890625,7.9345703125,-14.83154296875
3.6099999,-1.2186486721038818,-3.9863457679748535,10.141838073730469,-35.94970703125,-1.1444091796875,-18.1121826171875
3.6299999,-1.3742717504501343,-4.400542736053467,10.378864288330078,-31.646728515625,-5.37109375,-21.0723876953125
3.6499999,-1.5610195398330688,-4.697423934936523,10.481815338134766,-15.350341796875,-10.43701171875,-26.458740234375
3.6699999,-1.7286136150360107,-4.774038314819336,10.467450141906738,-0.396728515625,-10.9405517578125,-30.4107666015625
3.6899999,-1.8171991109848022,-4.661510944366455,10.237606048583984,3.8604736328125,-14.1143798828125,-23.834228515625
3.7099999,-1.8315643072128296,-4.441244125366211,9.72285270690918,9.2010498046875,-23.3001708984375,-12.481689453125
3.7299999,-1.8148049116134644,-4.197035789489746,9.064447402954102,4.2724609375,-20.7672119140625,-7.7362060546875
3.7499999,-1.742978811264038,-4.132391929626465,8.382100105285645,-5.5389404296875,-10.986328125,1.7852783203125
3.7699999,-1.647210717201233,-4.144362926483154,7.994239330291748,-23.9410400390625,-4.058837890625,-2.6702880859375
3.7899999,-1.4652514457702637,-4.388571739196777,7.975085735321045,-25.482177734375,0.67138671875,-1.52587890625
3.8099999,-1.2234370708465576,-4.711789131164551,8.283937454223633,-7.9345703125,0.8697509765625,-4.8980712890625
3.8299999000000002,-0.9792284965515137,-5.020640850067139,8.731653213500977,3.4942626953125,5.7373046875,-16.937255859375
3.8499999,-0.8188169598579407,-5.166687488555908,9.131484985351562,8.758544921875,13.3514404296875,-21.5911865234375
3.8699999,-0.7445967197418213,-5.116408824920654,9.404424667358398,13.2598876953125,14.373779296875,-15.13671875
3.8899999,-0.6655880808830261,-4.93923807144165,9.636661529541016,9.6893310546875,14.2822265625,-7.6446533203125
3.9099999,-0.49799394607543945,-4.7189717292785645,9.828198432922363,8.758544921875,13.5498046875,-8.209228515625
3.9299999,-0.17717093229293823,-4.522646903991699,9.976638793945312,23.62060546875,10.4522705078125,-9.5367431640625
3.9499999,0.24660277366638184,-4.3861775398254395,9.93354320526123,48.9501953125,7.7362060546875,-5.4779052734375
3.9699999,0.6392518281936646,-4.2544965744018555,9.643844604492188,52.3529052734375,1.0833740234375,-4.8828125
3.9899999,0.9576807022094727,-4.201824188232422,9.160215377807617,36.07177734375,-7.26318359375,-7.38525390625
4.0099999,1.1468225717544556,-4.230554580688477,8.580819129943848,19.7601318359375,-15.2587890625,-10.8795166015625
4.029999900000001,1.2401964664459229,-4.261679172515869,8.216899871826172,6.8817138671875,-11.3372802734375,-17.4407958984375
4.0499999,1.1875240802764893,-4.323928356170654,8.17380428314209,6.3934326171875,-6.4239501953125,-22.03369140625
4.069999900000001,1.0845733880996704,-4.218583583831787,8.343792915344238,51.7578125,4.7454833984375,-15.8233642578125
4.0899999000000005,0.7972691655158997,-3.8546648025512695,8.736441612243652,55.145263671875,19.744873046875,-12.7410888671875
4.1099999,0.49559974670410156,-3.4189200401306152,9.148244857788086,36.0107421875,36.1328125,25.2227783203125
4.1299999000000005,0.033518824726343155,-2.8658595085144043,9.50737476348877,24.23095703125,14.3280029296875,41.32080078125
4.1499999,-0.35434186458587646,-2.38462495803833,9.718064308166504,47.30224609375,-12.75634765625,63.3544921875
4.1699999000000005,-0.6703764796257019,-2.2457611560821533,9.78989028930664,25.81787109375,-49.5758056640625,125.701904296875
4.1899999,-0.751779317855835,-2.3104045391082764,9.536105155944824,6.77490234375,-53.3599853515625,180.206298828125
4.209999900000001,-0.6320692300796509,-2.715024709701538,9.042900085449219,-2.349853515625,-7.8887939453125,152.2369384765625
4.2299999,-0.5219359993934631,-3.292027235031128,8.5903959274292,-71.075439453125,42.572021484375,86.029052734375
4.249999900000001,-0.42377370595932007,-3.950432777404785,8.190564155578613,-64.239501953125,48.1414794921875,75.4852294921875
4.2699999,-0.4908113479614258,-4.520252704620361,8.10437297821045,-28.3050537109375,37.6434326171875,86.8988037109375
4.289999900000001,-0.7182605266571045,-4.845864295959473,8.33182144165039,-74.4781494140625,42.1295166015625,55.3131103515625
4.3099999,-1.0031704902648926,-5.0685248374938965,8.7268648147583,-129.150390625,29.5867919921875,41.44287109375
4.329999900000001,-1.3623007535934448,-5.082890033721924,8.999804496765137,-61.3250732421875,6.89697265625,46.3104248046875
4.3499999,-1.7980455160140991,-5.073313236236572,9.035717010498047,16.6778564453125,20.2178955078125,51.239013671875
4.369999900000001,-2.1380221843719482,-5.149928092956543,8.975862503051758,-21.8353271484375,62.7899169921875,47.1038818359375
4.3899999,-2.454056739807129,-5.080495834350586,9.071630477905273,-124.420166015625,59.9822998046875,-5.889892578125
4.409999900000001,-2.7533318996429443,-4.841075897216797,9.20091724395752,-79.89501953125,8.1787109375,-28.3660888671875
4.4299999,-2.9712042808532715,-4.422090530395508,9.445125579833984,-2.6092529296875,-19.7601318359375,9.9029541015625
4.449999900000001,-3.1507694721221924,-3.7852327823638916,9.430760383605957,-1.434326171875,-11.16943359375,38.0706787109375
4.4699999,-3.181894063949585,-3.294421434402466,9.153033256530762,-22.247314453125,-13.336181640625,53.4820556640625
4.489999900000001,-3.1004912853240967,-2.9975404739379883,8.664615631103516,10.4522705078125,-29.296875,58.8226318359375
4.5099999,-2.9472622871398926,-2.9903578758239746,8.200140953063965,23.773193359375,-27.252197265625,59.234619140625
4.529999900000001,-2.82515811920166,-3.1747114658355713,7.841010570526123,-1.3427734375,-2.532958984375,42.8466796875
4.5499999,-2.765302896499634,-3.4165258407592773,7.714118003845215,0.2593994140625,16.693115234375,28.86962890625
4.569999900000001,-2.7269957065582275,-3.620033025741577,7.929595947265625,26.4739990234375,14.6026611328125,28.8848876953125
4.5899999000000005,-2.691082715988159,-3.7253777980804443,8.394071578979492,46.9207763671875,-1.617431640625,30.8990478515625
4.609999900000001,-2.537853717803955,-3.8522706031799316,8.698134422302246,57.80029296875,-17.4102783203125,27.7099609375
4.6299999000000005,-2.382230758666992,-3.8714241981506348,8.89445972442627,32.89794921875,-8.0108642578125,3.1890869140625
4.6499999,-2.190694570541382,-3.861847400665283,8.772355079650879,18.3868408203125,-0.6103515625,-11.7034912109375
4.6699999000000005,-2.0877439975738525,-3.6846764087677,8.614337921142578,18.2952880859375,-3.3721923828125,-8.697509765625
4.6899999,-2.049436569213867,-3.404554843902588,8.688557624816895,21.270751953125,4.913330078125,-7.8582763671875
4.709999900000001,-2.0374655723571777,-3.090914487838745,8.911218643188477,33.7677001953125,-0.1220703125,-14.5416259765625
4.7299999,-1.987187385559082,-2.8850131034851074,9.433155059814453,47.3785400390625,-6.4544677734375,-22.705078125
4.749999900000001,-1.8698714971542358,-2.786850690841675,10.110713958740234,53.070068359375,-10.5743408203125,-27.2216796875
4.7699999,-1.7070658206939697,-2.7246015071868896,10.812214851379395,55.5267333984375,-21.453857421875,-30.6854248046875
4.789999900000001,-1.53707754611969,-2.669534921646118,11.520898818969727,54.50439453125,-28.228759765625,-25.1007080078125
4.8099999,-1.3934253454208374,-2.6216509342193604,12.143390655517578,39.3829345703125,-30.242919921875,-13.7176513671875
4.829999900000001,-1.3479355573654175,-2.557007312774658,12.540828704833984,17.608642578125,-41.3665771484375,-10.711669921875
4.8499999,-1.3623007535934448,-2.5282769203186035,12.720393180847168,5.79833984375,-49.6063232421875,-6.3629150390625
4.869999900000001,-1.41257905960083,-2.4875755310058594,12.555193901062012,3.9520263671875,-55.938720703125,0.8697509765625
4.8899999,-1.4484920501708984,-2.403778553009033,12.090718269348145,3.23486328125,-56.33544921875,3.631591796875
4.909999900000001,-1.455674648284912,-2.2577321529388428,11.456254959106445,9.6893310546875,-48.52294921875,1.983642578125
4.9299999,-1.37906014919281,-2.185906171798706,10.934319496154785,-1.8768310546875,-39.36767578125,7.32421875
4.949999900000001,-1.2952631711959839,-2.145204782485962,10.524910926818848,12.5274658203125,-47.1343994140625,4.08935546875
4.9699999,-1.1635819673538208,-2.185906171798706,10.38844108581543,33.2489013671875,-53.924560546875,-2.227783203125
4.989999900000001,-1.0007762908935547,-2.229001760482788,10.431536674499512,36.4532470703125,-54.6722412109375,-3.0517578125
5.0099999,-0.8212111592292786,-2.229001760482788,10.465055465698242,41.50390625,-63.1256103515625,-5.0506591796875
5.029999900000001,-0.6536170840263367,-2.0925323963165283,10.362105369567871,48.004150390625,-70.0225830078125,-10.6964111328125
5.0499999,-0.4692635238170624,-1.867477297782898,10.120290756225586,35.9344482421875,-62.9730224609375,-8.4228515625
5.069999900000001,-0.2944868206977844,-1.6065093278884888,9.746794700622559,29.327392578125,-50.23193359375,1.6326904296875
5.0899999000000005,-0.12928688526153564,-1.3239935636520386,9.318233489990234,38.63525390625,-46.0052490234375,1.556396484375
5.109999900000001,0.038307227194309235,-1.0989385843276978,8.937555313110352,35.797119140625,-54.412841796875,-0.9765625
5.1299999000000005,0.19393034279346466,-0.9576807022094727,8.640673637390137,27.6336669921875,-51.9866943359375,2.0904541015625
5.1499999,0.304063618183136,-0.8858546018600464,8.396465301513672,18.1732177734375,-44.2962646484375,5.2947998046875
5.1699999000000005,0.3902548849582672,-0.8667010068893433,8.26478385925293,13.3209228515625,-36.468505859375,3.0670166015625
5.1899999,0.47884035110473633,-0.9074024558067322,8.322244644165039,14.892578125,-26.2451171875,-0.18310546875
5.209999900000001,0.5650315880775452,-0.9457096457481384,8.506598472595215,23.895263671875,-25.7110595703125,-5.37109375
5.2299999,0.6440402865409851,-0.9265560507774353,8.676587104797363,36.4227294921875,-34.2864990234375,-12.1307373046875
5.249999900000001,0.727837324142456,-0.8379706144332886,8.78193187713623,33.935546875,-29.693603515625,-9.9945068359375
5.2699999,0.7924807667732239,-0.6607996821403503,8.681375503540039,16.9677734375,-18.9056396484375,-2.716064453125
5.289999900000001,0.8643068075180054,-0.47644615173339844,8.49941635131836,-0.0152587890625,-10.162353515625,3.4027099609375
5.3099999,0.9481038451194763,-0.3734954595565796,8.401253700256348,-12.298583984375,-5.2947998046875,4.1351318359375
5.329999900000001,1.036689281463623,-0.42856210470199585,8.40843677520752,-3.9215087890625,-7.9498291015625,-3.47900390625
5.3499999,1.0630255937576294,-0.524330198764801,8.520963668823242,35.09521484375,-16.2811279296875,-8.9111328125
5.369999900000001,1.0773907899856567,-0.5578489899635315,8.724471092224121,73.30322265625,-13.1683349609375,1.5411376953125
5.3899999,1.0869675874710083,-0.47165772318840027,8.80587387084961,95.39794921875,-13.8092041015625,17.39501953125
5.409999900000001,1.139639973640442,-0.22744916379451752,8.83699893951416,75.6683349609375,-14.6636962890625,15.3045654296875
5.4299999,1.2473790645599365,0.033518824726343155,8.882488250732422,40.22216796875,-1.2054443359375,4.119873046875
5.449999900000001,1.3455413579940796,0.2753331959247589,8.954314231872559,27.801513671875,3.5247802734375,0.3204345703125
5.4699999,1.45806884765625,0.45010992884635925,9.05247688293457,32.4249267578125,2.685546875,6.4239501953125
5.489999900000001,1.5322890281677246,0.5913678407669067,9.289502143859863,8.941650390625,12.176513671875,3.8909912109375
5.5099999,1.6352397203445435,0.6320692300796509,9.5624418258667,6.866455078125,19.317626953125,-2.2735595703125
5.529999900000001,1.742978811264038,0.524330198764801,9.883264541625977,41.8701171875,5.4779052734375,-8.575439453125
5.5499999,1.8195933103561401,0.40462008118629456,10.204087257385254,80.8258056640625,-14.3280029296875,-36.773681640625
5.569999900000001,1.8602946996688843,0.3208230137825012,10.390835762023926,124.5880126953125,-27.801513671875,-74.4171142578125
5.5899999000000005,1.8195933103561401,0.5003881454467773,10.307038307189941,138.5345458984375,-37.567138671875,-100.433349609375
5.609999900000001,1.7142484188079834,0.9217676520347595,9.945513725280762,98.663330078125,-41.5802001953125,-89.4775390625
5.6299999000000005,1.50355863571167,1.4413094520568848,9.375694274902344,49.041748046875,-45.71533203125,-81.4208984375
5.6499999,1.3192051649093628,2.0422539710998535,8.803479194641113,52.276611328125,-12.908935546875,-81.939697265625
5.6699999000000005,1.2042834758758545,2.6001031398773193,8.47786808013916,78.704833984375,20.050048828125,-66.2078857421875
5.6899999,1.158793568611145,3.181894063949585,8.365341186523438,120.4071044921875,0.3509521484375,-59.814453125
5.709999900000001,1.2258312702178955,3.737348794937134,8.508993148803711,135.1470947265625,-23.8800048828125,-52.734375
5.7299999,1.3192051649093628,4.240131378173828,8.705317497253418,113.372802734375,-32.928466796875,-46.81396484375
5.749999900000001,1.436521053314209,4.6040496826171875,8.853757858276367,114.1815185546875,-34.1796875,-50.537109375
5.7699999,1.5490485429763794,4.944026470184326,8.851364135742188,159.1949462890625,-43.9453125,-59.478759765625
5.789999900000001,1.6496049165725708,5.25527286529541,8.688557624816895,177.0477294921875,-51.20849609375,-52.3681640625
5.8099999,1.6687586307525635,5.729324817657471,8.243236541748047,173.2940673828125,-53.52783203125,-61.34033203125
5.829999900000001,1.6663644313812256,6.294356346130371,7.6351094245910645,159.3017578125,-54.50439453125,-60.72998046875
5.8499999,1.6280571222305298,6.847416877746582,6.97430944442749,117.584228515625,-51.7425537109375,-32.2265625
5.869999900000001,1.5897499322891235,7.321468830108643,6.3733649253845215,108.5052490234375,-48.187255859375,-25.2838134765625
5.8899999,1.5634137392044067,7.618350028991699,5.971138954162598,108.2305908203125,-41.3818359375,-29.7393798828125
5.909999900000001,1.5442601442337036,7.8745293617248535,5.609614372253418,103.607177734375,-38.5284423828125,-32.7911376953125
5.9299999,1.5203180313110352,8.039729118347168,5.353435039520264,60.8062744140625,-33.7371826171875,-15.960693359375
5.949999900000001,1.5418659448623657,8.180987358093262,5.185841083526611,24.5361328125,-25.4364013671875,-8.087158203125
5.9699999,1.5514427423477173,8.142680168151855,5.1810526847839355,3.41796875,-23.3306884765625,-4.669189453125
5.989999900000001,1.558625340461731,7.948749542236328,5.303156852722168,-27.0843505859375,-32.562255859375,3.47900390625
6.0099999,1.5466543436050415,7.718906402587891,5.492298603057861,-64.6209716796875,-45.0439453125,21.6827392578125
6.029999900000001,1.6065093278884888,7.726089000701904,5.530605792999268,-41.68701171875,-63.2476806640625,-7.4615478515625
6.0499999,1.680729627609253,7.8745293617248535,5.5760955810546875,15.93017578125,-32.4249267578125,-35.2935791015625
6.069999900000001,1.7932571172714233,8.128314971923828,5.439626216888428,31.494140625,-27.2369384765625,-28.594970703125
6.0899999000000005,1.886630892753601,8.26478385925293,5.39174222946167,22.2930908203125,-29.6173095703125,-20.3399658203125
6.109999900000001,1.9105730056762695,8.121131896972656,5.403713226318359,8.6212158203125,-35.9954833984375,-22.064208984375
6.1299999000000005,1.8579005002975464,7.903259754180908,5.272032260894775,44.00634765625,-43.2891845703125,-40.618896484375
6.149999900000001,1.7693150043487549,7.766790390014648,5.22175407409668,90.3472900390625,-5.4779052734375,-62.103271484375
6.1699999000000005,1.6950948238372803,7.819462776184082,5.109226226806641,56.304931640625,-4.638671875,-61.9964599609375
6.1899999,1.5849615335464478,8.018181800842285,4.93923807144165,18.7530517578125,-29.0985107421875,-33.8897705078125
6.209999900000001,1.4963760375976562,8.274360656738281,4.790797710418701,14.2364501953125,-21.66748046875,-15.2130126953125
6.2299999,1.400607943534851,8.422801971435547,4.580107688903809,4.5013427734375,-5.859375,-8.9263916015625
6.249999900000001,1.3287819623947144,8.473079681396484,4.393360137939453,-1.983642578125,7.110595703125,-3.082275390625
6.2699999,1.3192051649093628,8.425195693969727,4.32871675491333,-8.0413818359375,12.8631591796875,1.220703125
6.289999900000001,1.3838485479354858,8.346187591552734,4.378994941711426,-15.7012939453125,6.6375732421875,3.5400390625
6.3099999,1.4867992401123047,8.26239013671875,4.503493309020996,-11.505126953125,3.47900390625,3.7841796875
6.329999900000001,1.599326729774475,8.236053466796875,4.613626480102539,-7.75146484375,5.79833984375,6.805419921875
6.3499999,1.6831238269805908,8.245630264282227,4.685452938079834,-11.23046875,10.345458984375,12.0391845703125
6.369999900000001,1.7477672100067139,8.274360656738281,4.750096321105957,-12.0849609375,10.9710693359375,11.9476318359375
6.3899999,1.7836803197860718,8.257601737976074,4.853046894073486,-5.6610107421875,9.8876953125,5.6304931640625
6.409999900000001,1.7860745191574097,8.214506149291992,4.932055473327637,2.6702880859375,6.439208984375,-2.105712890625
6.4299999,1.7405846118927002,8.111555099487305,5.008669853210449,2.9296875,3.60107421875,-2.349853515625
6.449999900000001,1.6735470294952393,8.044517517089844,5.027823448181152,4.5013427734375,-0.5950927734375,-5.9661865234375
6.4699999,1.601720929145813,7.994239330291748,5.056553840637207,2.1820068359375,-5.5694580078125,-8.6517333984375
6.489999900000001,1.5322890281677246,7.994239330291748,5.058948040008545,4.33349609375,-8.60595703125,-6.744384765625
6.5099999,1.5107412338256836,8.032546997070312,5.104437828063965,6.134033203125,-9.6893310546875,-6.6680908203125
6.529999900000001,1.479616641998291,8.044517517089844,5.130774021148682,8.514404296875,-8.758544921875,-6.9732666015625
6.5499999,1.4389152526855469,8.066065788269043,5.102043628692627,14.7705078125,-8.8653564453125,-7.904052734375
6.569999900000001,1.3670891523361206,8.02536392211914,5.0685248374938965,6.439208984375,-6.4697265625,-6.0577392578125
6.5899999000000005,1.292868971824646,8.020575523376465,4.99669885635376,-3.9520263671875,-4.5318603515625,-6.134033203125
6.609999900000001,1.2306196689605713,8.056488990783691,4.929661273956299,-6.0272216796875,-6.500244140625,-9.765625
6.6299999000000005,1.2018892765045166,8.097189903259277,4.9152960777282715,-4.6234130859375,-4.5623779296875,-7.415771484375
6.649999900000001,1.213860273361206,8.17380428314209,4.920084476470947,-0.9307861328125,-3.692626953125,-10.406494140625
6.6699999000000005,1.2330138683319092,8.178592681884766,4.93923807144165,-3.3416748046875,-4.638671875,-10.68115234375
6.6899999,1.2497732639312744,8.149862289428711,4.95120906829834,-5.7830810546875,-1.556396484375,-6.65283203125
6.709999900000001,1.2761094570159912,8.10437297821045,4.970362663269043,-6.6986083984375,-1.251220703125,-5.401611328125
6.7299999,1.3024457693099976,8.063671112060547,5.008669853210449,-5.9661865234375,-0.8544921875,-4.1351318359375
6.749999900000001,1.3503297567367554,8.085219383239746,5.039794445037842,-1.922607421875,-3.692626953125,-6.8817138671875
6.7699999,1.3910311460494995,8.118738174438477,5.073313236236572,-1.434326171875,-5.2642822265625,-8.23974609375
6.789999900000001,1.4197616577148438,8.183381080627441,5.04218864440918,-0.1983642578125,-3.326416015625,-8.4686279296875
6.8099999,1.4221558570861816,8.22887134552002,4.960785865783691,-1.9989013671875,-1.52587890625,-8.48388671875
6.829999900000001,1.4101848602294922,8.274360656738281,4.857835292816162,-3.0670166015625,-0.1220703125,-8.85009765625
6.8499999,1.3886369466781616,8.29590892791748,4.788403511047363,-5.2032470703125,0.79345703125,-8.2550048828125
6.869999900000001,1.37906014919281,8.336610794067383,4.771644115447998,-4.852294921875,0.8697509765625,-8.0108642578125
6.8899999,1.3742717504501343,8.382100105285645,4.807557106018066,-1.77001953125,-0.3204345703125,-8.36181640625
6.909999900000001,1.3766659498214722,8.434772491455078,4.884171485900879,-1.251220703125,0.30517578125,-6.317138671875
6.9299999,1.381454348564148,8.47547435760498,4.975151062011719,-3.1890869140625,2.0599365234375,-4.21142578125
6.949999900000001,1.3742717504501343,8.458714485168457,5.066130638122559,-4.5318603515625,2.5177001953125,-2.3193359375
6.9699999,1.357512354850769,8.38688850402832,5.142745018005371,-4.6539306640625,0.9002685546875,-2.1514892578125
6.989999900000001,1.3263877630233765,8.267178535461426,5.193023681640625,-5.7220458984375,-0.8544921875,-3.0975341796875
7.0099999,1.292868971824646,8.149862289428711,5.193023681640625,-3.265380859375,0.1678466796875,-4.5166015625
7.029999900000001,1.2689268589019775,8.039729118347168,5.178658485412598,-4.2266845703125,1.6021728515625,-2.7008056640625
7.0499999,1.2665326595306396,7.970297336578369,5.161899089813232,-3.631591796875,1.220703125,-3.021240234375
7.069999900000001,1.2689268589019775,7.905653953552246,5.142745018005371,-2.1514892578125,-2.0599365234375,-4.9896240234375
7.0899999000000005,1.2737152576446533,7.8745293617248535,5.109226226806641,-1.03759765625,-3.72314453125,-6.195068359375
7.109999900000001,1.2761094570159912,7.884106159210205,5.066130638122559,-1.5869140625,-2.197265625,-5.767822265625
7.1299999000000005,1.290474772453308,7.948749542236328,5.032611846923828,-0.946044921875,0.152587890625,-5.0201416015625
7.149999900000001,1.3239935636520386,8.039729118347168,5.0254292488098145,1.03759765625,-1.0223388671875,-4.08935546875
7.1699999000000005,1.3742717504501343,8.13789176940918,5.035006046295166,1.0223388671875,-2.44140625,-1.9073486328125
7.1899999,1.4101848602294922,8.202534675598145,5.03021764755249,1.3427734375,-2.197265625,-0.54931640625
7.209999900000001,1.4221558570861816,8.24084186553955,4.987122058868408,3.9520263671875,-1.4190673828125,-0.9307861328125
7.2299999,1.4101848602294922,8.267178535461426,4.927267074584961,5.31005859375,-2.0294189453125,-1.64794921875
7.249999900000001,1.3766659498214722,8.281543731689453,4.865017890930176,4.3792724609375,-0.6256103515625,-0.18310546875
7.2699999,1.3311761617660522,8.29590892791748,4.807557106018066,3.875732421875,1.4801025390625,-0.18310546875
7.289999900000001,1.278503656387329,8.303091049194336,4.78122091293335,1.9683837890625,3.8604736328125,0.030517578125
7.3099999,1.2330138683319092,8.315062522888184,4.786009311676025,0.030517578125,4.791259765625,0.274658203125
7.329999900000001,1.1994950771331787,8.360552787780762,4.857835292816162,1.1138916015625,6.622314453125,-0.0457763671875
7.3499999,1.1899182796478271,8.429984092712402,4.98472785949707,3.9215087890625,5.2337646484375,0.701904296875
7.369999900000001,1.1899182796478271,8.506598472595215,5.106832027435303,6.927490234375,0.8697509765625,0.8697509765625
7.3899999,1.2042834758758545,8.53532886505127,5.2265424728393555,3.84521484375,2.0294189453125,4.6539306640625
7.409999900000001,1.2114660739898682,8.487444877624512,5.298368453979492,0.457763671875,2.349853515625,7.415771484375
7.4299999,1.216254472732544,8.370129585266113,5.34625244140625,0.4730224609375,-1.89208984375,6.6375732421875
7.449999900000001,1.2042834758758545,8.219294548034668,5.384559631347656,0.9613037109375,-3.173828125,5.706787109375
7.4699999,1.170764684677124,8.078036308288574,5.39174222946167,1.5716552734375,-1.0986328125,5.31005859375
7.489999900000001,1.1228805780410767,7.965508937835693,5.374982833862305,-0.0762939453125,-0.6561279296875,4.1046142578125
7.5099999,1.0773907899856567,7.903259754180908,5.339069843292236,-2.471923828125,-2.105712890625,3.7689208984375
7.529999900000001,1.0414776802062988,7.881711959838867,5.284003257751465,-2.532958984375,-4.7454833984375,2.9449462890625
7.5499999,1.0319008827209473,7.910442352294922,5.202600479125977,-0.3814697265625,-6.378173828125,0.274658203125
7.569999900000001,1.039083480834961,7.967903137207031,5.104437828063965,-1.3427734375,-4.9285888671875,0.2593994140625
7.5899999000000005,1.0654197931289673,8.04691219329834,4.98472785949707,-3.509521484375,-5.4473876953125,0.701904296875
7.609999900000001,1.0965443849563599,8.125920295715332,4.869806289672852,-3.9520263671875,-4.8065185546875,0.732421875
7.6299999000000005,1.1228805780410767,8.192957878112793,4.759673118591309,-4.08935546875,-4.180908203125,1.2054443359375
7.649999900000001,1.1420341730117798,8.252813339233398,4.6734819412231445,-2.1514892578125,-2.7618408203125,0.396728515625
7.6699999000000005,1.1468225717544556,8.291120529174805,4.620809078216553,-2.9449462890625,-2.2735595703125,0.1220703125
7.6899999,1.1420341730117798,8.33182144165039,4.584896087646484,-3.3111572265625,-3.692626953125,0.885009765625
7.709999900000001,1.1348515748977661,8.365341186523438,4.553771495819092,-2.3345947265625,-5.157470703125,1.1138916015625
7.7299999,1.1252747774124146,8.38688850402832,4.529829502105713,-2.0904541015625,-1.4801025390625,1.4495849609375
7.749999900000001,1.1300631761550903,8.38449478149414,4.505887508392334,-3.1585693359375,2.0904541015625,1.52587890625
7.7699999,1.139639973640442,8.355764389038086,4.5154643058776855,-3.570556640625,2.655029296875,1.03759765625
7.789999900000001,1.158793568611145,8.327033042907715,4.551377296447754,-0.9307861328125,1.8768310546875,-0.2899169921875
7.8099999,1.1755530834197998,8.307879447937012,4.60165548324585,1.2054443359375,1.3885498046875,-1.03759765625
7.829999900000001,1.1899182796478271,8.312667846679688,4.649539470672607,0.8544921875,2.288818359375,-0.48828125
7.8499999,1.194706678390503,8.329427719116211,4.67827033996582,0.8392333984375,1.129150390625,0.3814697265625
7.869999900000001,1.194706678390503,8.341399192810059,4.707000732421875,0.823974609375,-0.42724609375,1.46484375
7.8899999,1.1755530834197998,8.322244644165039,4.714183330535889,1.2054443359375,-1.800537109375,1.434326171875
7.909999900000001,1.1324573755264282,8.291120529174805,4.6950297355651855,2.01416015625,-1.28173828125,0
7.9299999,1.0797849893569946,8.250418663024902,4.671087741851807,0.6561279296875,1.28173828125,-0.885009765625
7.949999900000001,1.0295066833496094,8.238448143005371,4.651933670043945,-1.46484375,2.38037109375,-0.518798828125
7.9699999,1.0007762908935547,8.250418663024902,4.668693542480469,0.091552734375,0.8697509765625,-0.6866455078125
7.989999900000001,0.993593692779541,8.274360656738281,4.704606533050537,4.547119140625,-0.5340576171875,-1.739501953125
8.0099999,0.9983820915222168,8.293514251708984,4.752490520477295,4.7149658203125,-0.518798828125,-2.105712890625
8.0299999,1.0103530883789062,8.303091049194336,4.778826713562012,2.50244140625,-0.6103515625,-1.3885498046875
8.049999900000001,1.0199298858642578,8.303091049194336,4.7836151123046875,1.739501953125,-1.28173828125,-0.1220703125
8.069999900000001,1.0295066833496094,8.288725852966309,4.76924991607666,3.4027099609375,-1.64794921875,-0.30517578125
8.0899999,1.036689281463623,8.267178535461426,4.750096321105957,3.3416748046875,-1.251220703125,-0.9002685546875
8.1099999,1.039083480834961,8.243236541748047,4.73573112487793,2.25830078125,-0.8392333984375,-0.885009765625
8.129999900000001,1.0342950820922852,8.219294548034668,4.728548526763916,1.922607421875,-1.190185546875,-1.0223388671875
8.149999900000001,1.0223240852355957,8.195352554321289,4.72376012802124,2.166748046875,-0.9613037109375,-1.251220703125
8.1699999,1.0079588890075684,8.169015884399414,4.730942726135254,0.67138671875,-0.2288818359375,-1.7852783203125
8.1899999,0.9983820915222168,8.164227485656738,4.72376012802124,0.5035400390625,-1.3885498046875,-3.3721923828125
8.2099999,1.0007762908935547,8.176198959350586,4.726154327392578,1.251220703125,-1.8157958984375,-3.4637451171875
8.229999900000001,1.01753568649292,8.20492935180664,4.72376012802124,2.0751953125,-1.4495849609375,-3.2196044921875
8.2499999,1.0414776802062988,8.219294548034668,4.726154327392578,2.3651123046875,0.244140625,-3.936767578125
8.2699999,1.072602391242981,8.214506149291992,4.738125324249268,0.274658203125,1.7242431640625,-4.9285888671875
8.2899999,1.0989385843276978,8.197746276855469,4.766855716705322,-1.3885498046875,1.373291015625,-5.157470703125
8.309999900000001,1.1324573755264282,8.22887134552002,4.795586109161377,-0.0762939453125,-1.068115234375,-5.0048828125
8.3299999,1.1516109704971313,8.288725852966309,4.800374507904053,3.173828125,-2.25830078125,-4.8980712890625
8.3499999,1.1659762859344482,8.370129585266113,4.76924991607666,3.021240234375,-0.518798828125,-4.2724609375
8.3699999,1.161187767982483,8.422801971435547,4.711789131164551,-0.06103515625,1.5106201171875,-3.5552978515625
8.389999900000001,1.1444283723831177,8.437167167663574,4.663905143737793,-0.8087158203125,0.946044921875,-3.082275390625
8.4099999,1.1180921792984009,8.42040729522705,4.6471452713012695,0.9918212890625,-0.152587890625,-3.3416748046875
8.4299999,1.0965443849563599,8.415618896484375,4.663905143737793,2.25830078125,-0.8544921875,-4.3487548828125
8.4499999,1.070208191871643,8.429984092712402,4.687847137451172,1.129150390625,-1.03759765625,-4.3792724609375
8.469999900000001,1.05105459690094,8.468291282653809,4.697423934936523,1.5716552734375,-1.77001953125,-3.2806396484375
8.4899999,1.0342950820922852,8.494627952575684,4.704606533050537,1.495361328125,-1.6632080078125,-2.2735595703125
8.5099999,1.0342950820922852,8.518569946289062,4.711789131164551,1.6632080078125,-1.6326904296875,-2.838134765625
8.5299999,1.039083480834961,8.513781547546387,4.726154327392578,2.8228759765625,-2.471923828125,-3.60107421875
8.549999900000001,1.0582371950149536,8.487444877624512,4.752490520477295,2.50244140625,-2.1209716796875,-2.38037109375
8.569999900000001,1.0797849893569946,8.446743965148926,4.786009311676025,2.38037109375,-2.716064453125,-2.2735595703125
8.5899999,1.094150185585022,8.396465301513672,4.8267107009887695,2.838134765625,-3.84521484375,-3.47900390625
8.6099999,1.1037269830703735,8.355764389038086,4.869806289672852,3.0670166015625,-4.119873046875,-3.997802734375
8.629999900000001,1.1061211824417114,8.33182144165039,4.9152960777282715,1.2664794921875,-5.06591796875,-2.2735595703125
8.649999900000001,1.1085153818130493,8.343792915344238,4.924872875213623,1.373291015625,-8.392333984375,-2.4871826171875
8.6699999,1.0965443849563599,8.339004516601562,4.900930881500244,2.838134765625,-8.544921875,-3.2958984375
8.6899999,1.0821791887283325,8.317456245422363,4.8602294921875,0.701904296875,-7.6446533203125,-4.058837890625
8.709999900000001,1.0654197931289673,8.271966934204102,4.821922302246094,-0.7171630859375,-10.7879638671875,-6.8511962890625
8.729999900000001,1.0606313943862915,8.214506149291992,4.786009311676025,2.9296875,-17.5933837890625,-11.6729736328125
8.7499999,1.0893617868423462,8.13789176940918,4.76924991607666,6.53076171875,-20.721435546875,-12.939453125
8.7699999,1.1659762859344482,8.027758598327637,4.800374507904053,9.8876953125,-30.2886962890625,-19.012451171875
8.7899999,1.2856862545013428,7.915230751037598,4.819528102874756,22.2930908203125,-59.478759765625,-38.39111328125
8.809999900000001,1.455674648284912,7.800309181213379,4.78122091293335,32.6690673828125,-72.8912353515625,-46.20361328125
8.8299999,1.678335428237915,7.750030994415283,4.656722068786621,27.64892578125,-61.0504150390625,-41.56494140625
8.8499999,1.968033790588379,7.793126583099365,4.381389141082764,25.421142578125,-49.9725341796875,-43.1060791015625
8.8699999,2.3032219409942627,7.903259754180908,4.125209331512451,34.3475341796875,-43.792724609375,-48.2177734375
8.889999900000001,2.650381326675415,8.087613105773926,3.957615375518799,24.4140625,-45.6695556640625,-38.0096435546875
8.9099999,2.9448680877685547,8.341399192810059,3.9264907836914062,7.9803466796875,-47.5921630859375,-27.1453857421875
8.9299999,3.1100680828094482,8.705317497253418,3.9815573692321777,12.5274658203125,-41.56494140625,-28.778076171875
8.9499999,3.0813376903533936,9.196128845214844,3.936067581176758,12.054443359375,-29.1900634765625,-20.56884765625
8.969999900000001,2.9041666984558105,9.801861763000488,3.7660791873931885,-10.406494140625,-18.5089111328125,1.2359619140625
8.9899999,2.604891538619995,10.448296546936035,3.507505416870117,-29.1748046875,0.6256103515625,16.937255859375
9.0099999,2.3271639347076416,10.989385604858398,3.3494882583618164,-39.0472412109375,14.7705078125,32.1807861328125
9.0299999,2.094926595687866,11.291055679321289,3.375824451446533,-27.130126953125,11.3983154296875,39.0167236328125
9.049999900000001,2.011129379272461,11.283872604370117,3.60566782951355,4.974365234375,2.8533935546875,26.092529296875
9.069999900000001,1.8962076902389526,10.934319496154785,3.9480385780334473,36.3311767578125,5.615234375,18.707275390625
9.0899999,1.778891921043396,10.323798179626465,4.261679172515869,31.73828125,-8.72802734375,18.6004638671875
9.1099999,1.5682021379470825,9.708487510681152,4.369418144226074,26.123046875,-47.30224609375,-1.5716552734375
9.129999900000001,1.2665326595306396,9.042900085449219,4.261679172515869,11.2457275390625,-59.0057373046875,-7.965087890625
9.149999900000001,0.9816226959228516,8.497021675109863,3.97916316986084,0.8392333984375,-45.5322265625,-12.02392578125
9.1699999,0.7326257228851318,8.054094314575195,3.620033025741577,30.303955078125,-32.989501953125,-35.15625
9.1899999,0.5722141861915588,7.682993412017822,3.3494882583618164,71.502685546875,-28.411865234375,-58.319091796875
9.209999900000001,0.40940847992897034,7.553706169128418,3.0621838569641113,114.1357421875,-20.4620361328125,-70.3887939453125
9.229999900000001,0.272938996553421,7.632715225219727,2.7461493015289307,100.9979248046875,-18.890380859375,-53.009033203125
9.2499999,0.10055647045373917,7.9415669441223145,2.3319525718688965,63.8885498046875,-5.06591796875,-20.69091796875
9.2699999,0.004788403399288654,8.382100105285645,1.9752163887023926,39.73388671875,10.0860595703125,5.462646484375
9.2899999,-0.07900865375995636,8.743624687194824,1.7094600200653076,34.48486328125,24.993896484375,23.0560302734375
9.309999900000001,-0.05985504388809204,9.026140213012695,1.6855180263519287,19.8516845703125,30.8990478515625,23.895263671875
9.3299999,-0.08140286058187485,9.153033256530762,1.7118542194366455,2.716064453125,24.2462158203125,22.15576171875
9.3499999,-0.08619125932455063,9.296685218811035,1.745373010635376,-6.0272216796875,6.5460205078125,2.7008056640625
9.3699999,-0.0454898327589035,9.41400146484375,1.8339585065841675,-5.5084228515625,4.2266845703125,-19.34814453125
9.389999900000001,-0.014365210197865963,9.543288230895996,1.742978811264038,17.5933837890625,14.2364501953125,-31.219482421875
9.4099999,0.07182604819536209,9.63187313079834,1.647210717201233,23.92578125,29.815673828125,-39.825439453125
9.4299999,0.1604115068912506,9.679757118225098,1.5658079385757446,18.2037353515625,50.23193359375,-33.5693359375
9.4499999,0.2777273952960968,9.840168952941895,1.6496049165725708,28.8848876953125,59.2803955078125,-28.4576416015625
9.469999900000001,0.40222588181495667,10.105925559997559,1.8291701078414917,50.0946044921875,42.327880859375,-16.4031982421875
9.4899999,0.5315127968788147,10.357316970825195,1.9943699836730957,52.154541015625,14.2974853515625,0.946044921875
9.5099999,0.6512228846549988,10.594342231750488,2.0470423698425293,36.3006591796875,21.392822265625,-1.3275146484375
9.5299999,0.7182605266571045,10.627861022949219,1.9297266006469727,26.519775390625,32.8216552734375,-2.0751953125
9.549999900000001,0.7206547260284424,10.596736907958984,1.6615760326385498,36.5447998046875,17.791748046875,2.50244140625
9.569999900000001,0.6033388376235962,10.56800651550293,1.357512354850769,41.1224365234375,8.1024169921875,4.3487548828125
9.5899999,0.3495534360408783,10.556035041809082,0.9983820915222168,24.7955322265625,13.3819580078125,7.0343017578125
9.6099999,-0.019153613597154617,10.505757331848145,0.5770025849342346,9.3231201171875,16.9219970703125,10.589599609375
9.629999900000001,-0.35434186458587646,10.462661743164062,0.2561795711517334,7.5531005859375,23.3612060546875,2.1820068359375
9.649999900000001,-0.6248866319656372,10.414777755737305,0.047884032130241394,8.819580078125,23.92578125,-2.838134765625
9.6699999,-0.7469909191131592,10.38604736328125,0.031124621629714966,8.8043212890625,20.0653076171875,3.631591796875
9.6899999,-0.7948749661445618,10.383652687072754,0.1364694982767105,16.754150390625,25.970458984375,7.99560546875
9.709999900000001,-0.8331822156906128,10.304644584655762,0.3423708379268646,15.80810546875,19.561767578125,17.3492431640625
9.729999900000001,-0.9002198576927185,10.041281700134277,0.5913678407669067,3.0364990234375,13.2904052734375,19.95849609375
9.7499999,-1.048660397529602,9.524134635925293,0.7565677165985107,-5.0048828125,15.167236328125,18.402099609375
9.7699999,-1.216254472732544,8.880094528198242,0.8571242094039917,-1.2969970703125,20.8892822265625,14.984130859375
9.7899999,-1.3551181554794312,8.17141056060791,0.9433154463768005,-20.8587646484375,17.0745849609375,10.4827880859375
9.809999900000001,-1.3934253454208374,7.546523571014404,1.0199298858642578,-47.454833984375,1.6632080078125,8.4228515625
9.8299999,-1.3048399686813354,7.137115478515625,1.113303780555725,-25.7568359375,-1.4801025390625,-4.2724609375
9.8499999,-1.1300631761550903,7.017405033111572,1.1683704853057861,15.3961181640625,5.035400390625,-18.24951171875
9.8699999,-0.933738648891449,7.1706342697143555,1.2545616626739502,18.9666748046875,14.678955078125,-23.406982421875
9.889999900000001,-0.7829039692878723,7.515398979187012,1.3670891523361206,-0.1983642578125,14.2059326171875,-20.1568603515625
9.9099999,-0.667982280254364,7.9415669441223145,1.482010841369629,4.21142578125,7.4462890625,-25.054931640625
9.9299999,-0.5123591423034668,8.365341186523438,1.601720929145813,8.6212158203125,8.0718994140625,-36.31591796875
9.9499999,-0.28969839215278625,8.760383605957031,1.6519991159439087,-8.636474609375,9.063720703125,-33.6761474609375
9.969999900000001,-0.004788403399288654,9.150638580322266,1.7190368175506592,-5.6304931640625,9.185791015625,-26.91650390625
9.9899999,0.24899697303771973,9.500192642211914,1.7860745191574097,21.54541015625,4.974365234375,-24.4293212890625
10.0099999,0.38307225704193115,9.775525093078613,1.824381709098816,25.3448486328125,-3.509521484375,-19.805908203125
10.0299999,0.36152446269989014,9.981427192687988,1.7812861204147339,14.34326171875,-3.6773681640625,-16.632080078125
10.049999900000001,0.17956513166427612,10.086771965026855,1.5969325304031372,7.5531005859375,-3.0059814453125,-10.6964111328125
10.069999900000001,-0.10295066982507706,10.110713958740234,1.3263877630233765,7.1868896484375,-3.662109375,-6.4849853515625
10.0899999,-0.4165911078453064,10.04846477508545,1.070208191871643,4.1046142578125,-3.0517578125,-7.0648193359375
10.1099999,-0.689530074596405,9.892841339111328,0.8643068075180054,-1.5411376953125,-4.45556640625,-6.683349609375
10.129999900000001,-0.8571242094039917,9.6989107131958,0.7398083209991455,-4.69970703125,-6.2103271484375,-6.7596435546875
10.149999900000001,-0.9193734526634216,9.512163162231445,0.6751648783683777,-8.026123046875,-8.087158203125,-7.2174072265625
10.1699999,-0.912190854549408,9.385271072387695,0.6871358752250671,-4.3487548828125,-6.4239501953125,-8.453369140625
10.1899999,-0.8810662031173706,9.306262016296387,0.7422025203704834,-2.7923583984375,-4.8675537109375,-7.5531005859375
10.209999900000001,-0.8427590131759644,9.287108421325684,0.7996633648872375,-1.0528564453125,-6.7901611328125,-6.6375732421875
10.229999900000001,-0.8092401623725891,9.296685218811035,0.8475474119186401,-1.007080078125,-7.9345703125,-6.9732666015625
10.2499999,-0.7852981686592102,9.315838813781738,0.9026140570640564,-5.462646484375,-5.950927734375,-7.843017578125
10.2699999,-0.7661445140838623,9.351752281188965,0.912190854549408,-2.7618408203125,-6.34765625,-9.2926025390625
10.2899999,-0.768538773059845,9.399636268615723,0.8906430602073669,-2.4871826171875,-8.7738037109375,-8.9111328125
10.309999900000001,-0.7805097699165344,9.459490776062012,0.8667010068893433,-8.880615234375,-7.659912109375,-8.23974609375
10.3299999,-0.790086567401886,9.512163162231445,0.8571242094039917,-10.223388671875,-5.645751953125,-8.7890625
10.3499999,-0.7829039692878723,9.583989143371582,0.8690952062606812,-1.8463134765625,-8.72802734375,-11.199951171875
10.3699999,-0.768538773059845,9.691728591918945,0.9217676520347595,1.861572265625,-13.5040283203125,-12.8021240234375
10.389999900000001,-0.751779317855835,9.849745750427246,0.9816226959228516,-0.8544921875,-14.0380859375,-12.664794921875
10.4099999,-0.7182605266571045,10.02452278137207,1.039083480834961,-6.34765625,-11.6424560546875,-13.9617919921875
10.4299999,-0.6320692300796509,10.199298858642578,1.1204863786697388,-7.9193115234375,-13.4735107421875,-19.6533203125
10.4499999,-0.4357447028160095,10.488997459411621,1.381454348564148,-5.0506591796875,-19.1192626953125,-27.28271484375
10.469999900000001,-0.14365209639072418,10.977415084838867,1.9321208000183105,3.4942626953125,-36.3922119140625,-32.2418212890625
10.4899999,0.1867477297782898,11.87763500213623,2.7126305103302,26.1688232421875,-62.957763671875,-34.66796875
10.5099999,0.4572925269603729,13.316550254821777,3.5865142345428467,60.4400634765625,-83.7249755859375,-35.8123779296875
10.5299999,0.6272808313369751,15.128960609436035,3.9695863723754883,63.5833740234375,-117.9351806640625,-0.8697509765625
10.549999900000001,0.6727706789970398,17.07065773010254,4.110844135284424,37.689208984375,-140.655517578125,46.356201171875
10.569999900000001,0.47884035110473633,18.571823120117188,3.4739866256713867,135.162353515625,-149.3988037109375,73.42529296875
10.5899999,0.13407529890537262,19.654001235961914,1.900996208190918,190.9027099609375,-172.6226806640625,104.827880859375
10.6099999,-0.6105214357376099,20.568586349487305,0.019153613597154617,16.7083740234375,-169.525146484375,161.3616943359375
10.629999900000001,-2.011129379272461,20.894197463989258,-2.3726539611816406,-86.6241455078125,-146.8963623046875,258.5296630859375
10.649999900000001,-3.9432501792907715,20.523096084594727,-5.169081687927246,-36.1175537109375,-141.6778564453125,333.6639404296875
10.6699999,-6.2392897605896,19.19431495666504,-7.587224960327148,-26.153564453125,-87.127685546875,335.8154296875
10.6899999,-8.372523307800293,16.670825958251953,-9.524134635925293,109.039306640625,32.8521728515625,302.642822265625
10.709999900000001,-10.002974510192871,13.146561622619629,-10.924742698669434,274.139404296875,114.044189453125,296.2188720703125
10.729999900000001,-11.161767959594727,9.059659004211426,-10.848128318786621,256.4697265625,181.8389892578125,273.5137939453125
10.7499999,-11.834539413452148,3.734954595565796,-9.639056205749512,190.8416748046875,255.0048828125,212.615966796875
10.7699999,-12.255918502807617,-2.7102363109588623,-7.364564418792725,177.0782470703125,288.6810302734375,102.142333984375
10.7899999,-12.437877655029297,-9.157821655273438,-4.592078685760498,98.0224609375,295.95947265625,-32.6690673828125
10.809999900000001,-12.469002723693848,-14.441824913024902,-1.9967641830444336,125.1373291015625,318.0999755859375,-164.459228515625
10.8299999,-12.75870132446289,-17.647661209106445,-0.1867477297782898,254.7760009765625,340.1641845703125,-265.838623046875
10.8499999,-13.886369705200195,-17.171215057373047,2.169146776199341,272.0947265625,413.8946533203125,-409.6221923828125
10.8699999,-15.037981033325195,-12.409147262573242,6.064512729644775,224.4110107421875,432.952880859375,-500
10.889999900000001,-16.0291805267334,-5.233725070953369,11.224017143249512,111.0076904296875,242.7825927734375,-500
10.9099999,-16.266206741333008,4.599261283874512,17.037139892578125,-91.033935546875,26.6876220703125,-500
10.9299999,-15.251065254211426,14.836868286132812,20.578163146972656,-63.323974609375,-48.553466796875,-409.48486328125
10.9499999,-13.443442344665527,23.297977447509766,20.36029052734375,236.7706298828125,-93.3990478515625,-263.36669921875
10.969999900000001,-11.353304862976074,30.547618865966797,17.757793426513672,62.3321533203125,-144.8211669921875,-162.353515625
10.9899999,-9.330204010009766,35.146881103515625,14.899117469787598,-343.658447265625,-243.83544921875,-93.5516357421875
11.0099999,-7.948749542236328,37.1364631652832,12.51209831237793,-341.1712646484375,-373.260498046875,3.6163330078125
11.0299999,-7.285555839538574,37.074214935302734,10.857705116271973,-228.69873046875,-446.624755859375,71.3348388671875
11.049999900000001,-7.105990409851074,35.10857391357422,8.65982723236084,-233.4136962890625,-438.7664794921875,117.7978515625
11.069999900000001,-7.122750282287598,31.878795623779297,4.9799394607543945,-144.500732421875,-390.4571533203125,142.333984375
11.0899999,-7.015010833740234,27.681760787963867,0.7374141216278076,23.13232421875,-290.0848388671875,169.9981689453125
11.1099999,-6.761225700378418,22.582111358642578,-2.9472622871398926,102.6153564453125,-173.248291015625,196.685791015625
11.129999900000001,-6.378153324127197,16.881515502929688,-5.3797712326049805,41.1224365234375,-128.875732421875,213.92822265625
11.149999900000001,-5.851428985595703,11.30302619934082,-6.521805286407471,4.5318603515625,-108.4136962890625,204.925537109375
11.1699999,-5.178658485412598,6.576871871948242,-6.677428722381592,41.0614013671875,-72.81494140625,171.417236328125
11.1899999,-4.378994941711426,2.9759926795959473,-6.414066314697266,55.5267333984375,-22.7508544921875,140.5487060546875
11.209999900000001,-3.4979286193847656,0.730231523513794,-6.033388137817383,68.5272216796875,57.220458984375,105.8349609375
11.229999900000001,-2.604891538619995,-0.3256114423274994,-5.477933406829834,73.883056640625,142.9290771484375,63.079833984375
11.2499999,-1.7549498081207275,-0.3280056416988373,-4.371812343597412,45.9136962890625,194.0765380859375,30.731201171875
11.2699999,-0.8882488012313843,0.4213795065879822,-1.8411411046981812,-2.8533935546875,216.9189453125,-0.3509521484375
11.2899999,0.026336219161748886,1.4508862495422363,2.073378562927246,5.5084228515625,191.314697265625,-36.956787109375
11.309999900000001,1.015141487121582,2.7916390895843506,6.27280855178833,64.7125244140625,99.1363525390625,-57.281494140625
11.3299999,1.946485996246338,3.9863457679748535,9.801861763000488,-11.1846923828125,19.744873046875,-20.751953125
11.3499999,2.6599581241607666,5.315127849578857,11.142614364624023,-45.95947265625,-4.0740966796875,-1.8768310546875
11.3699999,3.0142998695373535,6.670246124267578,10.27591323852539,19.6990966796875,16.265869140625,-17.303466796875
11.389999900000001,3.026270866394043,7.910442352294922,8.310274124145508,16.90673828125,45.562744140625,-18.9971923828125
11.4099999,2.832340717315674,8.848969459533691,6.378153324127197,-27.7099609375,49.6978759765625,-5.126953125
11.4299999,2.5498247146606445,9.344569206237793,5.173870086669922,-33.294677734375,28.74755859375,5.8441162109375
11.4499999,2.2864625453948975,9.411606788635254,4.797980308532715,-24.6124267578125,7.0953369140625,5.157470703125
11.469999900000001,2.075772762298584,9.148244857788086,4.78122091293335,-18.890380859375,-1.8463134765625,2.8228759765625
11.4899999,1.9345149993896484,8.762778282165527,4.778826713562012,-22.8424072265625,3.875732421875,7.354736328125
11.5099999,1.8722656965255737,8.413225173950195,4.692635536193848,-24.59716796875,13.18359375,11.810302734375
11.5299999,1.8698714971542358,8.142680168151855,4.5825018882751465,-12.176513671875,10.6353759765625,12.542724609375
11.549999900000001,1.9105730056762695,7.951143741607666,4.565742492675781,-8.697509765625,1.861572265625,6.3323974609375
11.569999900000001,1.968033790588379,7.829039573669434,4.599261283874512,-14.7552490234375,-4.3182373046875,3.265380859375
11.5899999,2.0470423698425293,7.819462776184082,4.759673118591309,-24.3377685546875,-1.52587890625,9.063720703125
11.6099999,2.099714994430542,7.86734676361084,4.95120906829834,-3.0517578125,-1.6021728515625,8.5296630859375
11.629999900000001,2.1332337856292725,7.982268333435059,5.142745018005371,38.9404296875,-5.615234375,1.129150390625
11.649999900000001,2.1332337856292725,8.109161376953125,5.2480902671813965,44.8150634765625,-3.4332275390625,-2.4566650390625
11.6699999,2.1068975925445557,8.233659744262695,5.1810526847839355,25.5584716796875,-1.1444091796875,1.6326904296875
11.6899999,2.078166961669922,8.317456245422363,4.991910457611084,12.7410888671875,0.3814697265625,3.9520263671875
11.709999900000001,2.051830768585205,8.379706382751465,4.7836151123046875,14.83154296875,-0.7476806640625,0.48828125
11.729999900000001,2.0254945755004883,8.413225173950195,4.572925090789795,14.434814453125,-3.997802734375,0.335693359375
11.7499999,2.0039467811584473,8.429984092712402,4.434061527252197,-3.082275390625,-2.0599365234375,6.317138671875
11.7699999,1.9991583824157715,8.42040729522705,4.3191399574279785,-9.6282958984375,2.1514892578125,7.843017578125
11.7899999,2.027888774871826,8.38688850402832,4.220977783203125,-0.732421875,1.9378662109375,3.692626953125
11.809999900000001,2.0853497982025146,8.31985092163086,4.20421838760376,-3.082275390625,4.913330078125,1.922607421875
11.8299999,2.1499931812286377,8.248024940490723,4.240131378173828,-22.1405029296875,3.1585693359375,4.33349609375
11.8499999,2.212242364883423,8.212111473083496,4.364629745483398,-34.7442626953125,0.1983642578125,4.3792724609375
11.8699999,2.255337953567505,8.185775756835938,4.529829502105713,-25.6195068359375,2.2735595703125,4.6844482421875
11.889999900000001,2.2816741466522217,8.14028549194336,4.72376012802124,-20.69091796875,3.4942626953125,5.8441162109375
11.9099999,2.3032219409942627,8.078036308288574,4.908113479614258,-19.256591796875,2.6092529296875,3.448486328125
11.9299999,2.322375535964966,8.001421928405762,5.066130638122559,-18.2342529296875,-0.823974609375,1.434326171875
11.9499999,2.3319525718688965,7.94635534286499,5.20978307723999,-16.8304443359375,-3.5552978515625,0.335693359375
11.969999900000001,2.3319525718688965,7.922413349151611,5.331887245178223,-5.6610107421875,-2.6702880859375,0.213623046875
11.9899999,2.3247697353363037,7.982268333435059,5.351040840148926,-0.7171630859375,-3.4942626953125,0.4425048828125
12.0099999,2.3080103397369385,8.073247909545898,5.355829238891602,-18.24951171875,-2.25830078125,3.4027099609375
12.0299999,2.300827741622925,8.145073890686035,5.339069843292236,-19.95849609375,0.8697509765625,4.730224609375
12.049999900000001,2.296039342880249,8.178592681884766,5.298368453979492,-6.8817138671875,-1.46484375,1.1444091796875
12.069999900000001,2.2864625453948975,8.121131896972656,5.276820659637451,-9.0789794921875,-3.5858154296875,-0.0152587890625
12.0899999,2.2864625453948975,8.034940719604492,5.276820659637451,-22.430419921875,0.0457763671875,1.2664794921875
12.1099999,2.2864625453948975,7.90086555480957,5.341464042663574,-23.3917236328125,3.4027099609375,4.425048828125
12.129999900000001,2.300827741622925,7.778761386871338,5.4444146156311035,-11.8865966796875,-2.1209716796875,2.8228759765625
12.149999900000001,2.3104045391082764,7.654263019561768,5.556941986083984,-9.9945068359375,-6.8359375,0.213623046875
12.1699999,2.3080103397369385,7.570465564727783,5.600037574768066,-26.4129638671875,-4.608154296875,1.1138916015625
12.1899999,2.3056161403656006,7.524975776672363,5.609614372253418,-39.642333984375,1.8768310546875,3.875732421875
12.209999900000001,2.298433542251587,7.501033782958984,5.609614372253418,-27.83203125,3.0059814453125,3.4332275390625
12.229999900000001,2.300827741622925,7.510610580444336,5.643133640289307,-11.6424560546875,-2.3040771484375,-1.4495849609375
12.2499999,2.298433542251587,7.50582218170166,5.702988624572754,-20.355224609375,-4.0283203125,-2.9449462890625
12.2699999,2.2816741466522217,7.556100368499756,5.714959621429443,-31.463623046875,4.0435791015625,-2.38037109375
12.289999900000002,2.2361843585968018,7.632715225219727,5.724536418914795,-26.3214111328125,13.8397216796875,-0.18310546875
12.309999900000001,2.1787235736846924,7.735665798187256,5.774814605712891,-29.6630859375,11.1083984375,4.8065185546875
12.3299999,2.1092917919158936,7.795520782470703,5.918466567993164,-38.6505126953125,8.3465576171875,7.50732421875
12.3499999,2.032677173614502,7.8098859786987305,6.078877925872803,-38.543701171875,12.4664306640625,9.70458984375
12.3699999,1.920149803161621,7.7883381843566895,6.27280855178833,-17.76123046875,30.82275390625,9.3841552734375
12.389999900000001,1.766920804977417,7.762001991271973,6.387730121612549,-4.364013671875,42.05322265625,10.467529296875
12.4099999,1.5322890281677246,7.6997528076171875,6.5050458908081055,-30.9295654296875,47.2564697265625,19.1650390625
12.4299999,1.2713210582733154,7.661445617675781,6.746860504150391,-27.130126953125,59.9517822265625,13.48876953125
12.4499999,0.9576807022094727,7.558494567871094,6.933608055114746,-20.050048828125,33.9813232421875,11.5509033203125
12.469999900000001,0.6823474764823914,7.3693528175354,7.139509677886963,-43.3349609375,17.88330078125,26.5045166015625
12.4899999,0.4836287498474121,7.0988078117370605,7.240066051483154,-83.8623046875,17.63916015625,31.8145751953125
12.5099999,0.38307225704193115,6.761225700378418,7.163451671600342,-90.972900390625,14.5416259765625,34.698486328125
12.5299999,0.40940847992897034,6.339846134185791,7.129932880401611,-95.8709716796875,18.8751220703125,38.8336181640625
12.549999900000001,0.5626373887062073,5.95677375793457,7.295132637023926,-96.9085693359375,26.2451171875,41.0614013671875
12.569999900000001,0.8044517636299133,5.5545477867126465,7.694964408874512,-86.883544921875,16.3726806640625,39.2303466796875
12.5899999,1.0845733880996704,5.12119722366333,8.24084186553955,-100.5706787109375,-5.3253173828125,42.2821044921875
12.6099999,1.3742717504501343,4.642356872558594,8.772355079650879,-103.363037109375,-14.0380859375,45.6695556640625
12.629999900000001,1.6160861253738403,4.177882194519043,9.100360870361328,-98.2818603515625,-13.85498046875,42.6025390625
12.649999900000001,1.8195933103561401,3.799597978591919,9.193734169006348,-106.781005859375,-19.9127197265625,37.078857421875
12.6699999,2.0254945755004883,3.6391866207122803,9.042900085449219,-130.8746337890625,-24.2767333984375,38.2232666015625
12.6899999,2.250549554824829,3.6296098232269287,8.774748802185059,-146.9573974609375,-15.533447265625,47.332763671875
12.709999900000001,2.4827871322631836,3.5434184074401855,8.561665534973145,-138.427734375,5.0811767578125,58.9141845703125
12.729999900000001,2.7078421115875244,3.2345664501190186,8.523358345031738,-153.1524658203125,14.7705078125,57.342529296875
12.7499999,2.9065608978271484,2.7964274883270264,8.755595207214355,-159.72900390625,13.18359375,43.487548828125
12.7699999,3.0597896575927734,2.205059766769409,9.2033109664917,-144.10400390625,9.613037109375,47.5311279296875
12.789999900000002,3.1890766620635986,1.644816517829895,9.68933391571045,-115.142822265625,6.28662109375,54.351806640625
12.809999900000001,3.2632968425750732,1.015141487121582,9.962273597717285,-77.7130126953125,2.1514892578125,37.9791259765625
12.8299999,3.2776620388031006,0.43095630407333374,9.979032516479492,-46.20361328125,12.4664306640625,15.7012939453125
12.8499999,3.201047658920288,-0.090979665517807,9.725247383117676,-55.17578125,27.9541015625,15.93017578125
12.8699999,3.0597896575927734,-0.4620809257030487,9.459490776062012,-79.58984375,34.4696044921875,35.1104736328125
12.889999900000001,2.8778305053710938,-0.6703764796257019,9.193734169006348,-63.262939453125,31.1126708984375,44.5404052734375
12.9099999,2.6623523235321045,-0.849941611289978,9.01895809173584,-55.633544921875,28.564453125,40.924072265625
12.9299999,2.4588451385498047,-1.1468225717544556,9.040505409240723,-90.850830078125,41.2750244140625,42.6483154296875
12.9499999,2.231395959854126,-1.4724340438842773,9.093177795410156,-84.381103515625,37.017822265625,35.5224609375
12.969999900000001,2.006340980529785,-1.8315643072128296,9.255983352661133,-58.319091796875,14.5111083984375,23.3001708984375
12.9899999,1.7573440074920654,-2.185906171798706,9.536105155944824,-41.5191650390625,6.34765625,16.632080078125
13.0099999,1.525106430053711,-2.47560453414917,9.785101890563965,-55.2825927734375,7.0037841796875,11.0626220703125
13.0299999,1.3311761617660522,-2.6862943172454834,9.928754806518555,-88.470458984375,2.288818359375,0.213623046875
13.049999900000001,1.1994950771331787,-2.8562827110290527,9.983820915222168,-74.8748779296875,1.2969970703125,-6.6375732421875
13.069999900000001,1.0821791887283325,-2.9927520751953125,9.84495735168457,-30.3802490234375,-0.6561279296875,-12.237548828125
13.0899999,1.0749965906143188,-3.0550012588500977,9.691728591918945,-25.421142578125,3.7384033203125,-9.124755859375
13.1099999,1.1516109704971313,-2.999934673309326,9.342175483703613,-16.2811279296875,-1.2969970703125,-9.4757080078125
13.129999900000001,1.2689268589019775,-2.9544448852539062,9.097966194152832,-22.88818359375,-4.94384765625,-15.5792236328125
13.149999900000001,1.455674648284912,-2.913743495941162,8.966285705566406,-37.1551513671875,9.1400146484375,-20.99609375
13.1699999,1.5753847360610962,-2.9664158821105957,8.78432559967041,-52.18505859375,1.9989013671875,-32.9437255859375
13.1899999,1.659181833267212,-3.0382418632507324,8.705317497253418,-89.8284912109375,7.7362060546875,-30.45654296875
13.209999900000001,1.7310078144073486,-3.184288263320923,8.753201484680176,-151.0772705078125,36.56005859375,-13.48876953125
13.229999900000001,1.7573440074920654,-3.4332852363586426,8.791508674621582,-151.641845703125,41.3970947265625,-8.0718994140625
13.2499999,1.802833914756775,-3.7205893993377686,8.786720275878906,-149.261474609375,29.6630859375,-25.5126953125
13.2699999,1.8339585065841675,-4.094084739685059,8.889671325683594,-236.1297607421875,47.42431640625,-19.34814453125
13.289999900000002,1.8794482946395874,-4.5825018882751465,8.827422142028809,-259.979248046875,72.8912353515625,2.1820068359375
13.309999900000001,1.9273324012756348,-5.058948040008545,8.671798706054688,-158.4930419921875,60.1654052734375,-13.458251953125
13.3299999,1.9752163887023926,-5.530605792999268,8.463502883911133,-100.860595703125,49.530029296875,-47.66845703125
13.3499999,2.0207061767578125,-6.1315507888793945,8.324639320373535,-140.1519775390625,63.04931640625,-38.543701171875
13.3699999,2.0039467811584473,-6.603208065032959,8.123526573181152,-137.0086669921875,60.1348876953125,-35.888671875
13.389999900000001,1.9991583824157715,-7.204153060913086,7.955932140350342,-93.170166015625,31.8145751953125,-48.7060546875
13.4099999,2.0159177780151367,-7.630321025848389,7.6111674308776855,-63.9495849609375,18.3563232421875,-50.537109375
13.4299999,2.0374655723571777,-7.951143741607666,7.096413612365723,-100.8453369140625,23.9410400390625,-29.632568359375
13.4499999,2.123656988143921,-8.121131896972656,6.5696892738342285,-114.6697998046875,41.961669921875,-19.3328857421875
13.469999900000001,2.231395959854126,-8.236053466796875,6.191405773162842,-62.6068115234375,28.86962890625,-25.4974365234375
13.4899999,2.274491548538208,-8.216899871826172,5.825092792510986,-9.1705322265625,-8.6517333984375,-44.12841796875
13.5099999,2.3271639347076416,-8.317456245422363,5.702988624572754,-54.74853515625,14.556884765625,-37.1246337890625
13.5299999,2.3535003662109375,-8.355764389038086,5.566518783569336,-92.46826171875,37.017822265625,-24.5513916015625
13.549999900000001,2.3989901542663574,-8.382100105285645,5.506663799285889,-43.27392578125,12.7105712890625,-40.8782958984375
13.569999900000001,2.5043349266052246,-8.427590370178223,5.5976433753967285,3.0670166015625,-2.7313232421875,-58.5174560546875
13.5899999,2.7317841053009033,-8.494627952575684,5.724536418914795,-7.354736328125,-2.9296875,-53.7872314453125
13.6099999,2.846705913543701,-8.389283180236816,5.805939197540283,6.256103515625,-12.3291015625,-64.8651123046875
13.629999900000001,2.959233283996582,-8.293514251708984,5.861005783081055,17.51708984375,-22.5982666015625,-70.2667236328125
13.649999900000001,3.090914487838745,-8.054094314575195,5.801150798797607,18.768310546875,-14.6636962890625,-68.8934326171875
13.6699999,3.2585084438323975,-7.7428483963012695,5.681440830230713,20.1416015625,-2.9144287109375,-66.6046142578125
13.6899999,3.4332852363586426,-7.412448406219482,5.521028995513916,32.7301025390625,-6.16455078125,-66.6961669921875
13.709999900000001,3.6152446269989014,-7.208941459655762,5.48272180557251,26.9317626953125,-20.0958251953125,-66.5130615234375
13.729999900000001,3.780444383621216,-7.094019412994385,5.580883979797363,16.876220703125,-21.1944580078125,-58.77685546875
13.7499999,3.9480385780334473,-6.998251438140869,5.659893035888672,36.041259765625,-25.054931640625,-60.8673095703125
13.7699999,4.10366153717041,-6.919242858886719,5.635950565338135,47.8973388671875,-28.0303955078125,-63.53759765625
13.789999900000002,4.280832767486572,-6.823474884033203,5.5976433753967285,6.561279296875,-17.9901123046875,-56.549072265625
13.809999900000001,4.443638324737549,-6.75883150100708,5.408501625061035,-9.368896484375,-12.1307373046875,-52.42919921875
13.8299999,4.608838081359863,-6.7492547035217285,5.3342814445495605,-2.3040771484375,-5.67626953125,-52.9022216796875
13.8499999,4.76924991607666,-6.766014099121094,5.310339450836182,-10.7421875,-3.936767578125,-50.1861572265625
13.8699999,4.93923807144165,-6.751648902893066,5.339069843292236,-25.4058837890625,-10.9405517578125,-46.4324951171875
13.889999900000001,5.104437828063965,-6.75883150100708,5.377377033233643,-23.5748291015625,-14.22119140625,-43.304443359375
13.9099999,5.250484466552734,-6.787561893463135,5.298368453979492,-13.336181640625,-11.6729736328125,-42.6025390625
13.9299999,5.384559631347656,-6.794744491577148,5.099649429321289,-8.575439453125,-4.5318603515625,-47.393798828125
13.9499999,5.506663799285889,-6.789956092834473,4.850652694702148,-11.9171142578125,0.5035400390625,-45.1507568359375
13.969999900000001,5.626373767852783,-6.7492547035217285,4.6734819412231445,-11.7645263671875,0.6103515625,-40.7562255859375
13.9899999,5.724536418914795,-6.751648902893066,4.623203277587891,23.773193359375,-2.3345947265625,-45.166015625
14.0099999,5.78678560256958,-6.737283706665039,4.72376012802124,46.2188720703125,-7.8887939453125,-50.689697265625
14.0299999,5.829881191253662,-6.586448669433594,4.841075897216797,26.4129638671875,-12.8631591796875,-51.1016845703125
14.049999900000001,5.872976779937744,-6.313509941101074,4.960785865783691,22.796630859375,-9.33837890625,-46.0052490234375
14.069999900000001,5.932831764221191,-5.884947776794434,5.03021764755249,42.449951171875,-10.5743408203125,-36.7889404296875
14.0899999,6.004657745361328,-5.473145008087158,5.1331682205200195,52.2308349609375,-13.5650634765625,-29.8004150390625
14.1099999,6.050147533416748,-5.2480902671813965,5.264849662780762,47.576904296875,-17.364501953125,-26.2603759765625
14.129999900000001,6.081272125244141,-5.219359874725342,5.430049419403076,54.8858642578125,-24.5361328125,-32.257080078125
14.149999900000001,6.110002517700195,-5.276820659637451,5.535394191741943,71.59423828125,-26.9622802734375,-42.4346923828125
14.1699999,6.167463779449463,-5.298368453979492,5.585672378540039,74.005126953125,-20.263671875,-45.22705078125
14.1899999,6.270414352416992,-5.183446884155273,5.621585369110107,74.9359130859375,-10.711669921875,-39.703369140625
14.209999900000001,6.382941722869873,-4.934449672698975,5.592854976654053,72.540283203125,-13.458251953125,-28.8238525390625
14.229999900000001,6.48828649520874,-4.611232280731201,5.652710437774658,43.45703125,-10.6964111328125,-22.7813720703125
14.2499999,6.560112476348877,-4.307168960571289,5.75326681137085,23.193359375,-4.4097900390625,-19.2718505859375
14.2699999,6.600813865661621,-4.01268196105957,5.834669589996338,29.72412109375,-9.2315673828125,-14.129638671875
14.289999900000002,6.6127848625183105,-3.794809579849243,5.961562156677246,32.9437255859375,-10.8642578125,-8.575439453125
14.309999900000001,6.605602264404297,-3.6296098232269287,6.026205539703369,44.677734375,-11.016845703125,-9.70458984375
14.3299999,6.5912370681762695,-3.56017804145813,5.966350555419922,50.4913330078125,-15.6097412109375,-12.1002197265625
14.3499999,6.586448669433594,-3.529053211212158,5.8442463874816895,31.3720703125,-14.83154296875,-10.07080078125
14.3699999,6.588842868804932,-3.557783842086792,5.731719017028809,13.641357421875,-10.07080078125,-5.92041015625
14.389999900000001,6.607996463775635,-3.5697548389434814,5.66228723526001,10.345458984375,-12.0086669921875,-8.0108642578125
14.4099999,6.646304130554199,-3.555389642715454,5.674258232116699,21.6827392578125,-14.2059326171875,-11.2457275390625
14.4299999,6.703764915466309,-3.5386300086975098,5.719748020172119,29.0679931640625,-12.75634765625,-10.2996826171875
14.4499999,6.775590896606445,-3.5482068061828613,5.779603004455566,17.913818359375,-7.7362060546875,-8.30078125
14.469999900000001,6.852205276489258,-3.5697548389434814,5.861005783081055,4.3487548828125,-7.5531005859375,-12.4664306640625
14.4899999,6.931213855743408,-3.6128504276275635,5.91128396987915,2.1209716796875,-15.045166015625,-18.49365234375
14.5099999,6.995857238769531,-3.5913026332855225,5.882553577423096,-9.33837890625,-18.9208984375,-19.3023681640625
14.5299999,7.050923824310303,-3.5386300086975098,5.808333396911621,-25.08544921875,-10.68115234375,-18.0816650390625
14.549999900000001,7.096413612365723,-3.4763808250427246,5.69580602645874,-18.951416015625,-3.7841796875,-20.843505859375
14.569999900000001,7.129932880401611,-3.423708438873291,5.583278179168701,-6.34765625,-12.2833251953125,-26.5350341796875
14.5899999,7.156269073486328,-3.3925838470458984,5.540182590484619,-9.5977783203125,-19.4854736328125,-28.1829833984375
14.6099999,7.196970462799072,-3.3207578659057617,5.4444146156311035,-24.96337890625,-23.62060546875,-29.47998046875
14.629999900000001,7.240066051483154,-3.2297780513763428,5.274426460266113,-26.6265869140625,-27.923583984375,-29.388427734375
14.649999900000001,7.309497833251953,-3.114856481552124,5.118803024291992,-16.448974609375,-16.510009765625,-34.7747802734375
14.6699999,7.402871608734131,-2.978386878967285,5.013458251953125,-20.20263671875,-4.0740966796875,-41.56494140625
14.6899999,7.496245384216309,-2.82515811920166,4.977545261383057,-30.8074951171875,-6.6375732421875,-40.2069091796875
14.709999900000001,7.613561630249023,-2.6623523235321045,5.006275653839111,-30.8837890625,-8.97216796875,-42.78564453125
14.729999900000001,7.745242595672607,-2.513911724090576,4.991910457611084,-20.111083984375,-12.0697021484375,-47.698974609375
14.7499999,7.891288757324219,-2.3989901542663574,4.944026470184326,-18.2952880859375,-12.8936767578125,-49.25537109375
14.7699999,8.054094314575195,-2.2625205516815186,4.776432514190674,-29.4342041015625,-7.7056884765625,-53.1005859375
14.789999900000002,8.20732307434082,-2.0805611610412598,4.479551315307617,-40.34423828125,-0.9002685546875,-55.8624267578125
14.809999900000001,8.358158111572266,-1.7812861204147339,4.199429988861084,-26.5960693359375,15.1214599609375,-57.3577880859375
14.8299999,8.492233276367188,-1.3982137441635132,3.907337188720703,3.6773681640625,18.85986328125,-57.2052001953125
14.8499999,8.609549522399902,-0.9768342971801758,3.7229835987091064,8.8958740234375,9.3231201171875,-52.4444580078125
14.8699999,8.712499618530273,-0.5530605912208557,3.622427225112915,12.1612548828125,7.354736328125,-49.8199462890625
14.889999900000001,8.798690795898438,-0.16998831927776337,3.490746021270752,12.939453125,14.007568359375,-48.919677734375
14.9099999,8.875306129455566,0.17238251864910126,3.4404678344726562,-10.101318359375,27.679443359375,-45.3948974609375
14.9299999,8.920795440673828,0.5578489899635315,3.4404678344726562,-9.6435546875,30.70068359375,-40.8782958984375
14.9499999,8.966285705566406,0.933738648891449,3.44765043258667,8.087158203125,25.299072265625,-34.1949462890625
14.969999900000001,8.973467826843262,1.2521674633026123,3.4117374420166016,3.2196044921875,18.1427001953125,-25.4669189453125
14.9899999,8.951920509338379,1.280897855758667,3.3039982318878174,2.0599365234375,20.0653076171875,-21.0418701171875
15.0099999,8.923190116882324,0.9074024558067322,2.8802247047424316,43.731689453125,13.1072998046875,-28.1219482421875
15.0299999,8.865729331970215,0.10534487664699554,2.1284453868865967,108.5205078125,6.8817138671875,-54.473876953125
15.049999900000001,8.789113998413086,-0.9576807022094727,1.0079588890075684,183.990478515625,19.7296142578125,-98.1903076171875
15.069999900000001,8.724471092224121,-1.9991583824157715,-0.7134721279144287,271.30126953125,28.900146484375,-151.7181396484375
15.0899999,8.640673637390137,-2.786850690841675,-2.8371291160583496,349.3499755859375,31.280517578125,-214.7979736328125
15.1099999,8.489839553833008,-3.095702886581421,-5.197812080383301,377.5177001953125,29.2205810546875,-280.609130859375
15.129999900000001,8.121131896972656,-2.5737667083740234,-8.236053466796875,369.293212890625,5.18798828125,-339.447021484375
15.149999900000001,7.357381820678711,-1.1037269830703735,-12.270283699035645,337.5244140625,-15.625,-386.3067626953125
15.1699999,5.477933406829834,2.6886885166168213,-18.6053409576416,377.7313232421875,29.052734375,-417.4957275390625
15.1899999,2.3511061668395996,9.794678688049316,-27.57880973815918,412.78076171875,182.12890625,-372.772216796875
15.209999900000001,-3.598485231399536,18.768146514892578,-34.44298553466797,205.474853515625,440.0787353515625,-234.7564697265625
15.229999900000001,-12.15057373046875,27.94512176513672,-34.81887435913086,324.676513671875,499.9847412109375,-179.1229248046875
15.2499999,-22.318748474121094,38.177940368652344,-27.0377197265625,499.9847412109375,499.9847412109375,-267.0440673828125
15.2699999,-30.461427688598633,46.28231430053711,-6.387730121612549,-500,489.3646240234375,-146.78955078125
15.289999900000002,-34.550724029541016,46.11471939086914,14.932636260986328,-500,167.9534912109375,385.07080078125
15.309999900000001,-31.90752601623535,42.43482971191406,32.11821746826172,451.1566162109375,-21.4080810546875,301.7578125
15.3299999,-25.680208206176758,31.325735092163086,39.75093078613281,499.9847412109375,82.2601318359375,51.605224609375
15.3499999,-16.960525512695312,15.447389602661133,36.5977668762207,-54.0924072265625,82.8094482421875,213.6688232421875
15.3699999,-9.713275909423828,5.377377033233643,26.997018814086914,65.3228759765625,44.5709228515625,91.30859375
15.389999900000001,-4.288015365600586,-2.4396915435791016,16.77617073059082,31.219482421875,42.144775390625,66.650390625
15.4099999,-0.9026140570640564,-4.659116744995117,8.267178535461426,-71.533203125,54.7637939453125,109.8480224609375
15.4299999,0.7206547260284424,-3.4787750244140625,3.2297780513763428,-81.817626953125,43.4417724609375,105.743408203125
15.4499999,1.3263877630233765,-1.1037269830703735,1.3934253454208374,-5.5389404296875,6.3323974609375,79.9560546875
15.469999900000001,1.400607943534851,1.2713210582733154,1.338358759880066,17.974853515625,-20.2484130859375,50.6134033203125
15.4899999,1.2737152576446533,3.361459255218506,1.6424223184585571,7.3394775390625,-9.1400146484375,37.17041015625
15.5099999,1.2258312702178955,5.049371242523193,1.766920804977417,-21.97265625,31.768798828125,43.426513671875
15.5299999,1.3742717504501343,6.2847795486450195,1.9584569931030273,-21.453857421875,42.29736328125,51.025390625
15.549999900000001,1.6903064250946045,7.050923824310303,2.559401512145996,9.70458984375,15.31982421875,39.36767578125
15.569999900000001,2.099714994430542,7.266402244567871,3.220201253890991,30.2276611328125,-9.5367431640625,31.3262939453125
15.5899999,2.5713725090026855,7.113173484802246,3.3686418533325195,21.636962890625,-0.5035400390625,35.919189453125
15.6099999,3.0526070594787598,6.794744491577148,3.1028854846954346,0.0457763671875,30.0445556640625,35.858154296875
15.629999900000001,3.5003228187561035,6.3518171310424805,2.832340717315674,7.4615478515625,36.163330078125,23.5595703125
15.649999900000001,3.912125587463379,5.928043365478516,2.7006595134735107,44.342041015625,9.27734375,8.1329345703125
15.6699999,4.220977783203125,5.655104637145996,2.8586769104003906,43.1365966796875,-2.532958984375,3.2958984375
15.6899999,4.422090530395508,5.676652431488037,2.7461493015289307,22.216796875,13.61083984375,3.082275390625
15.709999900000001,4.541800498962402,5.992686748504639,2.492363929748535,12.6190185546875,26.611328125,0.8087158203125
15.729999900000001,4.611232280731201,6.3949127197265625,2.2625205516815186,10.1776123046875,23.0865478515625,-2.8228759765625
15.7499999,4.6471452713012695,6.766014099121094,2.164358377456665,-0.885009765625,14.404296875,-6.378173828125
15.7699999,4.6734819412231445,7.029376029968262,2.1978771686553955,-15.869140625,16.7388916015625,-9.8724365234375
15.789999900000002,4.661510944366455,7.1706342697143555,2.319981336593628,-19.439697265625,24.9176025390625,-11.71875
15.809999900000001,4.616020679473877,7.19936466217041,2.6240451335906982,-16.6015625,22.0184326171875,-14.0838623046875
15.8299999,4.553771495819092,7.108384609222412,2.9879636764526367,-5.79833984375,10.467529296875,-18.7835693359375
15.8499999,4.486733913421631,7.005434036254883,3.2824504375457764,2.0904541015625,9.9334716796875,-25.115966796875
15.869999900000002,4.441244125366211,6.916848659515381,3.3016040325164795,10.1165771484375,24.0478515625,-23.773193359375
15.889999900000001,4.410119533538818,7.003039836883545,3.2417490482330322,8.392333984375,34.6527099609375,-23.2391357421875
15.9099999,4.400542736053467,7.314286231994629,3.047818660736084,16.7694091796875,23.98681640625,-29.144287109375
15.9299999,4.41969633102417,7.766790390014648,2.894589900970459,14.312744140625,16.448974609375,-30.5328369140625
15.9499999,4.4532151222229,8.300697326660156,2.7557260990142822,-3.753662109375,17.88330078125,-28.74755859375
15.969999900000001,4.462791919708252,8.791508674621582,2.6815059185028076,-14.129638671875,16.876220703125,-25.7720947265625
15.9899999,4.4508209228515625,9.129091262817383,2.7246015071868896,1.0528564453125,8.60595703125,-22.918701171875
16.0099999,4.388571739196777,9.248801231384277,2.8993782997131348,16.7694091796875,-0.3814697265625,-23.1170654296875
16.0299999,4.290409564971924,9.220070838928223,2.9879636764526367,21.9573974609375,-2.44140625,-26.9012451171875
16.0499999,4.175487995147705,9.155426979064941,2.920926094055176,9.33837890625,1.7852783203125,-27.2674560546875
16.0699999,4.050989151000977,9.10993766784668,2.695871114730835,-12.5274658203125,3.4332275390625,-21.2860107421875
16.089999900000002,3.9169139862060547,9.102754592895508,2.4684219360351562,-29.266357421875,4.852294921875,-13.61083984375
16.109999900000002,3.780444383621216,8.992621421813965,2.360682964324951,-26.8096923828125,7.1258544921875,-10.223388671875
16.1299999,3.641580820083618,8.796297073364258,2.3127987384796143,-14.6484375,6.256103515625,-14.801025390625
16.1499999,3.5027170181274414,8.540117263793945,2.3965959548950195,-16.5863037109375,7.6446533203125,-18.49365234375
16.1699999,3.3518824577331543,8.286332130432129,2.5019407272338867,-24.47509765625,9.2010498046875,-16.082763671875
16.1899999,3.1890766620635986,8.101978302001953,2.559401512145996,-23.101806640625,10.07080078125,-13.48876953125
16.2099999,3.0382418632507324,7.99184513092041,2.63362193107605,-26.3214111328125,15.8538818359375,-16.8304443359375
16.2299999,2.935291290283203,7.955932140350342,2.6839001178741455,-40.985107421875,20.6298828125,-19.1192626953125
16.249999900000002,2.892195701599121,7.989450931549072,2.7892448902130127,-53.1463623046875,21.5606689453125,-14.6331787109375
16.269999900000002,2.8993782997131348,8.022970199584961,3.026270866394043,-53.9703369140625,22.15576171875,-10.3607177734375
16.2899999,2.9161376953125,7.99184513092041,3.313575267791748,-25.3143310546875,20.172119140625,-13.00048828125
16.3099999,2.9089550971984863,7.9415669441223145,3.5960910320281982,-5.0811767578125,17.39501953125,-21.1029052734375
16.3299999,2.8634653091430664,7.922413349151611,3.84269380569458,-20.56884765625,15.777587890625,-23.3154296875
16.3499999,2.7964274883270264,7.99184513092041,3.955221176147461,-34.515380859375,12.39013671875,-13.916015625
16.3699999,2.7078421115875244,8.106766700744629,4.010287761688232,-34.72900390625,8.7432861328125,-8.5296630859375
16.3899999,2.609679937362671,8.200140953063965,4.01268196105957,-29.541015625,7.0953369140625,-10.7574462890625
16.4099999,2.518700122833252,8.209717750549316,3.8786067962646484,-12.0391845703125,3.814697265625,-10.7574462890625
16.429999900000002,2.4013843536376953,8.259995460510254,3.689464807510376,8.5601806640625,5.5694580078125,-6.53076171875
16.4499999,2.2888567447662354,8.38688850402832,3.536235809326172,-6.7291259765625,8.148193359375,-2.4871826171875
16.4699999,2.185906171798706,8.47547435760498,3.4117374420166016,-33.9202880859375,2.8533935546875,13.702392578125
16.4899999,2.1356279850006104,8.523358345031738,3.3901896476745605,-27.9693603515625,1.2359619140625,26.55029296875
16.5099999,2.169146776199341,8.47786808013916,3.2968156337738037,-19.47021484375,-10.3912353515625,32.012939453125
16.5299999,2.2649147510528564,8.360552787780762,3.1459810733795166,-23.0712890625,-4.2877197265625,34.576416015625
16.5499999,2.3750481605529785,8.276755332946777,3.043030261993408,-20.233154296875,13.5650634765625,40.618896484375
16.5699999,2.4205379486083984,8.190564155578613,3.2154128551483154,8.941650390625,31.1431884765625,41.290283203125
16.589999900000002,2.4157495498657227,7.994239330291748,3.6750996112823486,32.684326171875,23.406982421875,44.12841796875
16.609999900000002,2.389413356781006,7.673416614532471,4.352658748626709,11.871337890625,17.63916015625,41.351318359375
16.6299999,2.403778553009033,7.311892032623291,5.003881454467773,-14.8773193359375,16.90673828125,29.6173095703125
16.6499999,2.5282769203186035,7.12035608291626,5.331887245178223,5.096435546875,13.5040283203125,21.1181640625
16.6699999,2.760514497756958,7.046135425567627,5.274426460266113,52.520751953125,11.16943359375,19.683837890625
16.6899999,3.0406360626220703,7.1490864753723145,4.994304656982422,68.2525634765625,20.263671875,17.8985595703125
16.7099999,3.2800562381744385,7.2568254470825195,4.714183330535889,7.2021484375,27.2216796875,17.8680419921875
16.7299999,3.442862033843994,7.3693528175354,4.627991676330566,-58.929443359375,19.59228515625,19.8974609375
16.749999900000002,3.5266590118408203,7.479485988616943,4.711789131164551,-56.5032958984375,10.101318359375,22.064208984375
16.769999900000002,3.5410242080688477,7.589619159698486,4.699818134307861,0.0152587890625,22.796630859375,20.599365234375
16.7899999,3.485957622528076,7.714118003845215,4.565742492675781,9.613037109375,75.3326416015625,17.425537109375
16.8099999,3.4117374420166016,7.819462776184082,4.367023944854736,-61.9659423828125,122.9248046875,55.2825927734375
16.8299999,3.2800562381744385,7.663839817047119,4.383783340454102,-131.3323974609375,115.53955078125,89.8895263671875
16.8499999,3.19865345954895,7.484274387359619,4.759673118591309,-120.697021484375,79.52880859375,60.24169921875
16.8699999,3.177105665206909,7.105990409851074,5.458779811859131,-80.9783935546875,75.0732421875,32.3638916015625
16.8899999,3.162740468978882,6.593631267547607,6.251260757446289,-80.9783935546875,55.0384521484375,13.1072998046875
16.9099999,3.1435868740081787,6.251260757446289,6.9910688400268555,-66.2841796875,46.051025390625,-12.054443359375
16.929999900000002,3.0837318897247314,6.035782337188721,7.556100368499756,-55.4656982421875,54.8095703125,-9.7198486328125
16.9499999,2.964021682739258,5.889736175537109,7.802703380584717,-28.7322998046875,55.4962158203125,-1.251220703125
16.9699999,2.8227639198303223,5.913678169250488,7.790732383728027,-15.3961181640625,57.0526123046875,-15.56396484375
16.9899999,2.628833532333374,5.9735331535339355,7.4770917892456055,-29.0985107421875,43.5028076171875,-20.416259765625
17.0099999,2.425326347351074,6.030993938446045,7.086836814880371,-36.590576171875,45.7916259765625,-14.801025390625
17.0299999,2.2146365642547607,6.064512729644775,6.751648902893066,-44.1131591796875,57.2052001953125,-8.331298828125
17.0499999,2.0039467811584473,6.042964935302734,6.670246124267578,-65.277099609375,56.2744140625,-10.8489990234375
17.0699999,1.8555063009262085,6.009446144104004,6.938396453857422,-67.4285888671875,56.7626953125,-21.575927734375
17.089999900000002,1.723825216293335,5.856217384338379,7.247248649597168,-54.4891357421875,44.1436767578125,-18.37158203125
17.109999900000002,1.6280571222305298,5.796362400054932,7.649474620819092,-50.5523681640625,49.3621826171875,-14.129638671875
17.1299999,1.5825673341751099,5.750872611999512,8.039729118347168,-58.28857421875,61.4471435546875,-7.5531005859375
17.1499999,1.5418659448623657,5.765237808227539,8.355764389038086,-38.482666015625,48.4771728515625,4.33349609375
17.1699999,1.534683346748352,5.7987565994262695,8.683769226074219,-26.4892578125,25.8026123046875,13.153076171875
17.1899999,1.5610195398330688,5.949591159820557,9.059659004211426,-37.8265380859375,25.1922607421875,10.8489990234375
17.2099999,1.6280571222305298,6.086060523986816,9.272743225097656,-30.8074951171875,14.190673828125,25.8941650390625
17.2299999,1.721431016921997,6.121973514556885,9.387664794921875,-14.0380859375,1.77001953125,41.839599609375
17.249999900000002,1.8339585065841675,5.9304375648498535,9.512163162231445,-20.7977294921875,7.3089599609375,34.11865234375
17.269999900000002,1.886630892753601,5.5976433753967285,9.32302188873291,-11.0931396484375,-1.15966796875,9.429931640625
17.2899999,1.9033904075622559,5.185841083526611,9.05247688293457,-3.2196044921875,-1.129150390625,-13.36669921875
17.3099999,1.8938134908676147,4.888959884643555,8.83939266204834,-17.76123046875,19.8822021484375,3.021240234375
17.3299999,1.8602946996688843,4.774038314819336,8.702922821044922,-19.83642578125,15.045166015625,16.54052734375
17.3499999,1.8363527059555054,4.7405195236206055,8.779537200927734,-14.5721435546875,0.457763671875,9.1705322265625
17.3699999,1.8195933103561401,4.817133903503418,8.932766914367676,-11.77978515625,-4.3487548828125,-0.152587890625
17.3899999,1.8267759084701538,4.924872875213623,8.923190116882324,-6.6680908203125,-3.753662109375,6.988525390625
17.409999900000003,1.8483237028121948,5.1116204261779785,8.731653213500977,-3.5247802734375,-0.8087158203125,21.331787109375
17.429999900000002,1.886630892753601,5.1810526847839355,8.461109161376953,-17.7459716796875,11.383056640625,27.2216796875
17.4499999,1.9967641830444336,5.118803024291992,8.391676902770996,-37.3992919921875,18.1884765625,27.2064208984375
17.4699999,2.0661959648132324,4.8602294921875,8.4108304977417,-32.501220703125,0.9765625,12.359619140625
17.4899999,2.075772762298584,4.671087741851807,8.578424453735352,-24.871826171875,-14.2974853515625,-6.134033203125
17.5099999,2.0925323963165283,4.484339714050293,8.743624687194824,-29.1290283203125,5.828857421875,13.763427734375
17.5299999,2.0925323963165283,4.2951979637146,8.757989883422852,-25.20751953125,22.1710205078125,38.1927490234375
17.5499999,2.1068975925445557,4.048594951629639,8.700529098510742,-44.342041015625,23.5137939453125,25.8026123046875
17.5699999,2.10210919380188,3.711012601852417,8.69095230102539,-71.59423828125,31.9976806640625,2.9449462890625
17.589999900000002,2.011129379272461,3.270479440689087,8.686163902282715,-67.352294921875,37.4298095703125,6.1798095703125
17.609999900000002,1.742978811264038,2.9975404739379883,8.9064302444458,-65.97900390625,34.85107421875,2.0599365234375
17.6299999,1.4173674583435059,2.851494312286377,9.11233139038086,-50.8880615234375,20.1568603515625,-1.89208984375
17.6499999,1.1779472827911377,2.695871114730835,9.102754592895508,-35.6597900390625,19.073486328125,6.378173828125
17.6699999,0.9959878921508789,2.87064790725708,9.402029991149902,-79.864501953125,50.23193359375,-1.190185546875
17.6899999,1.0342950820922852,2.873042106628418,9.801861763000488,-72.8759765625,39.9017333984375,9.70458984375
17.7099999,1.015141487121582,2.892195701599121,10.019734382629395,3.265380859375,-36.285400390625,3.3416748046875
17.7299999,1.091755986213684,2.868253707885742,10.512939453125,3.1280517578125,-24.0325927734375,-10.1165771484375
17.749999900000002,1.158793568611145,2.7748796939849854,10.639832496643066,-32.867431640625,-4.150390625,-15.6097412109375
17.769999900000002,1.2976573705673218,2.7916390895843506,10.491392135620117,-22.8118896484375,-41.107177734375,-23.5443115234375
17.7899999,1.482010841369629,2.8778305053710938,10.414777755737305,-9.765625,-33.2183837890625,-0.244140625
17.8099999,1.6855180263519287,3.021482467651367,10.089165687561035,4.2266845703125,-21.087646484375,12.6495361328125
17.8299999,1.8267759084701538,3.1196448802948,9.763554573059082,4.1656494140625,-12.4969482421875,13.5498046875
17.8499999,1.8722656965255737,3.160346269607544,9.334992408752441,15.716552734375,-7.6751708984375,4.39453125
17.8699999,1.86508309841156,3.1651346683502197,8.947132110595703,18.798828125,-3.5247802734375,9.3231201171875
17.8899999,1.7717092037200928,2.964021682739258,8.597578048706055,-3.7078857421875,8.056640625,24.4903564453125
17.909999900000003,1.6208745241165161,2.6815059185028076,8.291120529174805,-16.8914794921875,30.029296875,22.247314453125
17.929999900000002,1.436521053314209,2.3487119674682617,8.13789176940918,-15.9454345703125,46.44775390625,9.82666015625
17.9499999,1.278503656387329,2.1068975925445557,8.243236541748047,-29.2816162109375,42.3583984375,13.18359375
17.9699999,1.173158884048462,2.006340980529785,8.564059257507324,-14.434814453125,38.970947265625,19.4549560546875
17.9899999,1.0989385843276978,1.9393033981323242,8.9064302444458,9.4757080078125,34.36279296875,24.4293212890625
18.0099999,1.0534487962722778,1.7549498081207275,9.191340446472168,-1.220703125,32.8216552734375,27.77099609375
18.0299999,1.0055646896362305,1.4317326545715332,9.351752281188965,-22.2320556640625,38.421630859375,16.2811279296875
18.0499999,0.9600749015808105,1.1204863786697388,9.421183586120605,-42.2210693359375,36.6668701171875,1.2054443359375
18.0699999,0.9169792532920837,0.9193734526634216,9.502586364746094,-45.7611083984375,29.1595458984375,-0.4730224609375
18.089999900000002,0.871489405632019,0.9313444495201111,9.543288230895996,-10.80322265625,26.5045166015625,1.6937255859375
18.109999900000002,0.7972691655158997,1.1037269830703735,9.493009567260742,5.0811767578125,24.8565673828125,2.899169921875
18.1299999,0.6943184733390808,1.3096283674240112,9.342175483703613,0.1373291015625,26.9622802734375,7.110595703125
18.1499999,0.5841852426528931,1.4460978507995605,9.160215377807617,13.2598876953125,31.2652587890625,9.1400146484375
18.1699999,0.4812345504760742,1.4413094520568848,9.08838939666748,34.271240234375,32.3333740234375,8.514404296875
18.1899999,0.40701428055763245,1.3096283674240112,9.241618156433105,60.97412109375,26.9927978515625,2.1820068359375
18.2099999,0.2968810200691223,1.1037269830703735,9.44752025604248,107.2235107421875,15.80810546875,-10.589599609375
18.2299999,0.1867477297782898,1.137245774269104,9.469067573547363,119.4305419921875,7.87353515625,-21.54541015625
18.249999900000002,0.05267243832349777,1.4293384552001953,9.332598686218262,33.355712890625,16.11328125,-13.9923095703125
18.269999900000002,-0.08140286058187485,1.9847931861877441,9.033323287963867,-9.6282958984375,26.5045166015625,0.946044921875
18.2899999,-0.20350714027881622,2.5330653190612793,8.868123054504395,25.2685546875,29.0374755859375,3.2806396484375
18.3099999,-0.3208230137825012,2.82515811920166,8.966285705566406,42.96875,22.674560546875,-5.5389404296875
18.3299999,-0.4572925269603729,2.8347349166870117,9.160215377807617,40.4510498046875,12.2833251953125,-17.730712890625
18.3499999,-0.586579442024231,2.779668092727661,9.311050415039062,25.0701904296875,14.739990234375,-29.1290283203125
18.3699999,-0.7206547260284424,2.762908697128296,9.296685218811035,-8.97216796875,23.4375,-23.193359375
18.3899999,-0.8355764150619507,2.868253707885742,9.23682975769043,-44.525146484375,32.77587890625,-12.8326416015625
18.409999900000003,-0.9145850539207458,2.9712042808532715,9.425971984863281,-57.373046875,38.3453369140625,-14.8468017578125
18.429999900000002,-0.9576807022094727,3.00711727142334,9.80904483795166,-8.697509765625,26.123046875,-28.38134765625
18.4499999,-0.950498104095459,3.0765492916107178,10.283096313476562,19.6685791015625,6.744384765625,-31.6619873046875
18.4699999,-0.8930372595787048,3.2537200450897217,10.72602367401123,-0.3814697265625,5.5084228515625,-17.425537109375
18.4899999,-0.828393816947937,3.4380736351013184,10.958261489868164,7.7362060546875,6.072998046875,-0.4730224609375
18.5099999,-0.7972691655158997,3.533841609954834,10.991780281066895,35.736083984375,-4.7607421875,10.0860595703125
18.5299999,-0.8020575642585754,3.5051112174987793,10.948684692382812,36.651611328125,-11.962890625,11.688232421875
18.5499999,-0.8690952062606812,3.2992098331451416,10.836156845092773,6.927490234375,-14.7247314453125,9.58251953125
18.5699999,-0.9983820915222168,3.2585084438323975,10.551246643066406,-2.3040771484375,-15.5792236328125,6.9580078125
18.589999900000002,-1.1061211824417114,3.2154128551483154,10.146626472473145,-22.27783203125,-14.984130859375,14.5416259765625
18.609999900000002,-1.216254472732544,3.1435868740081787,9.81143856048584,-100.3265380859375,-11.9781494140625,24.10888671875
18.6299999,-1.2066776752471924,2.9017724990844727,9.732429504394531,-119.476318359375,-11.23046875,24.8260498046875
18.6499999,-1.1659762859344482,2.4229321479797363,9.725247383117676,-44.708251953125,-20.6298828125,12.0391845703125
18.6699999,-1.0678139925003052,1.9105730056762695,9.86889934539795,-17.2882080078125,-15.6707763671875,4.7149658203125
18.6899999,-1.0007762908935547,1.4173674583435059,9.847352027893066,-37.65869140625,-9.735107421875,-5.4168701171875
18.7099999,-0.9696516990661621,1.0031704902648926,9.670180320739746,-46.1273193359375,-4.119873046875,-11.53564453125
18.7299999,-0.9600749015808105,0.7110779285430908,9.354146003723145,-49.4537353515625,-30.029296875,-21.759033203125
18.749999900000002,-0.9361328482627869,0.45489832758903503,9.14585018157959,-75.3021240234375,-30.548095703125,-19.7296142578125
18.769999900000002,-0.9481038451194763,0.3232172429561615,8.880094528198242,-88.470458984375,-3.9215087890625,-9.2010498046875
18.7899999,-0.9265560507774353,0.2298433631658554,8.83699893951416,-109.86328125,30.45654296875,-9.6435546875
18.8099999,-0.9768342971801758,0.15562310814857483,8.877699851989746,-88.958740234375,31.9976806640625,-13.8092041015625
18.8299999,-1.0079588890075684,0.06464344263076782,8.995016098022461,-43.02978515625,4.39453125,-22.186279296875
18.8499999,-1.0606313943862915,-0.031124621629714966,9.313444137573242,-39.3218994140625,23.406982421875,-22.2625732421875
18.8699999,-0.933738648891449,-0.2346317619085312,9.80904483795166,-47.9736328125,14.434814453125,-20.4010009765625
18.8899999,-0.7852981686592102,-0.4118026793003082,10.38844108581543,-5.3558349609375,-8.1787109375,-39.36767578125
18.909999900000003,-0.6057330369949341,-0.5650315880775452,10.833763122558594,21.3470458984375,-19.04296875,-46.20361328125
18.929999900000002,-0.5051765441894531,-0.5602431893348694,10.888829231262207,-8.4991455078125,-19.0582275390625,-18.463134765625
18.9499999,-0.5482721924781799,-0.395043283700943,10.579977035522461,0.3814697265625,8.270263671875,9.5367431640625
18.9699999,-0.6584054827690125,-0.2537853717803955,10.06043529510498,12.1307373046875,21.1029052734375,19.6533203125
18.9899999,-0.7015010714530945,-0.2968810200691223,9.749189376831055,7.0343017578125,12.8936767578125,5.828857421875
19.0099999,-0.7326257228851318,-0.4141969084739685,9.639056205749512,17.15087890625,13.2598876953125,-19.500732421875
19.0299999,-0.7445967197418213,-0.49320554733276367,9.653421401977539,23.01025390625,10.1776123046875,-26.67236328125
19.0499999,-0.7589619159698486,-0.4381389021873474,9.732429504394531,4.3792724609375,7.6751708984375,-10.3607177734375
19.0699999,-0.790086567401886,-0.21308395266532898,9.77791976928711,-13.1072998046875,12.75634765625,3.9215087890625
19.089999900000002,-0.7852981686592102,-0.047884032130241394,9.832986831665039,-18.157958984375,18.24951171875,7.1258544921875
19.109999900000002,-0.7661445140838623,0.07422025501728058,9.828198432922363,-32.40966796875,14.0533447265625,6.683349609375
19.1299999,-0.768538773059845,0.16519992053508759,9.775525093078613,-56.0760498046875,26.0009765625,9.9334716796875
19.1499999,-0.7541735172271729,0.15801730751991272,9.909601211547852,-61.4776611328125,59.478759765625,15.6097412109375
19.1699999,-0.7781155705451965,0.10773907601833344,9.904812812805176,-16.4794921875,48.27880859375,11.8865966796875
19.1899999,-0.8523358106613159,0.07900865375995636,9.897629737854004,56.3201904296875,37.3382568359375,10.772705078125
19.2099999,-0.8212111592292786,0.002394201699644327,9.72285270690918,36.1328125,39.1082763671875,29.4189453125
19.2299999,-0.8834604024887085,-0.014365210197865963,8.918401718139648,-22.796630859375,31.2652587890625,-21.087646484375
19.249999900000002,-1.2665326595306396,-0.1388636976480484,8.643068313598633,-79.04052734375,69.9462890625,-57.891845703125
19.269999900000002,-1.900996208190918,-0.5267243981361389,8.358158111572266,65.7806396484375,89.84375,38.726806640625
19.2899999,-2.7293899059295654,-1.070208191871643,8.712499618530273,69.39697265625,31.1737060546875,52.06298828125
19.3099999,-3.464409828186035,-1.400607943534851,9.378087997436523,17.486572265625,18.8446044921875,42.3583984375
19.3299999,-3.732560396194458,-1.359906554222107,9.888052940368652,24.5513916015625,34.36279296875,37.4755859375
19.3499999,-3.6128504276275635,-1.0654197931289673,10.022128105163574,-4.7760009765625,15.655517578125,14.6331787109375
19.3699999,-3.220201253890991,-0.6440402865409851,10.017339706420898,-0.1220703125,26.0772705078125,15.2435302734375
19.3899999,-2.853888511657715,-0.26096799969673157,9.979032516479492,7.9498291015625,33.4930419921875,-0.6866455078125
19.409999900000003,-2.540247917175293,-0.1604115068912506,9.928754806518555,1.800537109375,3.41796875,-13.1988525390625
19.429999900000002,-2.3726539611816406,0.1149216815829277,9.86650562286377,0.9613037109375,-1.312255859375,-2.0751953125
19.4499999,-2.365471363067627,0.12689268589019775,9.854534149169922,9.33837890625,35.2325439453125,22.0184326171875
19.4699999,-2.494758129119873,0.26575639843940735,9.904812812805176,88.6688232421875,80.6427001953125,24.96337890625
19.4899999,-2.760514497756958,0.30885201692581177,10.26394271850586,32.501220703125,29.4189453125,16.387939453125
19.5099999,-2.9448680877685547,0.3016694188117981,10.515334129333496,-38.299560546875,-53.7872314453125,27.89306640625
19.5299999,-3.0550012588500977,0.23942017555236816,10.685321807861328,-63.1103515625,-34.5306396484375,19.0277099609375
19.5499999,-3.0334534645080566,0.10055647045373917,10.524910926818848,-44.036865234375,9.33837890625,-1.922607421875
19.5699999,-2.8826189041137695,-0.33279404044151306,9.998186111450195,-21.30126953125,7.9498291015625,-10.7269287109375
19.589999900000002,-2.8179752826690674,-0.5985504388809204,9.500192642211914,-34.5458984375,2.0904541015625,-30.2581787109375
19.609999900000002,-2.8155810832977295,-0.5650315880775452,9.473855972290039,-72.69287109375,27.4810791015625,-33.02001953125
19.6299999,-2.8658595085144043,-0.5051765441894531,9.224859237670898,-71.2127685546875,-18.096923828125,-0.4119873046875
19.6499999,-2.9233202934265137,-0.2849099934101105,9.390059471130371,-59.0667724609375,-39.825439453125,15.1824951171875
19.6699999,-2.9688100814819336,-0.21787235140800476,9.48343276977539,-49.4232177734375,-11.3372802734375,7.5225830078125
19.6899999,-2.940079689025879,-0.42616790533065796,9.334992408752441,-57.9681396484375,-15.5029296875,7.26318359375
19.7099999,-2.9161376953125,-0.7015010714530945,9.27034854888916,-75.286865234375,-8.6822509765625,14.46533203125
19.7299999,-2.875436305999756,-1.0295066833496094,9.260771751403809,-75.469970703125,1.220703125,15.3045654296875
19.749999900000002,-2.8802247047424316,-1.3192051649093628,9.346963882446289,-62.591552734375,-13.153076171875,12.176513671875
19.769999900000002,-2.8634653091430664,-1.601720929145813,9.57201862335205,-59.9212646484375,-27.923583984375,6.591796875
19.7899999,-2.873042106628418,-1.7932571172714233,9.751583099365234,-80.535888671875,-37.5518798828125,7.537841796875
19.8099999,-2.8227639198303223,-2.011129379272461,9.880870819091797,-89.41650390625,-45.34912109375,13.4429931640625
19.8299999,-2.715024709701538,-2.3056161403656006,9.90241813659668,-79.4525146484375,-42.54150390625,11.9781494140625
19.8499999,-2.5713725090026855,-2.6001031398773193,9.818621635437012,-61.7828369140625,-34.149169921875,3.875732421875
19.8699999,-2.3965959548950195,-2.8419175148010254,9.627084732055664,-41.7327880859375,-25.9552001953125,2.1209716796875
19.8899999,-2.2146365642547607,-2.96162748336792,9.390059471130371,-36.56005859375,-16.9830322265625,16.6778564453125
19.909999900000003,-2.0853497982025146,-2.9233202934265137,9.165003776550293,-36.80419921875,-9.33837890625,24.658203125
19.929999900000002,-2.011129379272461,-2.96162748336792,9.006986618041992,-22.0184326171875,-16.6015625,24.749755859375
19.9499999,-2.008735179901123,-3.064578056335449,8.956708908081055,-13.8702392578125,-16.7083740234375,18.85986328125
19.9699999,-2.0422539710998535,-3.2417490482330322,8.939949035644531,-22.8424072265625,-8.819580078125,13.458251953125
19.9899999,-2.0614075660705566,-3.4165258407592773,9.016563415527344,-18.280029296875,-0.7171630859375,12.75634765625
20.0099999,-2.0159177780151367,-3.4787750244140625,9.220070838928223,9.2926025390625,1.2969970703125,12.2222900390625
20.0299999,-1.9153614044189453,-3.378218650817871,9.481039047241211,46.8902587890625,-9.70458984375,5.4931640625
20.0499999,-1.7597382068634033,-3.162740468978882,9.730035781860352,14.1143798828125,-26.5960693359375,10.3607177734375
20.0699999,-1.5658079385757446,-2.829946517944336,10.050858497619629,-60.05859375,-18.707275390625,25.1007080078125
20.089999900000002,-1.3718775510787964,-2.628833532333374,10.381258964538574,-81.1920166015625,-15.533447265625,38.7115478515625
20.109999900000002,-1.1827356815338135,-2.609679937362671,10.960655212402344,-39.3829345703125,-29.0374755859375,37.567138671875
20.1299999,-1.0247182846069336,-2.691082715988159,11.69806957244873,9.0179443359375,-51.94091796875,23.529052734375
20.1499999,-0.9672574996948242,-2.6575639247894287,12.052411079406738,-13.00048828125,-89.7064208984375,27.3895263671875
20.1699999,-0.9193734526634216,-2.691082715988159,12.322956085205078,-120.4833984375,-86.3494873046875,61.553955078125
20.1899999,-0.9624691009521484,-2.7006595134735107,12.105083465576172,-109.619140625,-77.728271484375,68.3746337890625
20.2099999,-1.0414776802062988,-2.8993782997131348,11.595118522644043,-65.5975341796875,-85.6475830078125,53.2379150390625
20.2299999,-1.1228805780410767,-3.383007049560547,11.195286750793457,-138.36669921875,-75.3326416015625,62.6068115234375
20.249999900000002,-1.2449848651885986,-4.041412353515625,10.656591415405273,-181.7474365234375,-83.2061767578125,84.5794677734375
20.269999900000002,-1.3838485479354858,-4.797980308532715,10.139444351196289,-173.2635498046875,-85.87646484375,80.902099609375
20.2899999,-1.4389152526855469,-5.633556365966797,9.885659217834473,-183.0596923828125,-74.9969482421875,61.9049072265625
20.3099999,-1.45806884765625,-6.3302693367004395,9.6989107131958,-130.2337646484375,-92.4530029296875,37.1246337890625
